"trial_type","trial_index","time_elapsed","internal_node_id","Script_Picker","Block_Type","rt","url","responses","question_order","stimulus","key_press"
"pavlovia","0","7","0.0-0.0","10","Low_HMMActual","","","","","",""
"external-html","1","34316","0.0-1.0-0.0","10","Low_HMMActual","34517","consent.html","","","",""
"survey-multi-choice","2","53521","0.0-1.0-1.0","10","Low_HMMActual","19565","","{""Q0"":""Male"",""Q1"":""Other""}","[0,1]","",""
"survey-text","3","57117","0.0-1.0-2.0","10","Low_HMMActual","3588","","{""Q0"":""34""}","","",""
"survey-text","4","67181","0.0-1.0-3.0","10","Low_HMMActual","10058","","{""Q0"":""5d470786da637a00014ba26f""}","","",""
"html-keyboard-response","5","80475","0.0-2.0-0.0","10","Low_HMMActual","13290","","","","<div class=""container"" style=""height:800px;width:800px;display:flex;flex-direction:column;justify-content:center;align-items:center;text-align:center;font-weight:normal;font-family:Arial;font-size:20px""><p>In this task you will see black or white beads being pulled from jars. <br><br>On each trial, a bead will be pulled from one of two jars. Once you see this bead, your goal is to predict the color of NEXT bead that will be pulled. <br> <br>Every time you correctly guess the color of the NEXT bead, you will get a point. <br><br>Press the SPACEBAR to continue.</p><div>","32"
"html-keyboard-response","6","101437","0.0-2.0-1.0","10","Low_HMMActual","21092","","","","<div class=""container"" style=""height:800px;width:800px;display:flex;flex-direction:column;justify-content:center;align-items:center;text-align:center;font-weight:normal;font-family:Arial;font-size:20px""><p>Jars are filled with 80% white or black beads and 20% of the opposite color mixed in.<br><br>Press the SPACEBAR to continue. </p><div>","32"
"image-keyboard-response","7","129138","0.0-2.0-2.0","10","Low_HMMActual","28129","","","","resources/WhiteJar_HMM.png","32"
"image-keyboard-response","8","134357","0.0-2.0-3.0","10","Low_HMMActual","5315","","","","resources/BlackJar_HMM.png","32"
"html-keyboard-response","9","140715","0.0-2.0-4.0","10","Low_HMMActual","6357","","","","<div class=""container"" style=""height:800px;width:800px;display:flex;flex-direction:column;justify-content:center;align-items:center;text-align:center;font-weight:normal;font-family:Arial;font-size:20px""><p>There will be two blocks of trials. Each block will contain 500 trials. <br><br>Here are examples of what you will see on each trial.<br><br>Press the SPACEBAR to continue. </p><div>","32"
"image-keyboard-response","10","146537","0.0-2.0-5.0","10","Low_HMMActual","5878","","","","Images/NoChoice.png","32"
"html-keyboard-response","11","195363","0.0-2.0-6.0","10","Low_HMMActual","49290","","","","<div class=""container"" style=""height:800px;width:800px;display:flex;flex-direction:column;justify-content:center;align-items:center;text-align:center;font-weight:normal;font-family:Arial;font-size:20px""><p> The jar the beads are pulled from is NOT choosen at random on each trial.<br><br>After each prediction, there will be a chance that the jars will switch, and that the next bead will be pulled from the opposite jar as the previous trial.<br><br>In each block, the chance that a jar will switch will either be LOW (the jars will not switch very often), or HIGH (the jars will switch almost all the time).<br><br>At the start of each block, you will be told the probability that the jars will switch on each trial. This switch probability will stay constant throughout the block.<br><br>We will now show you some examples of beads being drawn from jars. The bead will appear in the middle of the screen, and the jar the bead was pulled from will be indicated with a black rectangle.<br><br>Press the SPACEBAR to continue. </p><div>","32"
"image-keyboard-response","12","215189","0.0-2.0-7.0","10","Low_HMMActual","19990","","","","Images/TutorialWhiteJarDrawHMMC.png","32"
"image-keyboard-response","13","219739","0.0-2.0-8.0","10","Low_HMMActual","4548","","","","Images/TutorialBlackJarDrawHMMC.png","32"
"image-keyboard-response","14","225390","0.0-2.0-9.0","10","Low_HMMActual","5714","","","","Images/TutorialBlackJarDrawHMMI.png","32"
"html-keyboard-response","15","273751","0.0-2.0-10.0","10","Low_HMMActual","48830","","","","<div class=""container"" style=""height:800px;width:800px;display:flex;flex-direction:column;justify-content:center;align-items:center;text-align:center;font-weight:normal;font-family:Arial;font-size:20px""><p> As you observed, a white bead was pulled from a 80% white jar, the jars switched and a black bead was pulled from the 80% black jar, but then a low-probability white bead was pulled from the 80% black jar. <br><br>Because the jars have a mix of white and black beads, the best strategy to predict the next bead is to first figure out which jar the current bead was pulled from, then use the jar switch probability to predict which jar will be drawn from next.<br><br>Press SPACEBAR to conitnue.</p><div>","32"
"html-keyboard-response","16","275454","0.0-2.0-11.0","10","Low_HMMActual","1701","","","","<div class=""container"" style=""height:800px;width:800px;display:flex;flex-direction:column;justify-content:center;align-items:center;text-align:center;font-weight:normal;font-family:Arial;font-size:20px""><p> You will now be given a 2 question quiz to make sure you understand the task. </p><div>","32"
"image-keyboard-response","17","288702","0.0-2.0-12.0","10","Low_HMMActual","13429","","","","Images/TutorialQuestion1.png","39"
"image-keyboard-response","18","298970","0.0-2.0-13.0","10","Low_HMMActual","7852","","","","Images/TutorialQuestion2.png","38"
"html-keyboard-response","19","321830","0.0-3.0","10","Low_HMMActual","21275","","","","<div class=""container"" style=""height:800px;width:800px;display:flex;flex-direction:column;justify-content:center;align-items:center;text-align:center;font-weight:normal;font-family:Arial;font-size:20px""><p>Loading episode&hellip;</p><div>","32"
"image-keyboard-response","20","332138","0.0-4.0-0.0","10","Low_HMMActual","10371","","","","Images/NoChoice.png","39"
"image-keyboard-response","21","332542","0.0-4.0-1.0","10","Low_HMMActual","null","","","","Images/WhiteBeadChoice.png","null"
"image-keyboard-response","22","333170","0.0-4.0-2.0","10","Low_HMMActual","null","","","","Images/WhiteBeadChoiceWrong.png","null"
"image-keyboard-response","23","334213","0.0-4.0-0.1","10","Low_HMMActual","1040","","","","Images/NewTrialBC.png","37"
"image-keyboard-response","24","334617","0.0-4.0-1.1","10","Low_HMMActual","null","","","","Images/BlackBeadChoice.png","null"
"image-keyboard-response","25","335320","0.0-4.0-2.1","10","Low_HMMActual","null","","","","Images/BlackBeadChoiceCorrect.png","null"
"image-keyboard-response","26","335503","0.0-4.0-0.2","10","Low_HMMActual","181","","","","Images/NewTrialBC.png","37"
"image-keyboard-response","27","335904","0.0-4.0-1.2","10","Low_HMMActual","null","","","","Images/BlackBeadChoice.png","null"
"image-keyboard-response","28","336605","0.0-4.0-2.2","10","Low_HMMActual","null","","","","Images/BlackBeadChoiceCorrect.png","null"
"image-keyboard-response","29","337157","0.0-4.0-0.3","10","Low_HMMActual","548","","","","Images/NewTrialBC.png","37"
"image-keyboard-response","30","337560","0.0-4.0-1.3","10","Low_HMMActual","null","","","","Images/BlackBeadChoice.png","null"
"image-keyboard-response","31","338262","0.0-4.0-2.3","10","Low_HMMActual","null","","","","Images/BlackBeadChoiceCorrect.png","null"
"image-keyboard-response","32","338394","0.0-4.0-0.4","10","Low_HMMActual","131","","","","Images/NewTrialBC.png","37"
"image-keyboard-response","33","338796","0.0-4.0-1.4","10","Low_HMMActual","null","","","","Images/BlackBeadChoice.png","null"
"image-keyboard-response","34","339497","0.0-4.0-2.4","10","Low_HMMActual","null","","","","Images/BlackBeadChoiceCorrect.png","null"
"image-keyboard-response","35","339845","0.0-4.0-0.5","10","Low_HMMActual","347","","","","Images/NewTrialBC.png","37"
"image-keyboard-response","36","340247","0.0-4.0-1.5","10","Low_HMMActual","null","","","","Images/BlackBeadChoice.png","null"
"image-keyboard-response","37","340947","0.0-4.0-2.5","10","Low_HMMActual","null","","","","Images/BlackBeadChoiceCorrect.png","null"
"image-keyboard-response","38","341288","0.0-4.0-0.6","10","Low_HMMActual","339","","","","Images/NewTrialBC.png","37"
"image-keyboard-response","39","341690","0.0-4.0-1.6","10","Low_HMMActual","null","","","","Images/BlackBeadChoice.png","null"
"image-keyboard-response","40","342392","0.0-4.0-2.6","10","Low_HMMActual","null","","","","Images/BlackBeadChoiceWrong.png","null"
"image-keyboard-response","41","343559","0.0-4.0-0.7","10","Low_HMMActual","1240","","","","Images/NewTrialWC.png","37"
"image-keyboard-response","42","343961","0.0-4.0-1.7","10","Low_HMMActual","null","","","","Images/BlackBeadChoice.png","null"
"image-keyboard-response","43","344661","0.0-4.0-2.7","10","Low_HMMActual","null","","","","Images/BlackBeadChoiceCorrect.png","null"
"image-keyboard-response","44","345242","0.0-4.0-0.8","10","Low_HMMActual","579","","","","Images/NewTrialBC.png","37"
"image-keyboard-response","45","345649","0.0-4.0-1.8","10","Low_HMMActual","null","","","","Images/BlackBeadChoice.png","null"
"image-keyboard-response","46","346335","0.0-4.0-2.8","10","Low_HMMActual","null","","","","Images/BlackBeadChoiceWrong.png","null"
"image-keyboard-response","47","346734","0.0-4.0-0.9","10","Low_HMMActual","398","","","","Images/NewTrialWC.png","37"
"image-keyboard-response","48","347135","0.0-4.0-1.9","10","Low_HMMActual","null","","","","Images/BlackBeadChoice.png","null"
"image-keyboard-response","49","347836","0.0-4.0-2.9","10","Low_HMMActual","null","","","","Images/BlackBeadChoiceCorrect.png","null"
"image-keyboard-response","50","348293","0.0-4.0-0.10","10","Low_HMMActual","455","","","","Images/NewTrialBC.png","37"
"image-keyboard-response","51","348694","0.0-4.0-1.10","10","Low_HMMActual","null","","","","Images/BlackBeadChoice.png","null"
"image-keyboard-response","52","349395","0.0-4.0-2.10","10","Low_HMMActual","null","","","","Images/BlackBeadChoiceCorrect.png","null"
"image-keyboard-response","53","349746","0.0-4.0-0.11","10","Low_HMMActual","350","","","","Images/NewTrialBC.png","37"
"image-keyboard-response","54","350147","0.0-4.0-1.11","10","Low_HMMActual","null","","","","Images/BlackBeadChoice.png","null"
"image-keyboard-response","55","350848","0.0-4.0-2.11","10","Low_HMMActual","null","","","","Images/BlackBeadChoiceCorrect.png","null"
"image-keyboard-response","56","351025","0.0-4.0-0.12","10","Low_HMMActual","177","","","","Images/NewTrialBC.png","37"
"image-keyboard-response","57","351427","0.0-4.0-1.12","10","Low_HMMActual","null","","","","Images/BlackBeadChoice.png","null"
"image-keyboard-response","58","352128","0.0-4.0-2.12","10","Low_HMMActual","null","","","","Images/BlackBeadChoiceCorrect.png","null"
"image-keyboard-response","59","352210","0.0-4.0-0.13","10","Low_HMMActual","82","","","","Images/NewTrialBC.png","37"
"image-keyboard-response","60","352612","0.0-4.0-1.13","10","Low_HMMActual","null","","","","Images/BlackBeadChoice.png","null"
"image-keyboard-response","61","353316","0.0-4.0-2.13","10","Low_HMMActual","null","","","","Images/BlackBeadChoiceCorrect.png","null"
"image-keyboard-response","62","353369","0.0-4.0-0.14","10","Low_HMMActual","53","","","","Images/NewTrialBC.png","37"
"image-keyboard-response","63","353770","0.0-4.0-1.14","10","Low_HMMActual","null","","","","Images/BlackBeadChoice.png","null"
"image-keyboard-response","64","354471","0.0-4.0-2.14","10","Low_HMMActual","null","","","","Images/BlackBeadChoiceCorrect.png","null"
"image-keyboard-response","65","354533","0.0-4.0-0.15","10","Low_HMMActual","61","","","","Images/NewTrialBC.png","37"
"image-keyboard-response","66","354933","0.0-4.0-1.15","10","Low_HMMActual","null","","","","Images/BlackBeadChoice.png","null"
"image-keyboard-response","67","355635","0.0-4.0-2.15","10","Low_HMMActual","373","","","","Images/BlackBeadChoiceCorrect.png","37"
"image-keyboard-response","68","356108","0.0-4.0-0.16","10","Low_HMMActual","473","","","","Images/NewTrialBC.png","37"
"image-keyboard-response","69","356509","0.0-4.0-1.16","10","Low_HMMActual","null","","","","Images/BlackBeadChoice.png","null"
"image-keyboard-response","70","357211","0.0-4.0-2.16","10","Low_HMMActual","409","","","","Images/BlackBeadChoiceCorrect.png","37"
"image-keyboard-response","71","357514","0.0-4.0-0.17","10","Low_HMMActual","302","","","","Images/NewTrialBC.png","37"
"image-keyboard-response","72","357915","0.0-4.0-1.17","10","Low_HMMActual","null","","","","Images/BlackBeadChoice.png","null"
"image-keyboard-response","73","358616","0.0-4.0-2.17","10","Low_HMMActual","null","","","","Images/BlackBeadChoiceCorrect.png","null"
"image-keyboard-response","74","358973","0.0-4.0-0.18","10","Low_HMMActual","356","","","","Images/NewTrialBC.png","37"
"image-keyboard-response","75","359374","0.0-4.0-1.18","10","Low_HMMActual","null","","","","Images/BlackBeadChoice.png","null"
"image-keyboard-response","76","360075","0.0-4.0-2.18","10","Low_HMMActual","null","","","","Images/BlackBeadChoiceCorrect.png","null"
"image-keyboard-response","77","360358","0.0-4.0-0.19","10","Low_HMMActual","281","","","","Images/NewTrialBC.png","37"
"image-keyboard-response","78","360759","0.0-4.0-1.19","10","Low_HMMActual","null","","","","Images/BlackBeadChoice.png","null"
"image-keyboard-response","79","361460","0.0-4.0-2.19","10","Low_HMMActual","null","","","","Images/BlackBeadChoiceCorrect.png","null"
"image-keyboard-response","80","361783","0.0-4.0-0.20","10","Low_HMMActual","322","","","","Images/NewTrialBC.png","37"
"image-keyboard-response","81","362183","0.0-4.0-1.20","10","Low_HMMActual","null","","","","Images/BlackBeadChoice.png","null"
"image-keyboard-response","82","362885","0.0-4.0-2.20","10","Low_HMMActual","null","","","","Images/BlackBeadChoiceCorrect.png","null"
"image-keyboard-response","83","363160","0.0-4.0-0.21","10","Low_HMMActual","360","","","","Images/NewTrialBC.png","37"
"image-keyboard-response","84","363562","0.0-4.0-1.21","10","Low_HMMActual","null","","","","Images/BlackBeadChoice.png","null"
"image-keyboard-response","85","364263","0.0-4.0-2.21","10","Low_HMMActual","null","","","","Images/BlackBeadChoiceCorrect.png","null"
"image-keyboard-response","86","364498","0.0-4.0-0.22","10","Low_HMMActual","234","","","","Images/NewTrialBC.png","37"
"image-keyboard-response","87","364900","0.0-4.0-1.22","10","Low_HMMActual","null","","","","Images/BlackBeadChoice.png","null"
"image-keyboard-response","88","365601","0.0-4.0-2.22","10","Low_HMMActual","null","","","","Images/BlackBeadChoiceCorrect.png","null"
"image-keyboard-response","89","365792","0.0-4.0-0.23","10","Low_HMMActual","190","","","","Images/NewTrialBC.png","37"
"image-keyboard-response","90","366193","0.0-4.0-1.23","10","Low_HMMActual","null","","","","Images/BlackBeadChoice.png","null"
"image-keyboard-response","91","366895","0.0-4.0-2.23","10","Low_HMMActual","545","","","","Images/BlackBeadChoiceCorrect.png","37"
"image-keyboard-response","92","367259","0.0-4.0-0.24","10","Low_HMMActual","363","","","","Images/NewTrialBC.png","37"
"image-keyboard-response","93","367660","0.0-4.0-1.24","10","Low_HMMActual","null","","","","Images/BlackBeadChoice.png","null"
"image-keyboard-response","94","368360","0.0-4.0-2.24","10","Low_HMMActual","null","","","","Images/BlackBeadChoiceCorrect.png","null"
"image-keyboard-response","95","368566","0.0-4.0-0.25","10","Low_HMMActual","205","","","","Images/NewTrialBC.png","37"
"image-keyboard-response","96","368968","0.0-4.0-1.25","10","Low_HMMActual","null","","","","Images/BlackBeadChoice.png","null"
"image-keyboard-response","97","369669","0.0-4.0-2.25","10","Low_HMMActual","369","","","","Images/BlackBeadChoiceCorrect.png","37"
"image-keyboard-response","98","370014","0.0-4.0-0.26","10","Low_HMMActual","343","","","","Images/NewTrialBC.png","37"
"image-keyboard-response","99","370415","0.0-4.0-1.26","10","Low_HMMActual","null","","","","Images/BlackBeadChoice.png","null"
"image-keyboard-response","100","371116","0.0-4.0-2.26","10","Low_HMMActual","412","","","","Images/BlackBeadChoiceCorrect.png","37"
"image-keyboard-response","101","371530","0.0-4.0-0.27","10","Low_HMMActual","413","","","","Images/NewTrialBC.png","37"
"image-keyboard-response","102","371933","0.0-4.0-1.27","10","Low_HMMActual","null","","","","Images/BlackBeadChoice.png","null"
"image-keyboard-response","103","372636","0.0-4.0-2.27","10","Low_HMMActual","630","","","","Images/BlackBeadChoiceCorrect.png","37"
"image-keyboard-response","104","373027","0.0-4.0-0.28","10","Low_HMMActual","388","","","","Images/NewTrialBC.png","37"
"image-keyboard-response","105","373429","0.0-4.0-1.28","10","Low_HMMActual","null","","","","Images/BlackBeadChoice.png","null"
"image-keyboard-response","106","374131","0.0-4.0-2.28","10","Low_HMMActual","495","","","","Images/BlackBeadChoiceCorrect.png","37"
"image-keyboard-response","107","374382","0.0-4.0-0.29","10","Low_HMMActual","250","","","","Images/NewTrialBC.png","37"
"image-keyboard-response","108","374784","0.0-4.0-1.29","10","Low_HMMActual","null","","","","Images/BlackBeadChoice.png","null"
"image-keyboard-response","109","375485","0.0-4.0-2.29","10","Low_HMMActual","null","","","","Images/BlackBeadChoiceCorrect.png","null"
"image-keyboard-response","110","375836","0.0-4.0-0.30","10","Low_HMMActual","349","","","","Images/NewTrialBC.png","37"
"image-keyboard-response","111","376239","0.0-4.0-1.30","10","Low_HMMActual","null","","","","Images/BlackBeadChoice.png","null"
"image-keyboard-response","112","376940","0.0-4.0-2.30","10","Low_HMMActual","null","","","","Images/BlackBeadChoiceCorrect.png","null"
"image-keyboard-response","113","377290","0.0-4.0-0.31","10","Low_HMMActual","346","","","","Images/NewTrialBC.png","37"
"image-keyboard-response","114","377691","0.0-4.0-1.31","10","Low_HMMActual","null","","","","Images/BlackBeadChoice.png","null"
"image-keyboard-response","115","378391","0.0-4.0-2.31","10","Low_HMMActual","null","","","","Images/BlackBeadChoiceCorrect.png","null"
"image-keyboard-response","116","378690","0.0-4.0-0.32","10","Low_HMMActual","297","","","","Images/NewTrialBC.png","37"
"image-keyboard-response","117","379091","0.0-4.0-1.32","10","Low_HMMActual","null","","","","Images/BlackBeadChoice.png","null"
"image-keyboard-response","118","379793","0.0-4.0-2.32","10","Low_HMMActual","null","","","","Images/BlackBeadChoiceCorrect.png","null"
"image-keyboard-response","119","380076","0.0-4.0-0.33","10","Low_HMMActual","282","","","","Images/NewTrialBC.png","37"
"image-keyboard-response","120","380478","0.0-4.0-1.33","10","Low_HMMActual","null","","","","Images/BlackBeadChoice.png","null"
"image-keyboard-response","121","381179","0.0-4.0-2.33","10","Low_HMMActual","523","","","","Images/BlackBeadChoiceCorrect.png","37"
"image-keyboard-response","122","381664","0.0-4.0-0.34","10","Low_HMMActual","484","","","","Images/NewTrialBC.png","37"
"image-keyboard-response","123","382066","0.0-4.0-1.34","10","Low_HMMActual","null","","","","Images/BlackBeadChoice.png","null"
"image-keyboard-response","124","382766","0.0-4.0-2.34","10","Low_HMMActual","475","","","","Images/BlackBeadChoiceCorrect.png","37"
"image-keyboard-response","125","383086","0.0-4.0-0.35","10","Low_HMMActual","319","","","","Images/NewTrialBC.png","37"
"image-keyboard-response","126","383395","0.0-4.0-1.35","10","Low_HMMActual","null","","","","Images/BlackBeadChoice.png","null"
"image-keyboard-response","127","384097","0.0-4.0-2.35","10","Low_HMMActual","null","","","","Images/BlackBeadChoiceWrong.png","null"
"image-keyboard-response","128","384391","0.0-4.0-0.36","10","Low_HMMActual","292","","","","Images/NewTrialWC.png","37"
"image-keyboard-response","129","384791","0.0-4.0-1.36","10","Low_HMMActual","null","","","","Images/BlackBeadChoice.png","null"
"image-keyboard-response","130","385493","0.0-4.0-2.36","10","Low_HMMActual","null","","","","Images/BlackBeadChoiceWrong.png","null"
"image-keyboard-response","131","385874","0.0-4.0-0.37","10","Low_HMMActual","380","","","","Images/NewTrialWC.png","37"
"image-keyboard-response","132","386276","0.0-4.0-1.37","10","Low_HMMActual","null","","","","Images/BlackBeadChoice.png","null"
"image-keyboard-response","133","386978","0.0-4.0-2.37","10","Low_HMMActual","null","","","","Images/BlackBeadChoiceWrong.png","null"
"image-keyboard-response","134","387499","0.0-4.0-0.38","10","Low_HMMActual","520","","","","Images/NewTrialWC.png","37"
"image-keyboard-response","135","387901","0.0-4.0-1.38","10","Low_HMMActual","null","","","","Images/BlackBeadChoice.png","null"
"image-keyboard-response","136","388602","0.0-4.0-2.38","10","Low_HMMActual","null","","","","Images/BlackBeadChoiceCorrect.png","null"
"image-keyboard-response","137","389023","0.0-4.0-0.39","10","Low_HMMActual","419","","","","Images/NewTrialBC.png","37"
"image-keyboard-response","138","389424","0.0-4.0-1.39","10","Low_HMMActual","null","","","","Images/BlackBeadChoice.png","null"
"image-keyboard-response","139","390125","0.0-4.0-2.39","10","Low_HMMActual","null","","","","Images/BlackBeadChoiceWrong.png","null"
"image-keyboard-response","140","390770","0.0-4.0-0.40","10","Low_HMMActual","645","","","","Images/NewTrialWC.png","37"
"image-keyboard-response","141","391171","0.0-4.0-1.40","10","Low_HMMActual","null","","","","Images/BlackBeadChoice.png","null"
"image-keyboard-response","142","391874","0.0-4.0-2.40","10","Low_HMMActual","null","","","","Images/BlackBeadChoiceCorrect.png","null"
"image-keyboard-response","143","392104","0.0-4.0-0.41","10","Low_HMMActual","228","","","","Images/NewTrialBC.png","37"
"image-keyboard-response","144","392505","0.0-4.0-1.41","10","Low_HMMActual","null","","","","Images/BlackBeadChoice.png","null"
"image-keyboard-response","145","393208","0.0-4.0-2.41","10","Low_HMMActual","null","","","","Images/BlackBeadChoiceWrong.png","null"
"image-keyboard-response","146","393319","0.0-4.0-0.42","10","Low_HMMActual","111","","","","Images/NewTrialWC.png","37"
"image-keyboard-response","147","393720","0.0-4.0-1.42","10","Low_HMMActual","null","","","","Images/BlackBeadChoice.png","null"
"image-keyboard-response","148","394422","0.0-4.0-2.42","10","Low_HMMActual","null","","","","Images/BlackBeadChoiceCorrect.png","null"
"image-keyboard-response","149","394791","0.0-4.0-0.43","10","Low_HMMActual","367","","","","Images/NewTrialBC.png","37"
"image-keyboard-response","150","395192","0.0-4.0-1.43","10","Low_HMMActual","null","","","","Images/BlackBeadChoice.png","null"
"image-keyboard-response","151","395893","0.0-4.0-2.43","10","Low_HMMActual","null","","","","Images/BlackBeadChoiceCorrect.png","null"
"image-keyboard-response","152","396088","0.0-4.0-0.44","10","Low_HMMActual","194","","","","Images/NewTrialBC.png","37"
"image-keyboard-response","153","396488","0.0-4.0-1.44","10","Low_HMMActual","null","","","","Images/BlackBeadChoice.png","null"
"image-keyboard-response","154","397190","0.0-4.0-2.44","10","Low_HMMActual","null","","","","Images/BlackBeadChoiceCorrect.png","null"
"image-keyboard-response","155","397510","0.0-4.0-0.45","10","Low_HMMActual","319","","","","Images/NewTrialBC.png","37"
"image-keyboard-response","156","397911","0.0-4.0-1.45","10","Low_HMMActual","null","","","","Images/BlackBeadChoice.png","null"
"image-keyboard-response","157","398612","0.0-4.0-2.45","10","Low_HMMActual","null","","","","Images/BlackBeadChoiceWrong.png","null"
"image-keyboard-response","158","398883","0.0-4.0-0.46","10","Low_HMMActual","270","","","","Images/NewTrialWC.png","37"
"image-keyboard-response","159","399284","0.0-4.0-1.46","10","Low_HMMActual","null","","","","Images/BlackBeadChoice.png","null"
"image-keyboard-response","160","399986","0.0-4.0-2.46","10","Low_HMMActual","null","","","","Images/BlackBeadChoiceCorrect.png","null"
"image-keyboard-response","161","400347","0.0-4.0-0.47","10","Low_HMMActual","359","","","","Images/NewTrialBC.png","37"
"image-keyboard-response","162","400746","0.0-4.0-1.47","10","Low_HMMActual","null","","","","Images/BlackBeadChoice.png","null"
"image-keyboard-response","163","401447","0.0-4.0-2.47","10","Low_HMMActual","null","","","","Images/BlackBeadChoiceCorrect.png","null"
"image-keyboard-response","164","401651","0.0-4.0-0.48","10","Low_HMMActual","203","","","","Images/NewTrialBC.png","37"
"image-keyboard-response","165","402052","0.0-4.0-1.48","10","Low_HMMActual","null","","","","Images/BlackBeadChoice.png","null"
"image-keyboard-response","166","402754","0.0-4.0-2.48","10","Low_HMMActual","null","","","","Images/BlackBeadChoiceCorrect.png","null"
"image-keyboard-response","167","402912","0.0-4.0-0.49","10","Low_HMMActual","157","","","","Images/NewTrialBC.png","37"
"image-keyboard-response","168","403313","0.0-4.0-1.49","10","Low_HMMActual","null","","","","Images/BlackBeadChoice.png","null"
"image-keyboard-response","169","404014","0.0-4.0-2.49","10","Low_HMMActual","617","","","","Images/BlackBeadChoiceWrong.png","37"
"image-keyboard-response","170","404455","0.0-4.0-0.50","10","Low_HMMActual","441","","","","Images/NewTrialWC.png","37"
"image-keyboard-response","171","404856","0.0-4.0-1.50","10","Low_HMMActual","null","","","","Images/BlackBeadChoice.png","null"
"image-keyboard-response","172","405556","0.0-4.0-2.50","10","Low_HMMActual","null","","","","Images/BlackBeadChoiceWrong.png","null"
"image-keyboard-response","173","405653","0.0-4.0-0.51","10","Low_HMMActual","122","","","","Images/NewTrialWC.png","37"
"image-keyboard-response","174","405944","0.0-4.0-1.51","10","Low_HMMActual","null","","","","Images/BlackBeadChoice.png","null"
"image-keyboard-response","175","406645","0.0-4.0-2.51","10","Low_HMMActual","null","","","","Images/BlackBeadChoiceWrong.png","null"
"image-keyboard-response","176","406965","0.0-4.0-0.52","10","Low_HMMActual","319","","","","Images/NewTrialWC.png","37"
"image-keyboard-response","177","407366","0.0-4.0-1.52","10","Low_HMMActual","null","","","","Images/BlackBeadChoice.png","null"
"image-keyboard-response","178","408067","0.0-4.0-2.52","10","Low_HMMActual","null","","","","Images/BlackBeadChoiceWrong.png","null"
"image-keyboard-response","179","408493","0.0-4.0-0.53","10","Low_HMMActual","425","","","","Images/NewTrialWC.png","37"
"image-keyboard-response","180","408894","0.0-4.0-1.53","10","Low_HMMActual","null","","","","Images/BlackBeadChoice.png","null"
"image-keyboard-response","181","409595","0.0-4.0-2.53","10","Low_HMMActual","null","","","","Images/BlackBeadChoiceWrong.png","null"
"image-keyboard-response","182","409938","0.0-4.0-0.54","10","Low_HMMActual","343","","","","Images/NewTrialWC.png","39"
"image-keyboard-response","183","410342","0.0-4.0-1.54","10","Low_HMMActual","null","","","","Images/WhiteBeadChoice.png","null"
"image-keyboard-response","184","411044","0.0-4.0-2.54","10","Low_HMMActual","null","","","","Images/WhiteBeadChoiceWrong.png","null"
"image-keyboard-response","185","411590","0.0-4.0-0.55","10","Low_HMMActual","545","","","","Images/NewTrialBC.png","37"
"image-keyboard-response","186","411991","0.0-4.0-1.55","10","Low_HMMActual","null","","","","Images/BlackBeadChoice.png","null"
"image-keyboard-response","187","412692","0.0-4.0-2.55","10","Low_HMMActual","null","","","","Images/BlackBeadChoiceWrong.png","null"
"image-keyboard-response","188","413074","0.0-4.0-0.56","10","Low_HMMActual","380","","","","Images/NewTrialWC.png","37"
"image-keyboard-response","189","413474","0.0-4.0-1.56","10","Low_HMMActual","null","","","","Images/BlackBeadChoice.png","null"
"image-keyboard-response","190","414175","0.0-4.0-2.56","10","Low_HMMActual","null","","","","Images/BlackBeadChoiceWrong.png","null"
"image-keyboard-response","191","414595","0.0-4.0-0.57","10","Low_HMMActual","418","","","","Images/NewTrialWC.png","37"
"image-keyboard-response","192","414996","0.0-4.0-1.57","10","Low_HMMActual","null","","","","Images/BlackBeadChoice.png","null"
"image-keyboard-response","193","415698","0.0-4.0-2.57","10","Low_HMMActual","null","","","","Images/BlackBeadChoiceCorrect.png","null"
"image-keyboard-response","194","416062","0.0-4.0-0.58","10","Low_HMMActual","364","","","","Images/NewTrialBC.png","37"
"image-keyboard-response","195","416464","0.0-4.0-1.58","10","Low_HMMActual","null","","","","Images/BlackBeadChoice.png","null"
"image-keyboard-response","196","417165","0.0-4.0-2.58","10","Low_HMMActual","null","","","","Images/BlackBeadChoiceCorrect.png","null"
"image-keyboard-response","197","417473","0.0-4.0-0.59","10","Low_HMMActual","307","","","","Images/NewTrialBC.png","37"
"image-keyboard-response","198","417874","0.0-4.0-1.59","10","Low_HMMActual","null","","","","Images/BlackBeadChoice.png","null"
"image-keyboard-response","199","418576","0.0-4.0-2.59","10","Low_HMMActual","null","","","","Images/BlackBeadChoiceCorrect.png","null"
"image-keyboard-response","200","418876","0.0-4.0-0.60","10","Low_HMMActual","297","","","","Images/NewTrialBC.png","37"
"image-keyboard-response","201","419277","0.0-4.0-1.60","10","Low_HMMActual","null","","","","Images/BlackBeadChoice.png","null"
"image-keyboard-response","202","419979","0.0-4.0-2.60","10","Low_HMMActual","null","","","","Images/BlackBeadChoiceCorrect.png","null"
"image-keyboard-response","203","420282","0.0-4.0-0.61","10","Low_HMMActual","302","","","","Images/NewTrialBC.png","37"
"image-keyboard-response","204","420682","0.0-4.0-1.61","10","Low_HMMActual","null","","","","Images/BlackBeadChoice.png","null"
"image-keyboard-response","205","421384","0.0-4.0-2.61","10","Low_HMMActual","null","","","","Images/BlackBeadChoiceCorrect.png","null"
"image-keyboard-response","206","421688","0.0-4.0-0.62","10","Low_HMMActual","304","","","","Images/NewTrialBC.png","37"
"image-keyboard-response","207","422090","0.0-4.0-1.62","10","Low_HMMActual","null","","","","Images/BlackBeadChoice.png","null"
"image-keyboard-response","208","422792","0.0-4.0-2.62","10","Low_HMMActual","null","","","","Images/BlackBeadChoiceCorrect.png","null"
"image-keyboard-response","209","423114","0.0-4.0-0.63","10","Low_HMMActual","320","","","","Images/NewTrialBC.png","37"
"image-keyboard-response","210","423416","0.0-4.0-1.63","10","Low_HMMActual","null","","","","Images/BlackBeadChoice.png","null"
"image-keyboard-response","211","424117","0.0-4.0-2.63","10","Low_HMMActual","null","","","","Images/BlackBeadChoiceWrong.png","null"
"image-keyboard-response","212","424961","0.0-4.0-0.64","10","Low_HMMActual","843","","","","Images/NewTrialWC.png","37"
"image-keyboard-response","213","425363","0.0-4.0-1.64","10","Low_HMMActual","null","","","","Images/BlackBeadChoice.png","null"
"image-keyboard-response","214","426065","0.0-4.0-2.64","10","Low_HMMActual","null","","","","Images/BlackBeadChoiceWrong.png","null"
"image-keyboard-response","215","426565","0.0-4.0-0.65","10","Low_HMMActual","499","","","","Images/NewTrialWC.png","39"
"image-keyboard-response","216","426966","0.0-4.0-1.65","10","Low_HMMActual","null","","","","Images/WhiteBeadChoice.png","null"
"image-keyboard-response","217","427666","0.0-4.0-2.65","10","Low_HMMActual","null","","","","Images/WhiteBeadChoiceWrong.png","null"
"image-keyboard-response","218","427927","0.0-4.0-0.66","10","Low_HMMActual","259","","","","Images/NewTrialBC.png","37"
"image-keyboard-response","219","428328","0.0-4.0-1.66","10","Low_HMMActual","null","","","","Images/BlackBeadChoice.png","null"
"image-keyboard-response","220","429029","0.0-4.0-2.66","10","Low_HMMActual","null","","","","Images/BlackBeadChoiceCorrect.png","null"
"image-keyboard-response","221","429441","0.0-4.0-0.67","10","Low_HMMActual","412","","","","Images/NewTrialBC.png","37"
"image-keyboard-response","222","429842","0.0-4.0-1.67","10","Low_HMMActual","null","","","","Images/BlackBeadChoice.png","null"
"image-keyboard-response","223","430543","0.0-4.0-2.67","10","Low_HMMActual","null","","","","Images/BlackBeadChoiceCorrect.png","null"
"image-keyboard-response","224","430869","0.0-4.0-0.68","10","Low_HMMActual","325","","","","Images/NewTrialBC.png","37"
"image-keyboard-response","225","431272","0.0-4.0-1.68","10","Low_HMMActual","null","","","","Images/BlackBeadChoice.png","null"
"image-keyboard-response","226","431975","0.0-4.0-2.68","10","Low_HMMActual","null","","","","Images/BlackBeadChoiceCorrect.png","null"
"image-keyboard-response","227","432259","0.0-4.0-0.69","10","Low_HMMActual","283","","","","Images/NewTrialBC.png","37"
"image-keyboard-response","228","432660","0.0-4.0-1.69","10","Low_HMMActual","null","","","","Images/BlackBeadChoice.png","null"
"image-keyboard-response","229","433362","0.0-4.0-2.69","10","Low_HMMActual","null","","","","Images/BlackBeadChoiceCorrect.png","null"
"image-keyboard-response","230","433676","0.0-4.0-0.70","10","Low_HMMActual","314","","","","Images/NewTrialBC.png","37"
"image-keyboard-response","231","434078","0.0-4.0-1.70","10","Low_HMMActual","null","","","","Images/BlackBeadChoice.png","null"
"image-keyboard-response","232","434779","0.0-4.0-2.70","10","Low_HMMActual","null","","","","Images/BlackBeadChoiceCorrect.png","null"
"image-keyboard-response","233","435069","0.0-4.0-0.71","10","Low_HMMActual","289","","","","Images/NewTrialBC.png","37"
"image-keyboard-response","234","435470","0.0-4.0-1.71","10","Low_HMMActual","null","","","","Images/BlackBeadChoice.png","null"
"image-keyboard-response","235","436172","0.0-4.0-2.71","10","Low_HMMActual","null","","","","Images/BlackBeadChoiceCorrect.png","null"
"image-keyboard-response","236","436493","0.0-4.0-0.72","10","Low_HMMActual","320","","","","Images/NewTrialBC.png","37"
"image-keyboard-response","237","436894","0.0-4.0-1.72","10","Low_HMMActual","null","","","","Images/BlackBeadChoice.png","null"
"image-keyboard-response","238","437594","0.0-4.0-2.72","10","Low_HMMActual","null","","","","Images/BlackBeadChoiceCorrect.png","null"
"image-keyboard-response","239","437939","0.0-4.0-0.73","10","Low_HMMActual","344","","","","Images/NewTrialBC.png","37"
"image-keyboard-response","240","438340","0.0-4.0-1.73","10","Low_HMMActual","null","","","","Images/BlackBeadChoice.png","null"
"image-keyboard-response","241","439042","0.0-4.0-2.73","10","Low_HMMActual","null","","","","Images/BlackBeadChoiceWrong.png","null"
"image-keyboard-response","242","439581","0.0-4.0-0.74","10","Low_HMMActual","539","","","","Images/NewTrialWC.png","39"
"image-keyboard-response","243","439983","0.0-4.0-1.74","10","Low_HMMActual","null","","","","Images/WhiteBeadChoice.png","null"
"image-keyboard-response","244","440684","0.0-4.0-2.74","10","Low_HMMActual","675","","","","Images/WhiteBeadChoiceWrong.png","37"
"image-keyboard-response","245","441169","0.0-4.0-0.75","10","Low_HMMActual","484","","","","Images/NewTrialBC.png","37"
"image-keyboard-response","246","441570","0.0-4.0-1.75","10","Low_HMMActual","null","","","","Images/BlackBeadChoice.png","null"
"image-keyboard-response","247","442271","0.0-4.0-2.75","10","Low_HMMActual","null","","","","Images/BlackBeadChoiceCorrect.png","null"
"image-keyboard-response","248","442779","0.0-4.0-0.76","10","Low_HMMActual","506","","","","Images/NewTrialBC.png","37"
"image-keyboard-response","249","443204","0.0-4.0-1.76","10","Low_HMMActual","null","","","","Images/BlackBeadChoice.png","null"
"image-keyboard-response","250","443839","0.0-4.0-2.76","10","Low_HMMActual","null","","","","Images/BlackBeadChoiceCorrect.png","null"
"image-keyboard-response","251","444199","0.0-4.0-0.77","10","Low_HMMActual","359","","","","Images/NewTrialBC.png","37"
"image-keyboard-response","252","444600","0.0-4.0-1.77","10","Low_HMMActual","null","","","","Images/BlackBeadChoice.png","null"
"image-keyboard-response","253","445301","0.0-4.0-2.77","10","Low_HMMActual","null","","","","Images/BlackBeadChoiceCorrect.png","null"
"image-keyboard-response","254","445652","0.0-4.0-0.78","10","Low_HMMActual","349","","","","Images/NewTrialBC.png","37"
"image-keyboard-response","255","446053","0.0-4.0-1.78","10","Low_HMMActual","null","","","","Images/BlackBeadChoice.png","null"
"image-keyboard-response","256","446755","0.0-4.0-2.78","10","Low_HMMActual","null","","","","Images/BlackBeadChoiceCorrect.png","null"
"image-keyboard-response","257","446849","0.0-4.0-0.79","10","Low_HMMActual","93","","","","Images/NewTrialBC.png","37"
"image-keyboard-response","258","447249","0.0-4.0-1.79","10","Low_HMMActual","null","","","","Images/BlackBeadChoice.png","null"
"image-keyboard-response","259","447951","0.0-4.0-2.79","10","Low_HMMActual","null","","","","Images/BlackBeadChoiceCorrect.png","null"
"image-keyboard-response","260","448237","0.0-4.0-0.80","10","Low_HMMActual","285","","","","Images/NewTrialBC.png","37"
"image-keyboard-response","261","448638","0.0-4.0-1.80","10","Low_HMMActual","null","","","","Images/BlackBeadChoice.png","null"
"image-keyboard-response","262","449339","0.0-4.0-2.80","10","Low_HMMActual","null","","","","Images/BlackBeadChoiceCorrect.png","null"
"image-keyboard-response","263","449639","0.0-4.0-0.81","10","Low_HMMActual","300","","","","Images/NewTrialBC.png","37"
"image-keyboard-response","264","450041","0.0-4.0-1.81","10","Low_HMMActual","null","","","","Images/BlackBeadChoice.png","null"
"image-keyboard-response","265","450743","0.0-4.0-2.81","10","Low_HMMActual","null","","","","Images/BlackBeadChoiceCorrect.png","null"
"image-keyboard-response","266","450862","0.0-4.0-0.82","10","Low_HMMActual","119","","","","Images/NewTrialBC.png","37"
"image-keyboard-response","267","451263","0.0-4.0-1.82","10","Low_HMMActual","null","","","","Images/BlackBeadChoice.png","null"
"image-keyboard-response","268","451965","0.0-4.0-2.82","10","Low_HMMActual","641","","","","Images/BlackBeadChoiceCorrect.png","37"
"image-keyboard-response","269","452628","0.0-4.0-0.83","10","Low_HMMActual","663","","","","Images/NewTrialBC.png","37"
"image-keyboard-response","270","453030","0.0-4.0-1.83","10","Low_HMMActual","null","","","","Images/BlackBeadChoice.png","null"
"image-keyboard-response","271","453682","0.0-4.0-2.83","10","Low_HMMActual","null","","","","Images/BlackBeadChoiceCorrect.png","null"
"image-keyboard-response","272","454027","0.0-4.0-0.84","10","Low_HMMActual","345","","","","Images/NewTrialBC.png","37"
"image-keyboard-response","273","454429","0.0-4.0-1.84","10","Low_HMMActual","null","","","","Images/BlackBeadChoice.png","null"
"image-keyboard-response","274","455130","0.0-4.0-2.84","10","Low_HMMActual","null","","","","Images/BlackBeadChoiceCorrect.png","null"
"image-keyboard-response","275","455398","0.0-4.0-0.85","10","Low_HMMActual","268","","","","Images/NewTrialBC.png","37"
"image-keyboard-response","276","455800","0.0-4.0-1.85","10","Low_HMMActual","null","","","","Images/BlackBeadChoice.png","null"
"image-keyboard-response","277","456503","0.0-4.0-2.85","10","Low_HMMActual","null","","","","Images/BlackBeadChoiceWrong.png","null"
"image-keyboard-response","278","456948","0.0-4.0-0.86","10","Low_HMMActual","443","","","","Images/NewTrialWC.png","39"
"image-keyboard-response","279","457348","0.0-4.0-1.86","10","Low_HMMActual","null","","","","Images/WhiteBeadChoice.png","null"
"image-keyboard-response","280","458050","0.0-4.0-2.86","10","Low_HMMActual","null","","","","Images/WhiteBeadChoiceWrong.png","null"
"image-keyboard-response","281","458427","0.0-4.0-0.87","10","Low_HMMActual","376","","","","Images/NewTrialBC.png","37"
"image-keyboard-response","282","458827","0.0-4.0-1.87","10","Low_HMMActual","null","","","","Images/BlackBeadChoice.png","null"
"image-keyboard-response","283","459529","0.0-4.0-2.87","10","Low_HMMActual","null","","","","Images/BlackBeadChoiceCorrect.png","null"
"image-keyboard-response","284","459943","0.0-4.0-0.88","10","Low_HMMActual","413","","","","Images/NewTrialBC.png","37"
"image-keyboard-response","285","460343","0.0-4.0-1.88","10","Low_HMMActual","null","","","","Images/BlackBeadChoice.png","null"
"image-keyboard-response","286","461044","0.0-4.0-2.88","10","Low_HMMActual","null","","","","Images/BlackBeadChoiceCorrect.png","null"
"image-keyboard-response","287","461422","0.0-4.0-0.89","10","Low_HMMActual","377","","","","Images/NewTrialBC.png","37"
"image-keyboard-response","288","461824","0.0-4.0-1.89","10","Low_HMMActual","null","","","","Images/BlackBeadChoice.png","null"
"image-keyboard-response","289","462525","0.0-4.0-2.89","10","Low_HMMActual","null","","","","Images/BlackBeadChoiceCorrect.png","null"
"image-keyboard-response","290","462897","0.0-4.0-0.90","10","Low_HMMActual","371","","","","Images/NewTrialBC.png","37"
"image-keyboard-response","291","463299","0.0-4.0-1.90","10","Low_HMMActual","null","","","","Images/BlackBeadChoice.png","null"
"image-keyboard-response","292","463944","0.0-4.0-2.90","10","Low_HMMActual","null","","","","Images/BlackBeadChoiceCorrect.png","null"
"image-keyboard-response","293","464296","0.0-4.0-0.91","10","Low_HMMActual","351","","","","Images/NewTrialBC.png","37"
"image-keyboard-response","294","464696","0.0-4.0-1.91","10","Low_HMMActual","null","","","","Images/BlackBeadChoice.png","null"
"image-keyboard-response","295","465398","0.0-4.0-2.91","10","Low_HMMActual","null","","","","Images/BlackBeadChoiceCorrect.png","null"
"image-keyboard-response","296","465687","0.0-4.0-0.92","10","Low_HMMActual","343","","","","Images/NewTrialBC.png","37"
"image-keyboard-response","297","466057","0.0-4.0-1.92","10","Low_HMMActual","null","","","","Images/BlackBeadChoice.png","null"
"image-keyboard-response","298","466759","0.0-4.0-2.92","10","Low_HMMActual","null","","","","Images/BlackBeadChoiceWrong.png","null"
"image-keyboard-response","299","467737","0.0-4.0-0.93","10","Low_HMMActual","977","","","","Images/NewTrialWC.png","37"
"image-keyboard-response","300","468138","0.0-4.0-1.93","10","Low_HMMActual","null","","","","Images/BlackBeadChoice.png","null"
"image-keyboard-response","301","468839","0.0-4.0-2.93","10","Low_HMMActual","null","","","","Images/BlackBeadChoiceCorrect.png","null"
"image-keyboard-response","302","469505","0.0-4.0-0.94","10","Low_HMMActual","666","","","","Images/NewTrialBC.png","37"
"image-keyboard-response","303","469906","0.0-4.0-1.94","10","Low_HMMActual","null","","","","Images/BlackBeadChoice.png","null"
"image-keyboard-response","304","470607","0.0-4.0-2.94","10","Low_HMMActual","null","","","","Images/BlackBeadChoiceCorrect.png","null"
"image-keyboard-response","305","471089","0.0-4.0-0.95","10","Low_HMMActual","481","","","","Images/NewTrialBC.png","37"
"image-keyboard-response","306","471512","0.0-4.0-1.95","10","Low_HMMActual","null","","","","Images/BlackBeadChoice.png","null"
"image-keyboard-response","307","472213","0.0-4.0-2.95","10","Low_HMMActual","null","","","","Images/BlackBeadChoiceCorrect.png","null"
"image-keyboard-response","308","472721","0.0-4.0-0.96","10","Low_HMMActual","507","","","","Images/NewTrialBC.png","37"
"image-keyboard-response","309","473123","0.0-4.0-1.96","10","Low_HMMActual","null","","","","Images/BlackBeadChoice.png","null"
"image-keyboard-response","310","473758","0.0-4.0-2.96","10","Low_HMMActual","null","","","","Images/BlackBeadChoiceCorrect.png","null"
"image-keyboard-response","311","474202","0.0-4.0-0.97","10","Low_HMMActual","443","","","","Images/NewTrialBC.png","37"
"image-keyboard-response","312","474603","0.0-4.0-1.97","10","Low_HMMActual","null","","","","Images/BlackBeadChoice.png","null"
"image-keyboard-response","313","475304","0.0-4.0-2.97","10","Low_HMMActual","null","","","","Images/BlackBeadChoiceWrong.png","null"
"image-keyboard-response","314","476104","0.0-4.0-0.98","10","Low_HMMActual","798","","","","Images/NewTrialWC.png","37"
"image-keyboard-response","315","476506","0.0-4.0-1.98","10","Low_HMMActual","null","","","","Images/BlackBeadChoice.png","null"
"image-keyboard-response","316","477207","0.0-4.0-2.98","10","Low_HMMActual","null","","","","Images/BlackBeadChoiceCorrect.png","null"
"image-keyboard-response","317","477693","0.0-4.0-0.99","10","Low_HMMActual","484","","","","Images/NewTrialBC.png","37"
"image-keyboard-response","318","478094","0.0-4.0-1.99","10","Low_HMMActual","null","","","","Images/BlackBeadChoice.png","null"
"image-keyboard-response","319","478795","0.0-4.0-2.99","10","Low_HMMActual","null","","","","Images/BlackBeadChoiceWrong.png","null"
"image-keyboard-response","320","479252","0.0-4.0-0.100","10","Low_HMMActual","456","","","","Images/NewTrialWC.png","37"
"image-keyboard-response","321","479653","0.0-4.0-1.100","10","Low_HMMActual","null","","","","Images/BlackBeadChoice.png","null"
"image-keyboard-response","322","480354","0.0-4.0-2.100","10","Low_HMMActual","null","","","","Images/BlackBeadChoiceCorrect.png","null"
"image-keyboard-response","323","480709","0.0-4.0-0.101","10","Low_HMMActual","354","","","","Images/NewTrialBC.png","37"
"image-keyboard-response","324","481111","0.0-4.0-1.101","10","Low_HMMActual","null","","","","Images/BlackBeadChoice.png","null"
"image-keyboard-response","325","481812","0.0-4.0-2.101","10","Low_HMMActual","null","","","","Images/BlackBeadChoiceCorrect.png","null"
"image-keyboard-response","326","482179","0.0-4.0-0.102","10","Low_HMMActual","366","","","","Images/NewTrialBC.png","37"
"image-keyboard-response","327","482581","0.0-4.0-1.102","10","Low_HMMActual","null","","","","Images/BlackBeadChoice.png","null"
"image-keyboard-response","328","483282","0.0-4.0-2.102","10","Low_HMMActual","null","","","","Images/BlackBeadChoiceWrong.png","null"
"image-keyboard-response","329","483708","0.0-4.0-0.103","10","Low_HMMActual","496","","","","Images/NewTrialWC.png","37"
"image-keyboard-response","330","484110","0.0-4.0-1.103","10","Low_HMMActual","null","","","","Images/BlackBeadChoice.png","null"
"image-keyboard-response","331","484811","0.0-4.0-2.103","10","Low_HMMActual","null","","","","Images/BlackBeadChoiceWrong.png","null"
"image-keyboard-response","332","485342","0.0-4.0-0.104","10","Low_HMMActual","530","","","","Images/NewTrialWC.png","37"
"image-keyboard-response","333","485744","0.0-4.0-1.104","10","Low_HMMActual","null","","","","Images/BlackBeadChoice.png","null"
"image-keyboard-response","334","486445","0.0-4.0-2.104","10","Low_HMMActual","null","","","","Images/BlackBeadChoiceCorrect.png","null"
"image-keyboard-response","335","486993","0.0-4.0-0.105","10","Low_HMMActual","547","","","","Images/NewTrialBC.png","37"
"image-keyboard-response","336","487393","0.0-4.0-1.105","10","Low_HMMActual","null","","","","Images/BlackBeadChoice.png","null"
"image-keyboard-response","337","488095","0.0-4.0-2.105","10","Low_HMMActual","null","","","","Images/BlackBeadChoiceWrong.png","null"
"image-keyboard-response","338","488542","0.0-4.0-0.106","10","Low_HMMActual","447","","","","Images/NewTrialWC.png","37"
"image-keyboard-response","339","488943","0.0-4.0-1.106","10","Low_HMMActual","null","","","","Images/BlackBeadChoice.png","null"
"image-keyboard-response","340","489644","0.0-4.0-2.106","10","Low_HMMActual","null","","","","Images/BlackBeadChoiceWrong.png","null"
"image-keyboard-response","341","490190","0.0-4.0-0.107","10","Low_HMMActual","546","","","","Images/NewTrialWC.png","37"
"image-keyboard-response","342","490592","0.0-4.0-1.107","10","Low_HMMActual","null","","","","Images/BlackBeadChoice.png","null"
"image-keyboard-response","343","491293","0.0-4.0-2.107","10","Low_HMMActual","null","","","","Images/BlackBeadChoiceWrong.png","null"
"image-keyboard-response","344","491813","0.0-4.0-0.108","10","Low_HMMActual","519","","","","Images/NewTrialWC.png","37"
"image-keyboard-response","345","492215","0.0-4.0-1.108","10","Low_HMMActual","null","","","","Images/BlackBeadChoice.png","null"
"image-keyboard-response","346","492916","0.0-4.0-2.108","10","Low_HMMActual","null","","","","Images/BlackBeadChoiceWrong.png","null"
"image-keyboard-response","347","493430","0.0-4.0-0.109","10","Low_HMMActual","511","","","","Images/NewTrialWC.png","39"
"image-keyboard-response","348","493826","0.0-4.0-1.109","10","Low_HMMActual","null","","","","Images/WhiteBeadChoice.png","null"
"image-keyboard-response","349","494528","0.0-4.0-2.109","10","Low_HMMActual","null","","","","Images/WhiteBeadChoiceCorrect.png","null"
"image-keyboard-response","350","496552","0.0-4.0-0.110","10","Low_HMMActual","2023","","","","Images/NewTrialWC.png","37"
"image-keyboard-response","351","496953","0.0-4.0-1.110","10","Low_HMMActual","null","","","","Images/BlackBeadChoice.png","null"
"image-keyboard-response","352","497654","0.0-4.0-2.110","10","Low_HMMActual","null","","","","Images/BlackBeadChoiceWrong.png","null"
"image-keyboard-response","353","498651","0.0-4.0-0.111","10","Low_HMMActual","996","","","","Images/NewTrialWC.png","37"
"image-keyboard-response","354","499053","0.0-4.0-1.111","10","Low_HMMActual","null","","","","Images/BlackBeadChoice.png","null"
"image-keyboard-response","355","499754","0.0-4.0-2.111","10","Low_HMMActual","null","","","","Images/BlackBeadChoiceWrong.png","null"
"image-keyboard-response","356","500323","0.0-4.0-0.112","10","Low_HMMActual","568","","","","Images/NewTrialWC.png","39"
"image-keyboard-response","357","500724","0.0-4.0-1.112","10","Low_HMMActual","null","","","","Images/WhiteBeadChoice.png","null"
"image-keyboard-response","358","501425","0.0-4.0-2.112","10","Low_HMMActual","null","","","","Images/WhiteBeadChoiceCorrect.png","null"
"image-keyboard-response","359","502310","0.0-4.0-0.113","10","Low_HMMActual","885","","","","Images/NewTrialWC.png","39"
"image-keyboard-response","360","502712","0.0-4.0-1.113","10","Low_HMMActual","null","","","","Images/WhiteBeadChoice.png","null"
"image-keyboard-response","361","503413","0.0-4.0-2.113","10","Low_HMMActual","null","","","","Images/WhiteBeadChoiceCorrect.png","null"
"image-keyboard-response","362","504115","0.0-4.0-0.114","10","Low_HMMActual","766","","","","Images/NewTrialWC.png","39"
"image-keyboard-response","363","504517","0.0-4.0-1.114","10","Low_HMMActual","null","","","","Images/WhiteBeadChoice.png","null"
"image-keyboard-response","364","505218","0.0-4.0-2.114","10","Low_HMMActual","null","","","","Images/WhiteBeadChoiceCorrect.png","null"
"image-keyboard-response","365","505797","0.0-4.0-0.115","10","Low_HMMActual","578","","","","Images/NewTrialWC.png","39"
"image-keyboard-response","366","506198","0.0-4.0-1.115","10","Low_HMMActual","null","","","","Images/WhiteBeadChoice.png","null"
"image-keyboard-response","367","506899","0.0-4.0-2.115","10","Low_HMMActual","null","","","","Images/WhiteBeadChoiceCorrect.png","null"
"image-keyboard-response","368","507378","0.0-4.0-0.116","10","Low_HMMActual","479","","","","Images/NewTrialWC.png","39"
"image-keyboard-response","369","507779","0.0-4.0-1.116","10","Low_HMMActual","null","","","","Images/WhiteBeadChoice.png","null"
"image-keyboard-response","370","508481","0.0-4.0-2.116","10","Low_HMMActual","null","","","","Images/WhiteBeadChoiceWrong.png","null"
"image-keyboard-response","371","509045","0.0-4.0-0.117","10","Low_HMMActual","564","","","","Images/NewTrialBC.png","37"
"image-keyboard-response","372","509447","0.0-4.0-1.117","10","Low_HMMActual","null","","","","Images/BlackBeadChoice.png","null"
"image-keyboard-response","373","510148","0.0-4.0-2.117","10","Low_HMMActual","null","","","","Images/BlackBeadChoiceWrong.png","null"
"image-keyboard-response","374","510535","0.0-4.0-0.118","10","Low_HMMActual","386","","","","Images/NewTrialWC.png","39"
"image-keyboard-response","375","510936","0.0-4.0-1.118","10","Low_HMMActual","null","","","","Images/WhiteBeadChoice.png","null"
"image-keyboard-response","376","511637","0.0-4.0-2.118","10","Low_HMMActual","null","","","","Images/WhiteBeadChoiceCorrect.png","null"
"image-keyboard-response","377","512052","0.0-4.0-0.119","10","Low_HMMActual","413","","","","Images/NewTrialWC.png","39"
"image-keyboard-response","378","512453","0.0-4.0-1.119","10","Low_HMMActual","null","","","","Images/WhiteBeadChoice.png","null"
"image-keyboard-response","379","513154","0.0-4.0-2.119","10","Low_HMMActual","null","","","","Images/WhiteBeadChoiceCorrect.png","null"
"image-keyboard-response","380","513488","0.0-4.0-0.120","10","Low_HMMActual","419","","","","Images/NewTrialWC.png","39"
"image-keyboard-response","381","513890","0.0-4.0-1.120","10","Low_HMMActual","null","","","","Images/WhiteBeadChoice.png","null"
"image-keyboard-response","382","514590","0.0-4.0-2.120","10","Low_HMMActual","null","","","","Images/WhiteBeadChoiceWrong.png","null"
"image-keyboard-response","383","515003","0.0-4.0-0.121","10","Low_HMMActual","411","","","","Images/NewTrialBC.png","37"
"image-keyboard-response","384","515404","0.0-4.0-1.121","10","Low_HMMActual","null","","","","Images/BlackBeadChoice.png","null"
"image-keyboard-response","385","516105","0.0-4.0-2.121","10","Low_HMMActual","null","","","","Images/BlackBeadChoiceWrong.png","null"
"image-keyboard-response","386","516479","0.0-4.0-0.122","10","Low_HMMActual","373","","","","Images/NewTrialWC.png","39"
"image-keyboard-response","387","516880","0.0-4.0-1.122","10","Low_HMMActual","null","","","","Images/WhiteBeadChoice.png","null"
"image-keyboard-response","388","517581","0.0-4.0-2.122","10","Low_HMMActual","693","","","","Images/WhiteBeadChoiceCorrect.png","39"
"image-keyboard-response","389","518080","0.0-4.0-0.123","10","Low_HMMActual","498","","","","Images/NewTrialWC.png","39"
"image-keyboard-response","390","518481","0.0-4.0-1.123","10","Low_HMMActual","null","","","","Images/WhiteBeadChoice.png","null"
"image-keyboard-response","391","519182","0.0-4.0-2.123","10","Low_HMMActual","null","","","","Images/WhiteBeadChoiceCorrect.png","null"
"image-keyboard-response","392","519564","0.0-4.0-0.124","10","Low_HMMActual","381","","","","Images/NewTrialWC.png","39"
"image-keyboard-response","393","519965","0.0-4.0-1.124","10","Low_HMMActual","null","","","","Images/WhiteBeadChoice.png","null"
"image-keyboard-response","394","520666","0.0-4.0-2.124","10","Low_HMMActual","null","","","","Images/WhiteBeadChoiceCorrect.png","null"
"image-keyboard-response","395","521058","0.0-4.0-0.125","10","Low_HMMActual","391","","","","Images/NewTrialWC.png","39"
"image-keyboard-response","396","521459","0.0-4.0-1.125","10","Low_HMMActual","null","","","","Images/WhiteBeadChoice.png","null"
"image-keyboard-response","397","522160","0.0-4.0-2.125","10","Low_HMMActual","null","","","","Images/WhiteBeadChoiceCorrect.png","null"
"image-keyboard-response","398","522523","0.0-4.0-0.126","10","Low_HMMActual","361","","","","Images/NewTrialWC.png","39"
"image-keyboard-response","399","522923","0.0-4.0-1.126","10","Low_HMMActual","null","","","","Images/WhiteBeadChoice.png","null"
"image-keyboard-response","400","523553","0.0-4.0-2.126","10","Low_HMMActual","null","","","","Images/WhiteBeadChoiceWrong.png","null"
"image-keyboard-response","401","524066","0.0-4.0-0.127","10","Low_HMMActual","511","","","","Images/NewTrialBC.png","39"
"image-keyboard-response","402","524468","0.0-4.0-1.127","10","Low_HMMActual","null","","","","Images/WhiteBeadChoice.png","null"
"image-keyboard-response","403","525168","0.0-4.0-2.127","10","Low_HMMActual","null","","","","Images/WhiteBeadChoiceCorrect.png","null"
"image-keyboard-response","404","525539","0.0-4.0-0.128","10","Low_HMMActual","368","","","","Images/NewTrialWC.png","39"
"image-keyboard-response","405","525940","0.0-4.0-1.128","10","Low_HMMActual","null","","","","Images/WhiteBeadChoice.png","null"
"image-keyboard-response","406","526641","0.0-4.0-2.128","10","Low_HMMActual","null","","","","Images/WhiteBeadChoiceCorrect.png","null"
"image-keyboard-response","407","527038","0.0-4.0-0.129","10","Low_HMMActual","396","","","","Images/NewTrialWC.png","39"
"image-keyboard-response","408","527440","0.0-4.0-1.129","10","Low_HMMActual","null","","","","Images/WhiteBeadChoice.png","null"
"image-keyboard-response","409","528141","0.0-4.0-2.129","10","Low_HMMActual","null","","","","Images/WhiteBeadChoiceCorrect.png","null"
"image-keyboard-response","410","528395","0.0-4.0-0.130","10","Low_HMMActual","253","","","","Images/NewTrialWC.png","39"
"image-keyboard-response","411","528797","0.0-4.0-1.130","10","Low_HMMActual","null","","","","Images/WhiteBeadChoice.png","null"
"image-keyboard-response","412","529498","0.0-4.0-2.130","10","Low_HMMActual","null","","","","Images/WhiteBeadChoiceCorrect.png","null"
"image-keyboard-response","413","529806","0.0-4.0-0.131","10","Low_HMMActual","306","","","","Images/NewTrialWC.png","39"
"image-keyboard-response","414","530207","0.0-4.0-1.131","10","Low_HMMActual","null","","","","Images/WhiteBeadChoice.png","null"
"image-keyboard-response","415","530908","0.0-4.0-2.131","10","Low_HMMActual","584","","","","Images/WhiteBeadChoiceCorrect.png","39"
"image-keyboard-response","416","531298","0.0-4.0-0.132","10","Low_HMMActual","389","","","","Images/NewTrialWC.png","39"
"image-keyboard-response","417","531700","0.0-4.0-1.132","10","Low_HMMActual","null","","","","Images/WhiteBeadChoice.png","null"
"image-keyboard-response","418","532400","0.0-4.0-2.132","10","Low_HMMActual","null","","","","Images/WhiteBeadChoiceCorrect.png","null"
"image-keyboard-response","419","532772","0.0-4.0-0.133","10","Low_HMMActual","371","","","","Images/NewTrialWC.png","39"
"image-keyboard-response","420","533173","0.0-4.0-1.133","10","Low_HMMActual","null","","","","Images/WhiteBeadChoice.png","null"
"image-keyboard-response","421","533802","0.0-4.0-2.133","10","Low_HMMActual","null","","","","Images/WhiteBeadChoiceCorrect.png","null"
"image-keyboard-response","422","534148","0.0-4.0-0.134","10","Low_HMMActual","344","","","","Images/NewTrialWC.png","39"
"image-keyboard-response","423","534550","0.0-4.0-1.134","10","Low_HMMActual","null","","","","Images/WhiteBeadChoice.png","null"
"image-keyboard-response","424","535251","0.0-4.0-2.134","10","Low_HMMActual","null","","","","Images/WhiteBeadChoiceCorrect.png","null"
"image-keyboard-response","425","535555","0.0-4.0-0.135","10","Low_HMMActual","303","","","","Images/NewTrialWC.png","39"
"image-keyboard-response","426","535956","0.0-4.0-1.135","10","Low_HMMActual","null","","","","Images/WhiteBeadChoice.png","null"
"image-keyboard-response","427","536657","0.0-4.0-2.135","10","Low_HMMActual","null","","","","Images/WhiteBeadChoiceCorrect.png","null"
"image-keyboard-response","428","536733","0.0-4.0-0.136","10","Low_HMMActual","76","","","","Images/NewTrialWC.png","39"
"image-keyboard-response","429","537134","0.0-4.0-1.136","10","Low_HMMActual","null","","","","Images/WhiteBeadChoice.png","null"
"image-keyboard-response","430","537835","0.0-4.0-2.136","10","Low_HMMActual","null","","","","Images/WhiteBeadChoiceCorrect.png","null"
"image-keyboard-response","431","538102","0.0-4.0-0.137","10","Low_HMMActual","265","","","","Images/NewTrialWC.png","39"
"image-keyboard-response","432","538504","0.0-4.0-1.137","10","Low_HMMActual","null","","","","Images/WhiteBeadChoice.png","null"
"image-keyboard-response","433","539205","0.0-4.0-2.137","10","Low_HMMActual","null","","","","Images/WhiteBeadChoiceCorrect.png","null"
"image-keyboard-response","434","539562","0.0-4.0-0.138","10","Low_HMMActual","355","","","","Images/NewTrialWC.png","39"
"image-keyboard-response","435","539963","0.0-4.0-1.138","10","Low_HMMActual","null","","","","Images/WhiteBeadChoice.png","null"
"image-keyboard-response","436","540665","0.0-4.0-2.138","10","Low_HMMActual","null","","","","Images/WhiteBeadChoiceCorrect.png","null"
"image-keyboard-response","437","540707","0.0-4.0-0.139","10","Low_HMMActual","41","","","","Images/NewTrialWC.png","39"
"image-keyboard-response","438","541107","0.0-4.0-1.139","10","Low_HMMActual","null","","","","Images/WhiteBeadChoice.png","null"
"image-keyboard-response","439","541808","0.0-4.0-2.139","10","Low_HMMActual","null","","","","Images/WhiteBeadChoiceCorrect.png","null"
"image-keyboard-response","440","542139","0.0-4.0-0.140","10","Low_HMMActual","328","","","","Images/NewTrialWC.png","39"
"image-keyboard-response","441","542540","0.0-4.0-1.140","10","Low_HMMActual","null","","","","Images/WhiteBeadChoice.png","null"
"image-keyboard-response","442","543241","0.0-4.0-2.140","10","Low_HMMActual","null","","","","Images/WhiteBeadChoiceCorrect.png","null"
"image-keyboard-response","443","543492","0.0-4.0-0.141","10","Low_HMMActual","300","","","","Images/NewTrialWC.png","39"
"image-keyboard-response","444","543858","0.0-4.0-1.141","10","Low_HMMActual","null","","","","Images/WhiteBeadChoice.png","null"
"image-keyboard-response","445","544559","0.0-4.0-2.141","10","Low_HMMActual","425","","","","Images/WhiteBeadChoiceCorrect.png","39"
"image-keyboard-response","446","544985","0.0-4.0-0.142","10","Low_HMMActual","424","","","","Images/NewTrialWC.png","39"
"image-keyboard-response","447","545386","0.0-4.0-1.142","10","Low_HMMActual","null","","","","Images/WhiteBeadChoice.png","null"
"image-keyboard-response","448","546086","0.0-4.0-2.142","10","Low_HMMActual","null","","","","Images/WhiteBeadChoiceCorrect.png","null"
"image-keyboard-response","449","546440","0.0-4.0-0.143","10","Low_HMMActual","352","","","","Images/NewTrialWC.png","39"
"image-keyboard-response","450","546842","0.0-4.0-1.143","10","Low_HMMActual","null","","","","Images/WhiteBeadChoice.png","null"
"image-keyboard-response","451","547543","0.0-4.0-2.143","10","Low_HMMActual","null","","","","Images/WhiteBeadChoiceWrong.png","null"
"image-keyboard-response","452","548029","0.0-4.0-0.144","10","Low_HMMActual","485","","","","Images/NewTrialBC.png","39"
"image-keyboard-response","453","548430","0.0-4.0-1.144","10","Low_HMMActual","null","","","","Images/WhiteBeadChoice.png","null"
"image-keyboard-response","454","549131","0.0-4.0-2.144","10","Low_HMMActual","null","","","","Images/WhiteBeadChoiceCorrect.png","null"
"image-keyboard-response","455","549493","0.0-4.0-0.145","10","Low_HMMActual","361","","","","Images/NewTrialWC.png","39"
"image-keyboard-response","456","549895","0.0-4.0-1.145","10","Low_HMMActual","null","","","","Images/WhiteBeadChoice.png","null"
"image-keyboard-response","457","550596","0.0-4.0-2.145","10","Low_HMMActual","null","","","","Images/WhiteBeadChoiceCorrect.png","null"
"image-keyboard-response","458","550938","0.0-4.0-0.146","10","Low_HMMActual","342","","","","Images/NewTrialWC.png","39"
"image-keyboard-response","459","551339","0.0-4.0-1.146","10","Low_HMMActual","null","","","","Images/WhiteBeadChoice.png","null"
"image-keyboard-response","460","552040","0.0-4.0-2.146","10","Low_HMMActual","null","","","","Images/WhiteBeadChoiceCorrect.png","null"
"image-keyboard-response","461","552208","0.0-4.0-0.147","10","Low_HMMActual","169","","","","Images/NewTrialWC.png","39"
"image-keyboard-response","462","552610","0.0-4.0-1.147","10","Low_HMMActual","null","","","","Images/WhiteBeadChoice.png","null"
"image-keyboard-response","463","553311","0.0-4.0-2.147","10","Low_HMMActual","null","","","","Images/WhiteBeadChoiceCorrect.png","null"
"image-keyboard-response","464","553464","0.0-4.0-0.148","10","Low_HMMActual","152","","","","Images/NewTrialWC.png","39"
"image-keyboard-response","465","553756","0.0-4.0-1.148","10","Low_HMMActual","null","","","","Images/WhiteBeadChoice.png","null"
"image-keyboard-response","466","554458","0.0-4.0-2.148","10","Low_HMMActual","null","","","","Images/WhiteBeadChoiceCorrect.png","null"
"image-keyboard-response","467","554658","0.0-4.0-0.149","10","Low_HMMActual","199","","","","Images/NewTrialWC.png","39"
"image-keyboard-response","468","555058","0.0-4.0-1.149","10","Low_HMMActual","null","","","","Images/WhiteBeadChoice.png","null"
"image-keyboard-response","469","555760","0.0-4.0-2.149","10","Low_HMMActual","null","","","","Images/WhiteBeadChoiceWrong.png","null"
"image-keyboard-response","470","555775","0.0-4.0-0.150","10","Low_HMMActual","14","","","","Images/NewTrialBC.png","39"
"image-keyboard-response","471","556176","0.0-4.0-1.150","10","Low_HMMActual","null","","","","Images/WhiteBeadChoice.png","null"
"image-keyboard-response","472","556877","0.0-4.0-2.150","10","Low_HMMActual","null","","","","Images/WhiteBeadChoiceCorrect.png","null"
"image-keyboard-response","473","557240","0.0-4.0-0.151","10","Low_HMMActual","362","","","","Images/NewTrialWC.png","39"
"image-keyboard-response","474","557641","0.0-4.0-1.151","10","Low_HMMActual","null","","","","Images/WhiteBeadChoice.png","null"
"image-keyboard-response","475","558342","0.0-4.0-2.151","10","Low_HMMActual","null","","","","Images/WhiteBeadChoiceCorrect.png","null"
"image-keyboard-response","476","558753","0.0-4.0-0.152","10","Low_HMMActual","412","","","","Images/NewTrialWC.png","39"
"image-keyboard-response","477","559154","0.0-4.0-1.152","10","Low_HMMActual","null","","","","Images/WhiteBeadChoice.png","null"
"image-keyboard-response","478","559856","0.0-4.0-2.152","10","Low_HMMActual","null","","","","Images/WhiteBeadChoiceWrong.png","null"
"image-keyboard-response","479","560227","0.0-4.0-0.153","10","Low_HMMActual","371","","","","Images/NewTrialBC.png","39"
"image-keyboard-response","480","560628","0.0-4.0-1.153","10","Low_HMMActual","null","","","","Images/WhiteBeadChoice.png","null"
"image-keyboard-response","481","561328","0.0-4.0-2.153","10","Low_HMMActual","null","","","","Images/WhiteBeadChoiceWrong.png","null"
"image-keyboard-response","482","563459","0.0-4.0-0.154","10","Low_HMMActual","2129","","","","Images/NewTrialBC.png","39"
"image-keyboard-response","483","563862","0.0-4.0-1.154","10","Low_HMMActual","null","","","","Images/WhiteBeadChoice.png","null"
"image-keyboard-response","484","564563","0.0-4.0-2.154","10","Low_HMMActual","null","","","","Images/WhiteBeadChoiceWrong.png","null"
"image-keyboard-response","485","564998","0.0-4.0-0.155","10","Low_HMMActual","433","","","","Images/NewTrialBC.png","37"
"image-keyboard-response","486","565399","0.0-4.0-1.155","10","Low_HMMActual","null","","","","Images/BlackBeadChoice.png","null"
"image-keyboard-response","487","566100","0.0-4.0-2.155","10","Low_HMMActual","null","","","","Images/BlackBeadChoiceWrong.png","null"
"image-keyboard-response","488","568118","0.0-4.0-0.156","10","Low_HMMActual","2017","","","","Images/NewTrialWC.png","39"
"image-keyboard-response","489","568519","0.0-4.0-1.156","10","Low_HMMActual","null","","","","Images/WhiteBeadChoice.png","null"
"image-keyboard-response","490","569220","0.0-4.0-2.156","10","Low_HMMActual","null","","","","Images/WhiteBeadChoiceCorrect.png","null"
"image-keyboard-response","491","569598","0.0-4.0-0.157","10","Low_HMMActual","377","","","","Images/NewTrialWC.png","39"
"image-keyboard-response","492","570000","0.0-4.0-1.157","10","Low_HMMActual","null","","","","Images/WhiteBeadChoice.png","null"
"image-keyboard-response","493","570700","0.0-4.0-2.157","10","Low_HMMActual","null","","","","Images/WhiteBeadChoiceCorrect.png","null"
"image-keyboard-response","494","571064","0.0-4.0-0.158","10","Low_HMMActual","362","","","","Images/NewTrialWC.png","39"
"image-keyboard-response","495","571466","0.0-4.0-1.158","10","Low_HMMActual","null","","","","Images/WhiteBeadChoice.png","null"
"image-keyboard-response","496","572167","0.0-4.0-2.158","10","Low_HMMActual","null","","","","Images/WhiteBeadChoiceCorrect.png","null"
"image-keyboard-response","497","572482","0.0-4.0-0.159","10","Low_HMMActual","314","","","","Images/NewTrialWC.png","39"
"image-keyboard-response","498","572883","0.0-4.0-1.159","10","Low_HMMActual","null","","","","Images/WhiteBeadChoice.png","null"
"image-keyboard-response","499","573585","0.0-4.0-2.159","10","Low_HMMActual","null","","","","Images/WhiteBeadChoiceCorrect.png","null"
"image-keyboard-response","500","573775","0.0-4.0-0.160","10","Low_HMMActual","187","","","","Images/NewTrialWC.png","39"
"image-keyboard-response","501","574176","0.0-4.0-1.160","10","Low_HMMActual","null","","","","Images/WhiteBeadChoice.png","null"
"image-keyboard-response","502","574877","0.0-4.0-2.160","10","Low_HMMActual","null","","","","Images/WhiteBeadChoiceCorrect.png","null"
"image-keyboard-response","503","575097","0.0-4.0-0.161","10","Low_HMMActual","219","","","","Images/NewTrialWC.png","39"
"image-keyboard-response","504","575499","0.0-4.0-1.161","10","Low_HMMActual","null","","","","Images/WhiteBeadChoice.png","null"
"image-keyboard-response","505","576200","0.0-4.0-2.161","10","Low_HMMActual","null","","","","Images/WhiteBeadChoiceCorrect.png","null"
"image-keyboard-response","506","576314","0.0-4.0-0.162","10","Low_HMMActual","114","","","","Images/NewTrialWC.png","39"
"image-keyboard-response","507","576716","0.0-4.0-1.162","10","Low_HMMActual","null","","","","Images/WhiteBeadChoice.png","null"
"image-keyboard-response","508","577417","0.0-4.0-2.162","10","Low_HMMActual","589","","","","Images/WhiteBeadChoiceCorrect.png","39"
"image-keyboard-response","509","577885","0.0-4.0-0.163","10","Low_HMMActual","466","","","","Images/NewTrialWC.png","39"
"image-keyboard-response","510","578286","0.0-4.0-1.163","10","Low_HMMActual","null","","","","Images/WhiteBeadChoice.png","null"
"image-keyboard-response","511","578986","0.0-4.0-2.163","10","Low_HMMActual","null","","","","Images/WhiteBeadChoiceCorrect.png","null"
"image-keyboard-response","512","579166","0.0-4.0-0.164","10","Low_HMMActual","178","","","","Images/NewTrialWC.png","39"
"image-keyboard-response","513","579567","0.0-4.0-1.164","10","Low_HMMActual","null","","","","Images/WhiteBeadChoice.png","null"
"image-keyboard-response","514","580267","0.0-4.0-2.164","10","Low_HMMActual","null","","","","Images/WhiteBeadChoiceCorrect.png","null"
"image-keyboard-response","515","580469","0.0-4.0-0.165","10","Low_HMMActual","201","","","","Images/NewTrialWC.png","39"
"image-keyboard-response","516","580871","0.0-4.0-1.165","10","Low_HMMActual","null","","","","Images/WhiteBeadChoice.png","null"
"image-keyboard-response","517","581572","0.0-4.0-2.165","10","Low_HMMActual","603","","","","Images/WhiteBeadChoiceCorrect.png","39"
"image-keyboard-response","518","582224","0.0-4.0-0.166","10","Low_HMMActual","651","","","","Images/NewTrialWC.png","39"
"image-keyboard-response","519","582626","0.0-4.0-1.166","10","Low_HMMActual","null","","","","Images/WhiteBeadChoice.png","null"
"image-keyboard-response","520","583327","0.0-4.0-2.166","10","Low_HMMActual","null","","","","Images/WhiteBeadChoiceWrong.png","null"
"image-keyboard-response","521","583759","0.0-4.0-0.167","10","Low_HMMActual","509","","","","Images/NewTrialBC.png","39"
"image-keyboard-response","522","584161","0.0-4.0-1.167","10","Low_HMMActual","null","","","","Images/WhiteBeadChoice.png","null"
"image-keyboard-response","523","584862","0.0-4.0-2.167","10","Low_HMMActual","null","","","","Images/WhiteBeadChoiceCorrect.png","null"
"image-keyboard-response","524","585289","0.0-4.0-0.168","10","Low_HMMActual","426","","","","Images/NewTrialWC.png","39"
"image-keyboard-response","525","585698","0.0-4.0-1.168","10","Low_HMMActual","null","","","","Images/WhiteBeadChoice.png","null"
"image-keyboard-response","526","586395","0.0-4.0-2.168","10","Low_HMMActual","null","","","","Images/WhiteBeadChoiceCorrect.png","null"
"image-keyboard-response","527","586673","0.0-4.0-0.169","10","Low_HMMActual","277","","","","Images/NewTrialWC.png","39"
"image-keyboard-response","528","587075","0.0-4.0-1.169","10","Low_HMMActual","null","","","","Images/WhiteBeadChoice.png","null"
"image-keyboard-response","529","587776","0.0-4.0-2.169","10","Low_HMMActual","null","","","","Images/WhiteBeadChoiceWrong.png","null"
"image-keyboard-response","530","588166","0.0-4.0-0.170","10","Low_HMMActual","388","","","","Images/NewTrialBC.png","39"
"image-keyboard-response","531","588567","0.0-4.0-1.170","10","Low_HMMActual","null","","","","Images/WhiteBeadChoice.png","null"
"image-keyboard-response","532","589268","0.0-4.0-2.170","10","Low_HMMActual","null","","","","Images/WhiteBeadChoiceCorrect.png","null"
"image-keyboard-response","533","589771","0.0-4.0-0.171","10","Low_HMMActual","503","","","","Images/NewTrialWC.png","39"
"image-keyboard-response","534","590173","0.0-4.0-1.171","10","Low_HMMActual","null","","","","Images/WhiteBeadChoice.png","null"
"image-keyboard-response","535","590874","0.0-4.0-2.171","10","Low_HMMActual","null","","","","Images/WhiteBeadChoiceCorrect.png","null"
"image-keyboard-response","536","591107","0.0-4.0-0.172","10","Low_HMMActual","233","","","","Images/NewTrialWC.png","39"
"image-keyboard-response","537","591508","0.0-4.0-1.172","10","Low_HMMActual","null","","","","Images/WhiteBeadChoice.png","null"
"image-keyboard-response","538","592209","0.0-4.0-2.172","10","Low_HMMActual","555","","","","Images/WhiteBeadChoiceCorrect.png","39"
"image-keyboard-response","539","592593","0.0-4.0-0.173","10","Low_HMMActual","383","","","","Images/NewTrialWC.png","39"
"image-keyboard-response","540","592994","0.0-4.0-1.173","10","Low_HMMActual","null","","","","Images/WhiteBeadChoice.png","null"
"image-keyboard-response","541","593696","0.0-4.0-2.173","10","Low_HMMActual","null","","","","Images/WhiteBeadChoiceCorrect.png","null"
"image-keyboard-response","542","593842","0.0-4.0-0.174","10","Low_HMMActual","145","","","","Images/NewTrialWC.png","39"
"image-keyboard-response","543","594243","0.0-4.0-1.174","10","Low_HMMActual","null","","","","Images/WhiteBeadChoice.png","null"
"image-keyboard-response","544","594945","0.0-4.0-2.174","10","Low_HMMActual","null","","","","Images/WhiteBeadChoiceCorrect.png","null"
"image-keyboard-response","545","595197","0.0-4.0-0.175","10","Low_HMMActual","251","","","","Images/NewTrialWC.png","39"
"image-keyboard-response","546","595599","0.0-4.0-1.175","10","Low_HMMActual","null","","","","Images/WhiteBeadChoice.png","null"
"image-keyboard-response","547","596300","0.0-4.0-2.175","10","Low_HMMActual","620","","","","Images/WhiteBeadChoiceCorrect.png","39"
"image-keyboard-response","548","596778","0.0-4.0-0.176","10","Low_HMMActual","477","","","","Images/NewTrialWC.png","39"
"image-keyboard-response","549","597179","0.0-4.0-1.176","10","Low_HMMActual","null","","","","Images/WhiteBeadChoice.png","null"
"image-keyboard-response","550","597879","0.0-4.0-2.176","10","Low_HMMActual","null","","","","Images/WhiteBeadChoiceCorrect.png","null"
"image-keyboard-response","551","598224","0.0-4.0-0.177","10","Low_HMMActual","344","","","","Images/NewTrialWC.png","39"
"image-keyboard-response","552","598625","0.0-4.0-1.177","10","Low_HMMActual","null","","","","Images/WhiteBeadChoice.png","null"
"image-keyboard-response","553","599327","0.0-4.0-2.177","10","Low_HMMActual","null","","","","Images/WhiteBeadChoiceCorrect.png","null"
"image-keyboard-response","554","599678","0.0-4.0-0.178","10","Low_HMMActual","351","","","","Images/NewTrialWC.png","39"
"image-keyboard-response","555","600080","0.0-4.0-1.178","10","Low_HMMActual","null","","","","Images/WhiteBeadChoice.png","null"
"image-keyboard-response","556","600781","0.0-4.0-2.178","10","Low_HMMActual","null","","","","Images/WhiteBeadChoiceCorrect.png","null"
"image-keyboard-response","557","601119","0.0-4.0-0.179","10","Low_HMMActual","336","","","","Images/NewTrialWC.png","39"
"image-keyboard-response","558","601521","0.0-4.0-1.179","10","Low_HMMActual","null","","","","Images/WhiteBeadChoice.png","null"
"image-keyboard-response","559","602222","0.0-4.0-2.179","10","Low_HMMActual","null","","","","Images/WhiteBeadChoiceCorrect.png","null"
"image-keyboard-response","560","602438","0.0-4.0-0.180","10","Low_HMMActual","215","","","","Images/NewTrialWC.png","39"
"image-keyboard-response","561","602840","0.0-4.0-1.180","10","Low_HMMActual","null","","","","Images/WhiteBeadChoice.png","null"
"image-keyboard-response","562","603546","0.0-4.0-2.180","10","Low_HMMActual","null","","","","Images/WhiteBeadChoiceCorrect.png","null"
"image-keyboard-response","563","603779","0.0-4.0-0.181","10","Low_HMMActual","226","","","","Images/NewTrialWC.png","39"
"image-keyboard-response","564","604181","0.0-4.0-1.181","10","Low_HMMActual","null","","","","Images/WhiteBeadChoice.png","null"
"image-keyboard-response","565","604882","0.0-4.0-2.181","10","Low_HMMActual","null","","","","Images/WhiteBeadChoiceCorrect.png","null"
"image-keyboard-response","566","605320","0.0-4.0-0.182","10","Low_HMMActual","437","","","","Images/NewTrialWC.png","39"
"image-keyboard-response","567","605721","0.0-4.0-1.182","10","Low_HMMActual","null","","","","Images/WhiteBeadChoice.png","null"
"image-keyboard-response","568","606421","0.0-4.0-2.182","10","Low_HMMActual","null","","","","Images/WhiteBeadChoiceCorrect.png","null"
"image-keyboard-response","569","606796","0.0-4.0-0.183","10","Low_HMMActual","374","","","","Images/NewTrialWC.png","39"
"image-keyboard-response","570","607198","0.0-4.0-1.183","10","Low_HMMActual","null","","","","Images/WhiteBeadChoice.png","null"
"image-keyboard-response","571","607898","0.0-4.0-2.183","10","Low_HMMActual","null","","","","Images/WhiteBeadChoiceCorrect.png","null"
"image-keyboard-response","572","608179","0.0-4.0-0.184","10","Low_HMMActual","279","","","","Images/NewTrialWC.png","39"
"image-keyboard-response","573","608581","0.0-4.0-1.184","10","Low_HMMActual","null","","","","Images/WhiteBeadChoice.png","null"
"image-keyboard-response","574","609282","0.0-4.0-2.184","10","Low_HMMActual","null","","","","Images/WhiteBeadChoiceCorrect.png","null"
"image-keyboard-response","575","609569","0.0-4.0-0.185","10","Low_HMMActual","286","","","","Images/NewTrialWC.png","39"
"image-keyboard-response","576","609971","0.0-4.0-1.185","10","Low_HMMActual","null","","","","Images/WhiteBeadChoice.png","null"
"image-keyboard-response","577","610672","0.0-4.0-2.185","10","Low_HMMActual","null","","","","Images/WhiteBeadChoiceCorrect.png","null"
"image-keyboard-response","578","610842","0.0-4.0-0.186","10","Low_HMMActual","169","","","","Images/NewTrialWC.png","39"
"image-keyboard-response","579","611243","0.0-4.0-1.186","10","Low_HMMActual","null","","","","Images/WhiteBeadChoice.png","null"
"image-keyboard-response","580","611944","0.0-4.0-2.186","10","Low_HMMActual","null","","","","Images/WhiteBeadChoiceCorrect.png","null"
"image-keyboard-response","581","612153","0.0-4.0-0.187","10","Low_HMMActual","209","","","","Images/NewTrialWC.png","39"
"image-keyboard-response","582","612555","0.0-4.0-1.187","10","Low_HMMActual","null","","","","Images/WhiteBeadChoice.png","null"
"image-keyboard-response","583","613256","0.0-4.0-2.187","10","Low_HMMActual","null","","","","Images/WhiteBeadChoiceCorrect.png","null"
"image-keyboard-response","584","613439","0.0-4.0-0.188","10","Low_HMMActual","181","","","","Images/NewTrialWC.png","39"
"image-keyboard-response","585","613782","0.0-4.0-1.188","10","Low_HMMActual","null","","","","Images/WhiteBeadChoice.png","null"
"image-keyboard-response","586","614483","0.0-4.0-2.188","10","Low_HMMActual","null","","","","Images/WhiteBeadChoiceWrong.png","null"
"image-keyboard-response","587","615068","0.0-4.0-0.189","10","Low_HMMActual","584","","","","Images/NewTrialBC.png","39"
"image-keyboard-response","588","615470","0.0-4.0-1.189","10","Low_HMMActual","null","","","","Images/WhiteBeadChoice.png","null"
"image-keyboard-response","589","616171","0.0-4.0-2.189","10","Low_HMMActual","null","","","","Images/WhiteBeadChoiceCorrect.png","null"
"image-keyboard-response","590","616479","0.0-4.0-0.190","10","Low_HMMActual","307","","","","Images/NewTrialWC.png","39"
"image-keyboard-response","591","616880","0.0-4.0-1.190","10","Low_HMMActual","null","","","","Images/WhiteBeadChoice.png","null"
"image-keyboard-response","592","617581","0.0-4.0-2.190","10","Low_HMMActual","null","","","","Images/WhiteBeadChoiceCorrect.png","null"
"image-keyboard-response","593","617870","0.0-4.0-0.191","10","Low_HMMActual","288","","","","Images/NewTrialWC.png","39"
"image-keyboard-response","594","618272","0.0-4.0-1.191","10","Low_HMMActual","null","","","","Images/WhiteBeadChoice.png","null"
"image-keyboard-response","595","618972","0.0-4.0-2.191","10","Low_HMMActual","null","","","","Images/WhiteBeadChoiceCorrect.png","null"
"image-keyboard-response","596","619220","0.0-4.0-0.192","10","Low_HMMActual","246","","","","Images/NewTrialWC.png","39"
"image-keyboard-response","597","619621","0.0-4.0-1.192","10","Low_HMMActual","null","","","","Images/WhiteBeadChoice.png","null"
"image-keyboard-response","598","620322","0.0-4.0-2.192","10","Low_HMMActual","null","","","","Images/WhiteBeadChoiceCorrect.png","null"
"image-keyboard-response","599","620377","0.0-4.0-0.193","10","Low_HMMActual","54","","","","Images/NewTrialWC.png","39"
"image-keyboard-response","600","620778","0.0-4.0-1.193","10","Low_HMMActual","null","","","","Images/WhiteBeadChoice.png","null"
"image-keyboard-response","601","621480","0.0-4.0-2.193","10","Low_HMMActual","null","","","","Images/WhiteBeadChoiceCorrect.png","null"
"image-keyboard-response","602","621732","0.0-4.0-0.194","10","Low_HMMActual","251","","","","Images/NewTrialWC.png","39"
"image-keyboard-response","603","622134","0.0-4.0-1.194","10","Low_HMMActual","null","","","","Images/WhiteBeadChoice.png","null"
"image-keyboard-response","604","622835","0.0-4.0-2.194","10","Low_HMMActual","null","","","","Images/WhiteBeadChoiceCorrect.png","null"
"image-keyboard-response","605","623023","0.0-4.0-0.195","10","Low_HMMActual","187","","","","Images/NewTrialWC.png","39"
"image-keyboard-response","606","623424","0.0-4.0-1.195","10","Low_HMMActual","null","","","","Images/WhiteBeadChoice.png","null"
"image-keyboard-response","607","624065","0.0-4.0-2.195","10","Low_HMMActual","null","","","","Images/WhiteBeadChoiceWrong.png","null"
"image-keyboard-response","608","624454","0.0-4.0-0.196","10","Low_HMMActual","386","","","","Images/NewTrialBC.png","39"
"image-keyboard-response","609","624855","0.0-4.0-1.196","10","Low_HMMActual","null","","","","Images/WhiteBeadChoice.png","null"
"image-keyboard-response","610","625555","0.0-4.0-2.196","10","Low_HMMActual","null","","","","Images/WhiteBeadChoiceCorrect.png","null"
"image-keyboard-response","611","625854","0.0-4.0-0.197","10","Low_HMMActual","296","","","","Images/NewTrialWC.png","39"
"image-keyboard-response","612","626254","0.0-4.0-1.197","10","Low_HMMActual","null","","","","Images/WhiteBeadChoice.png","null"
"image-keyboard-response","613","626956","0.0-4.0-2.197","10","Low_HMMActual","null","","","","Images/WhiteBeadChoiceCorrect.png","null"
"image-keyboard-response","614","627271","0.0-4.0-0.198","10","Low_HMMActual","315","","","","Images/NewTrialWC.png","39"
"image-keyboard-response","615","627673","0.0-4.0-1.198","10","Low_HMMActual","null","","","","Images/WhiteBeadChoice.png","null"
"image-keyboard-response","616","628374","0.0-4.0-2.198","10","Low_HMMActual","null","","","","Images/WhiteBeadChoiceWrong.png","null"
"image-keyboard-response","617","629197","0.0-4.0-0.199","10","Low_HMMActual","822","","","","Images/NewTrialBC.png","39"
"image-keyboard-response","618","629599","0.0-4.0-1.199","10","Low_HMMActual","null","","","","Images/WhiteBeadChoice.png","null"
"image-keyboard-response","619","630300","0.0-4.0-2.199","10","Low_HMMActual","null","","","","Images/WhiteBeadChoiceCorrect.png","null"
"image-keyboard-response","620","630587","0.0-4.0-0.200","10","Low_HMMActual","286","","","","Images/NewTrialWC.png","39"
"image-keyboard-response","621","630989","0.0-4.0-1.200","10","Low_HMMActual","null","","","","Images/WhiteBeadChoice.png","null"
"image-keyboard-response","622","631690","0.0-4.0-2.200","10","Low_HMMActual","null","","","","Images/WhiteBeadChoiceWrong.png","null"
"image-keyboard-response","623","632528","0.0-4.0-0.201","10","Low_HMMActual","838","","","","Images/NewTrialBC.png","39"
"image-keyboard-response","624","632930","0.0-4.0-1.201","10","Low_HMMActual","null","","","","Images/WhiteBeadChoice.png","null"
"image-keyboard-response","625","633632","0.0-4.0-2.201","10","Low_HMMActual","null","","","","Images/WhiteBeadChoiceCorrect.png","null"
"image-keyboard-response","626","633945","0.0-4.0-0.202","10","Low_HMMActual","311","","","","Images/NewTrialWC.png","39"
"image-keyboard-response","627","634345","0.0-4.0-1.202","10","Low_HMMActual","null","","","","Images/WhiteBeadChoice.png","null"
"image-keyboard-response","628","635047","0.0-4.0-2.202","10","Low_HMMActual","null","","","","Images/WhiteBeadChoiceCorrect.png","null"
"image-keyboard-response","629","635345","0.0-4.0-0.203","10","Low_HMMActual","297","","","","Images/NewTrialWC.png","39"
"image-keyboard-response","630","635747","0.0-4.0-1.203","10","Low_HMMActual","null","","","","Images/WhiteBeadChoice.png","null"
"image-keyboard-response","631","636447","0.0-4.0-2.203","10","Low_HMMActual","null","","","","Images/WhiteBeadChoiceCorrect.png","null"
"image-keyboard-response","632","636751","0.0-4.0-0.204","10","Low_HMMActual","303","","","","Images/NewTrialWC.png","39"
"image-keyboard-response","633","637153","0.0-4.0-1.204","10","Low_HMMActual","null","","","","Images/WhiteBeadChoice.png","null"
"image-keyboard-response","634","637854","0.0-4.0-2.204","10","Low_HMMActual","null","","","","Images/WhiteBeadChoiceWrong.png","null"
"image-keyboard-response","635","638501","0.0-4.0-0.205","10","Low_HMMActual","647","","","","Images/NewTrialBC.png","39"
"image-keyboard-response","636","638903","0.0-4.0-1.205","10","Low_HMMActual","null","","","","Images/WhiteBeadChoice.png","null"
"image-keyboard-response","637","639604","0.0-4.0-2.205","10","Low_HMMActual","null","","","","Images/WhiteBeadChoiceCorrect.png","null"
"image-keyboard-response","638","639913","0.0-4.0-0.206","10","Low_HMMActual","309","","","","Images/NewTrialWC.png","39"
"image-keyboard-response","639","640315","0.0-4.0-1.206","10","Low_HMMActual","null","","","","Images/WhiteBeadChoice.png","null"
"image-keyboard-response","640","641016","0.0-4.0-2.206","10","Low_HMMActual","null","","","","Images/WhiteBeadChoiceCorrect.png","null"
"image-keyboard-response","641","641257","0.0-4.0-0.207","10","Low_HMMActual","240","","","","Images/NewTrialWC.png","39"
"image-keyboard-response","642","641658","0.0-4.0-1.207","10","Low_HMMActual","null","","","","Images/WhiteBeadChoice.png","null"
"image-keyboard-response","643","642359","0.0-4.0-2.207","10","Low_HMMActual","null","","","","Images/WhiteBeadChoiceCorrect.png","null"
"image-keyboard-response","644","642599","0.0-4.0-0.208","10","Low_HMMActual","239","","","","Images/NewTrialWC.png","39"
"image-keyboard-response","645","643000","0.0-4.0-1.208","10","Low_HMMActual","null","","","","Images/WhiteBeadChoice.png","null"
"image-keyboard-response","646","643703","0.0-4.0-2.208","10","Low_HMMActual","null","","","","Images/WhiteBeadChoiceCorrect.png","null"
"image-keyboard-response","647","643844","0.0-4.0-0.209","10","Low_HMMActual","140","","","","Images/NewTrialWC.png","39"
"image-keyboard-response","648","644245","0.0-4.0-1.209","10","Low_HMMActual","null","","","","Images/WhiteBeadChoice.png","null"
"image-keyboard-response","649","644948","0.0-4.0-2.209","10","Low_HMMActual","null","","","","Images/WhiteBeadChoiceWrong.png","null"
"image-keyboard-response","650","645289","0.0-4.0-0.210","10","Low_HMMActual","340","","","","Images/NewTrialBC.png","39"
"image-keyboard-response","651","645690","0.0-4.0-1.210","10","Low_HMMActual","null","","","","Images/WhiteBeadChoice.png","null"
"image-keyboard-response","652","646289","0.0-4.0-2.210","10","Low_HMMActual","null","","","","Images/WhiteBeadChoiceCorrect.png","null"
"image-keyboard-response","653","646585","0.0-4.0-0.211","10","Low_HMMActual","294","","","","Images/NewTrialWC.png","39"
"image-keyboard-response","654","646987","0.0-4.0-1.211","10","Low_HMMActual","null","","","","Images/WhiteBeadChoice.png","null"
"image-keyboard-response","655","647689","0.0-4.0-2.211","10","Low_HMMActual","null","","","","Images/WhiteBeadChoiceCorrect.png","null"
"image-keyboard-response","656","647811","0.0-4.0-0.212","10","Low_HMMActual","121","","","","Images/NewTrialWC.png","39"
"image-keyboard-response","657","648212","0.0-4.0-1.212","10","Low_HMMActual","null","","","","Images/WhiteBeadChoice.png","null"
"image-keyboard-response","658","648913","0.0-4.0-2.212","10","Low_HMMActual","null","","","","Images/WhiteBeadChoiceWrong.png","null"
"image-keyboard-response","659","649027","0.0-4.0-0.213","10","Low_HMMActual","114","","","","Images/NewTrialBC.png","39"
"image-keyboard-response","660","649429","0.0-4.0-1.213","10","Low_HMMActual","null","","","","Images/WhiteBeadChoice.png","null"
"image-keyboard-response","661","650129","0.0-4.0-2.213","10","Low_HMMActual","null","","","","Images/WhiteBeadChoiceCorrect.png","null"
"image-keyboard-response","662","650361","0.0-4.0-0.214","10","Low_HMMActual","230","","","","Images/NewTrialWC.png","39"
"image-keyboard-response","663","650762","0.0-4.0-1.214","10","Low_HMMActual","null","","","","Images/WhiteBeadChoice.png","null"
"image-keyboard-response","664","651463","0.0-4.0-2.214","10","Low_HMMActual","null","","","","Images/WhiteBeadChoiceCorrect.png","null"
"image-keyboard-response","665","651705","0.0-4.0-0.215","10","Low_HMMActual","241","","","","Images/NewTrialWC.png","39"
"image-keyboard-response","666","652107","0.0-4.0-1.215","10","Low_HMMActual","null","","","","Images/WhiteBeadChoice.png","null"
"image-keyboard-response","667","652808","0.0-4.0-2.215","10","Low_HMMActual","null","","","","Images/WhiteBeadChoiceCorrect.png","null"
"image-keyboard-response","668","652969","0.0-4.0-0.216","10","Low_HMMActual","160","","","","Images/NewTrialWC.png","39"
"image-keyboard-response","669","653370","0.0-4.0-1.216","10","Low_HMMActual","null","","","","Images/WhiteBeadChoice.png","null"
"image-keyboard-response","670","654023","0.0-4.0-2.216","10","Low_HMMActual","null","","","","Images/WhiteBeadChoiceCorrect.png","null"
"image-keyboard-response","671","654193","0.0-4.0-0.217","10","Low_HMMActual","169","","","","Images/NewTrialWC.png","39"
"image-keyboard-response","672","654594","0.0-4.0-1.217","10","Low_HMMActual","null","","","","Images/WhiteBeadChoice.png","null"
"image-keyboard-response","673","655296","0.0-4.0-2.217","10","Low_HMMActual","null","","","","Images/WhiteBeadChoiceCorrect.png","null"
"image-keyboard-response","674","655430","0.0-4.0-0.218","10","Low_HMMActual","133","","","","Images/NewTrialWC.png","39"
"image-keyboard-response","675","655831","0.0-4.0-1.218","10","Low_HMMActual","null","","","","Images/WhiteBeadChoice.png","null"
"image-keyboard-response","676","656532","0.0-4.0-2.218","10","Low_HMMActual","null","","","","Images/WhiteBeadChoiceCorrect.png","null"
"image-keyboard-response","677","656661","0.0-4.0-0.219","10","Low_HMMActual","127","","","","Images/NewTrialWC.png","39"
"image-keyboard-response","678","657062","0.0-4.0-1.219","10","Low_HMMActual","null","","","","Images/WhiteBeadChoice.png","null"
"image-keyboard-response","679","657762","0.0-4.0-2.219","10","Low_HMMActual","null","","","","Images/WhiteBeadChoiceWrong.png","null"
"image-keyboard-response","680","658086","0.0-4.0-0.220","10","Low_HMMActual","323","","","","Images/NewTrialBC.png","39"
"image-keyboard-response","681","658488","0.0-4.0-1.220","10","Low_HMMActual","null","","","","Images/WhiteBeadChoice.png","null"
"image-keyboard-response","682","659188","0.0-4.0-2.220","10","Low_HMMActual","null","","","","Images/WhiteBeadChoiceCorrect.png","null"
"image-keyboard-response","683","659479","0.0-4.0-0.221","10","Low_HMMActual","288","","","","Images/NewTrialWC.png","39"
"image-keyboard-response","684","659879","0.0-4.0-1.221","10","Low_HMMActual","null","","","","Images/WhiteBeadChoice.png","null"
"image-keyboard-response","685","660580","0.0-4.0-2.221","10","Low_HMMActual","null","","","","Images/WhiteBeadChoiceWrong.png","null"
"image-keyboard-response","686","660939","0.0-4.0-0.222","10","Low_HMMActual","357","","","","Images/NewTrialBC.png","39"
"image-keyboard-response","687","661341","0.0-4.0-1.222","10","Low_HMMActual","null","","","","Images/WhiteBeadChoice.png","null"
"image-keyboard-response","688","662042","0.0-4.0-2.222","10","Low_HMMActual","null","","","","Images/WhiteBeadChoiceCorrect.png","null"
"image-keyboard-response","689","662361","0.0-4.0-0.223","10","Low_HMMActual","318","","","","Images/NewTrialWC.png","39"
"image-keyboard-response","690","662763","0.0-4.0-1.223","10","Low_HMMActual","null","","","","Images/WhiteBeadChoice.png","null"
"image-keyboard-response","691","663464","0.0-4.0-2.223","10","Low_HMMActual","null","","","","Images/WhiteBeadChoiceCorrect.png","null"
"image-keyboard-response","692","663680","0.0-4.0-0.224","10","Low_HMMActual","278","","","","Images/NewTrialWC.png","39"
"image-keyboard-response","693","664081","0.0-4.0-1.224","10","Low_HMMActual","null","","","","Images/WhiteBeadChoice.png","null"
"image-keyboard-response","694","664781","0.0-4.0-2.224","10","Low_HMMActual","null","","","","Images/WhiteBeadChoiceCorrect.png","null"
"image-keyboard-response","695","665099","0.0-4.0-0.225","10","Low_HMMActual","315","","","","Images/NewTrialWC.png","39"
"image-keyboard-response","696","665501","0.0-4.0-1.225","10","Low_HMMActual","null","","","","Images/WhiteBeadChoice.png","null"
"image-keyboard-response","697","666202","0.0-4.0-2.225","10","Low_HMMActual","618","","","","Images/WhiteBeadChoiceCorrect.png","39"
"image-keyboard-response","698","666689","0.0-4.0-0.226","10","Low_HMMActual","486","","","","Images/NewTrialWC.png","39"
"image-keyboard-response","699","667089","0.0-4.0-1.226","10","Low_HMMActual","null","","","","Images/WhiteBeadChoice.png","null"
"image-keyboard-response","700","667791","0.0-4.0-2.226","10","Low_HMMActual","null","","","","Images/WhiteBeadChoiceCorrect.png","null"
"image-keyboard-response","701","667922","0.0-4.0-0.227","10","Low_HMMActual","130","","","","Images/NewTrialWC.png","39"
"image-keyboard-response","702","668324","0.0-4.0-1.227","10","Low_HMMActual","null","","","","Images/WhiteBeadChoice.png","null"
"image-keyboard-response","703","669025","0.0-4.0-2.227","10","Low_HMMActual","null","","","","Images/WhiteBeadChoiceCorrect.png","null"
"image-keyboard-response","704","669146","0.0-4.0-0.228","10","Low_HMMActual","120","","","","Images/NewTrialWC.png","39"
"image-keyboard-response","705","669547","0.0-4.0-1.228","10","Low_HMMActual","null","","","","Images/WhiteBeadChoice.png","null"
"image-keyboard-response","706","670248","0.0-4.0-2.228","10","Low_HMMActual","null","","","","Images/WhiteBeadChoiceCorrect.png","null"
"image-keyboard-response","707","670558","0.0-4.0-0.229","10","Low_HMMActual","308","","","","Images/NewTrialWC.png","39"
"image-keyboard-response","708","670959","0.0-4.0-1.229","10","Low_HMMActual","null","","","","Images/WhiteBeadChoice.png","null"
"image-keyboard-response","709","671660","0.0-4.0-2.229","10","Low_HMMActual","null","","","","Images/WhiteBeadChoiceCorrect.png","null"
"image-keyboard-response","710","671953","0.0-4.0-0.230","10","Low_HMMActual","292","","","","Images/NewTrialWC.png","39"
"image-keyboard-response","711","672353","0.0-4.0-1.230","10","Low_HMMActual","null","","","","Images/WhiteBeadChoice.png","null"
"image-keyboard-response","712","673055","0.0-4.0-2.230","10","Low_HMMActual","null","","","","Images/WhiteBeadChoiceWrong.png","null"
"image-keyboard-response","713","673360","0.0-4.0-0.231","10","Low_HMMActual","305","","","","Images/NewTrialBC.png","39"
"image-keyboard-response","714","673715","0.0-4.0-1.231","10","Low_HMMActual","null","","","","Images/WhiteBeadChoice.png","null"
"image-keyboard-response","715","674415","0.0-4.0-2.231","10","Low_HMMActual","null","","","","Images/WhiteBeadChoiceCorrect.png","null"
"image-keyboard-response","716","674715","0.0-4.0-0.232","10","Low_HMMActual","298","","","","Images/NewTrialWC.png","39"
"image-keyboard-response","717","675117","0.0-4.0-1.232","10","Low_HMMActual","null","","","","Images/WhiteBeadChoice.png","null"
"image-keyboard-response","718","675818","0.0-4.0-2.232","10","Low_HMMActual","null","","","","Images/WhiteBeadChoiceCorrect.png","null"
"image-keyboard-response","719","675961","0.0-4.0-0.233","10","Low_HMMActual","142","","","","Images/NewTrialWC.png","39"
"image-keyboard-response","720","676362","0.0-4.0-1.233","10","Low_HMMActual","null","","","","Images/WhiteBeadChoice.png","null"
"image-keyboard-response","721","677063","0.0-4.0-2.233","10","Low_HMMActual","null","","","","Images/WhiteBeadChoiceCorrect.png","null"
"image-keyboard-response","722","677292","0.0-4.0-0.234","10","Low_HMMActual","229","","","","Images/NewTrialWC.png","39"
"image-keyboard-response","723","677694","0.0-4.0-1.234","10","Low_HMMActual","null","","","","Images/WhiteBeadChoice.png","null"
"image-keyboard-response","724","678396","0.0-4.0-2.234","10","Low_HMMActual","null","","","","Images/WhiteBeadChoiceWrong.png","null"
"image-keyboard-response","725","678781","0.0-4.0-0.235","10","Low_HMMActual","383","","","","Images/NewTrialBC.png","39"
"image-keyboard-response","726","679182","0.0-4.0-1.235","10","Low_HMMActual","null","","","","Images/WhiteBeadChoice.png","null"
"image-keyboard-response","727","679884","0.0-4.0-2.235","10","Low_HMMActual","null","","","","Images/WhiteBeadChoiceWrong.png","null"
"image-keyboard-response","728","681073","0.0-4.0-0.236","10","Low_HMMActual","1189","","","","Images/NewTrialBC.png","39"
"image-keyboard-response","729","681475","0.0-4.0-1.236","10","Low_HMMActual","null","","","","Images/WhiteBeadChoice.png","null"
"image-keyboard-response","730","682176","0.0-4.0-2.236","10","Low_HMMActual","null","","","","Images/WhiteBeadChoiceCorrect.png","null"
"image-keyboard-response","731","682515","0.0-4.0-0.237","10","Low_HMMActual","338","","","","Images/NewTrialWC.png","39"
"image-keyboard-response","732","682916","0.0-4.0-1.237","10","Low_HMMActual","null","","","","Images/WhiteBeadChoice.png","null"
"image-keyboard-response","733","683634","0.0-4.0-2.237","10","Low_HMMActual","null","","","","Images/WhiteBeadChoiceCorrect.png","null"
"image-keyboard-response","734","683930","0.0-4.0-0.238","10","Low_HMMActual","333","","","","Images/NewTrialWC.png","39"
"image-keyboard-response","735","684331","0.0-4.0-1.238","10","Low_HMMActual","null","","","","Images/WhiteBeadChoice.png","null"
"image-keyboard-response","736","685032","0.0-4.0-2.238","10","Low_HMMActual","null","","","","Images/WhiteBeadChoiceCorrect.png","null"
"image-keyboard-response","737","685356","0.0-4.0-0.239","10","Low_HMMActual","323","","","","Images/NewTrialWC.png","39"
"image-keyboard-response","738","685758","0.0-4.0-1.239","10","Low_HMMActual","null","","","","Images/WhiteBeadChoice.png","null"
"image-keyboard-response","739","686458","0.0-4.0-2.239","10","Low_HMMActual","null","","","","Images/WhiteBeadChoiceCorrect.png","null"
"image-keyboard-response","740","686755","0.0-4.0-0.240","10","Low_HMMActual","294","","","","Images/NewTrialWC.png","39"
"image-keyboard-response","741","687156","0.0-4.0-1.240","10","Low_HMMActual","null","","","","Images/WhiteBeadChoice.png","null"
"image-keyboard-response","742","687857","0.0-4.0-2.240","10","Low_HMMActual","null","","","","Images/WhiteBeadChoiceCorrect.png","null"
"image-keyboard-response","743","688122","0.0-4.0-0.241","10","Low_HMMActual","264","","","","Images/NewTrialWC.png","39"
"image-keyboard-response","744","688524","0.0-4.0-1.241","10","Low_HMMActual","null","","","","Images/WhiteBeadChoice.png","null"
"image-keyboard-response","745","689225","0.0-4.0-2.241","10","Low_HMMActual","null","","","","Images/WhiteBeadChoiceCorrect.png","null"
"image-keyboard-response","746","689511","0.0-4.0-0.242","10","Low_HMMActual","284","","","","Images/NewTrialWC.png","39"
"image-keyboard-response","747","689912","0.0-4.0-1.242","10","Low_HMMActual","null","","","","Images/WhiteBeadChoice.png","null"
"image-keyboard-response","748","690613","0.0-4.0-2.242","10","Low_HMMActual","null","","","","Images/WhiteBeadChoiceWrong.png","null"
