"trial_type","trial_index","time_elapsed","internal_node_id","Script_Picker","rt","url","responses","question_order","stimulus","key_press"
"pavlovia","0","2","0.0-0.0","1","","","","","",""
"external-html","1","6063","0.0-1.0-0.0","1","5983.2750000059605","consent.html","","","",""
"survey-multi-choice","2","15549","0.0-1.0-1.0","1","9480.814999900758","","{""Q0"":""Female"",""Q1"":""White""}","[0,1]","",""
"survey-text","3","18514","0.0-1.0-2.0","1","2959.3800001312047","","{""Q0"":""21""}","","",""
"survey-text","4","25340","0.0-1.0-3.0","1","6718.6600000131875","","{""Q0"":""5bef1e56c19fcd0001cdf4c7""}","","",""
"html-keyboard-response","5","46036","0.0-2.0-0.0","1","20587.520000059158","","","","<div class=""container"" style=""height:800px;width:800px;display:flex;flex-direction:column;justify-content:center;align-items:center;text-align:center;font-weight:normal;font-family:Arial;font-size:20px""><p>In this task you will see black or white beads being pulled from jars. <br><br>On each trial, a bead will be pulled from one of two jars. Once you see this bead, your goal is to predict the color of NEXT bead that will be pulled. <br> <br>Every time you correctly guess the color of the NEXT bead, you will get a point. The more points you get, the higher your win bonus at the end of the experiment <br><br>Press the SPACEBAR to continue.</p><div>","32"
"html-keyboard-response","6","68059","0.0-2.0-1.0","1","22021.075000055134","","","","<div class=""container"" style=""height:800px;width:800px;display:flex;flex-direction:column;justify-content:center;align-items:center;text-align:center;font-weight:normal;font-family:Arial;font-size:20px""><p>There are two types of jars:<br><br>1) Jars filled with ONLY white or black beads<br><br>2) Jars filled with 90% white or black beads and 10% of the opposite color mixed in<br><br>Press the SPACEBAR to continue. </p><div>","32"
"image-keyboard-response","7","75475","0.0-2.0-2.0","1","7413.890000199899","","","","resources/WhiteJar_MM.png","32"
"image-keyboard-response","8","77995","0.0-2.0-3.0","1","2518.0399999953806","","","","resources/BlackJar_MM.png","32"
"image-keyboard-response","9","81215","0.0-2.0-4.0","1","3219.054999994114","","","","resources/WhiteJar_HMM.png","32"
"image-keyboard-response","10","83215","0.0-2.0-5.0","1","1998.735000146553","","","","resources/BlackJar_HMM.png","32"
"html-keyboard-response","11","94464","0.0-2.0-6.0","1","11247.334999963641","","","","<div class=""container"" style=""height:800px;width:800px;display:flex;flex-direction:column;justify-content:center;align-items:center;text-align:center;font-weight:normal;font-family:Arial;font-size:20px""><p>There will be four blocks of trials. In each block, you will see the pair of jars that beads will be pulled from.<br><br>The pair of jars used in each block will ONLY ever be 100% white and black jars, or 90/10 mixed jars. <br><br>The pair of jars in each block will not change until the next block.<br><br>Here are examples of what you will see on each trial.<br><br>Press the SPACEBAR to continue. </p><div>","32"
"image-keyboard-response","12","99851","0.0-2.0-7.0","1","5385.974999982864","","","","Images/NoChoiceMM.png","32"
"image-keyboard-response","13","106641","0.0-2.0-8.0","1","6788.3949999231845","","","","Images/NoChoice.png","32"
"html-keyboard-response","14","115387","0.0-2.0-9.0","1","8745.170000009239","","","","<div class=""container"" style=""height:800px;width:800px;display:flex;flex-direction:column;justify-content:center;align-items:center;text-align:center;font-weight:normal;font-family:Arial;font-size:20px""><p> The jar the beads are pulled from is NOT choosen at random on each trial.<br><br>After each prediction, there will be a chance that the jars will switch, and that the next bead will be pulled from the opposite jar as the previous trial.<br><br>In each block, the chance that a jar will switch will either be LOW (the jars will not switch very often), or HIGH (the jars will switch almost all the time).<br><br>At the start of each block, you will be told the probability that the jars will switch on each trial. This switch probability will stay constant throughout the block.<br><br>Press the SPACEBAR to continue. </p><div>","32"
"image-keyboard-response","15","123536","0.0-2.0-10.0","1","8147.275000112131","","","","Images/TutorialBlackJarDrawMM.png","32"
"image-keyboard-response","16","130054","0.0-2.0-11.0","1","6516.924999887124","","","","Images/TutorialWhiteJarDrawMM.png","32"
"html-keyboard-response","17","161993","0.0-2.0-12.0","1","31937.8199998755","","","","<div class=""container"" style=""height:800px;width:800px;display:flex;flex-direction:column;justify-content:center;align-items:center;text-align:center;font-weight:normal;font-family:Arial;font-size:20px""><p> When the jars are filled with only one color, each bead is guaranteed to have come from the same-colored jar. During these blocks, the best strategy is to use the jar switch probability to predict whether the next bead will be the same or different from the previous trial.<br><br> When the jars contain a mix of black and white beads, you will sometimes see black beads pulled from the mostly white jar, and white beads pulled from the mostly black jar. <br><br>Here is an example.<br><br>Press the SPACEBAR to continue.  </p><div>","32"
"image-keyboard-response","18","167641","0.0-2.0-13.0","1","5646.580000175163","","","","Images/TutorialWhiteJarDrawHMMC.png","32"
"image-keyboard-response","19","171022","0.0-2.0-14.0","1","3379.5199999585748","","","","Images/TutorialBlackJarDrawHMMC.png","32"
"image-keyboard-response","20","174141","0.0-2.0-15.0","1","3117.6449998747557","","","","Images/TutorialBlackJarDrawHMMI.png","32"
"html-keyboard-response","21","186374","0.0-2.0-16.0","1","12231.915000127628","","","","<div class=""container"" style=""height:800px;width:800px;display:flex;flex-direction:column;justify-content:center;align-items:center;text-align:center;font-weight:normal;font-family:Arial;font-size:20px""><p> As you observed, a white bead was pulled from a 90% white jar, the jars switched and a black bead was pulled from the 90% black jar, but then low-probability white bead was pulled from the 90% black jar. <br><br>In these mixed-jar blocks, you will first have to figure out which jar the current bead was pulled from, then use the jar switch probability to predict the color of the next bead.<br><br>Press SPACEBAR to conitnue.</p><div>","32"
"html-keyboard-response","22","188805","0.0-2.0-17.0","1","2429.8399998806417","","","","<div class=""container"" style=""height:800px;width:800px;display:flex;flex-direction:column;justify-content:center;align-items:center;text-align:center;font-weight:normal;font-family:Arial;font-size:20px""><p> You will now be given a 3 question quiz to make sure you understand the fundamentals. </p><div>","32"
"image-keyboard-response","23","203643","0.0-2.0-18.0","1","14836.265000049025","","","","Images/TutorialQuestion1.png","39"
"image-keyboard-response","24","223885","0.0-2.0-19.0","1","16049.610000103712","","","","Images/TutorialQuestion2.png","38"
"html-keyboard-response","25","234667","0.0-3.0","1","7577.9500000644475","","","","<div class=""container"" style=""height:800px;width:800px;display:flex;flex-direction:column;justify-content:center;align-items:center;text-align:center;font-weight:normal;font-family:Arial;font-size:20px""><p>Loading episode&hellip;</p><div>","32"
"image-keyboard-response","26","240479","0.0-4.0-0.0","1","5809.660000028089","","","","Images/NoChoice.png","39"
"image-keyboard-response","27","240736","0.0-4.0-1.0","1","null","","","","Images/WhiteBeadChoice.png","null"
"image-keyboard-response","28","241238","0.0-4.0-2.0","1","null","","","","Images/WhiteBeadChoiceWrong.png","null"
"image-keyboard-response","29","242730","0.0-4.0-0.1","1","1489.5800000522286","","","","Images/NewTrialBC.png","39"
"image-keyboard-response","30","242983","0.0-4.0-1.1","1","null","","","","Images/WhiteBeadChoice.png","null"
"image-keyboard-response","31","243485","0.0-4.0-2.1","1","null","","","","Images/WhiteBeadChoiceWrong.png","null"
"image-keyboard-response","32","245323","0.0-4.0-0.2","1","1836.1750000622123","","","","Images/NewTrialBC.png","39"
"image-keyboard-response","33","245577","0.0-4.0-1.2","1","null","","","","Images/WhiteBeadChoice.png","null"
"image-keyboard-response","34","246082","0.0-4.0-2.2","1","null","","","","Images/WhiteBeadChoiceCorrect.png","null"
"image-keyboard-response","35","247405","0.0-4.0-0.3","1","1321.409999858588","","","","Images/NewTrialWC.png","37"
"image-keyboard-response","36","247660","0.0-4.0-1.3","1","null","","","","Images/BlackBeadChoice.png","null"
"image-keyboard-response","37","248165","0.0-4.0-2.3","1","null","","","","Images/BlackBeadChoiceCorrect.png","null"
"image-keyboard-response","38","249598","0.0-4.0-0.4","1","1431.7550000268966","","","","Images/NewTrialBC.png","37"
"image-keyboard-response","39","249855","0.0-4.0-1.4","1","null","","","","Images/BlackBeadChoice.png","null"
"image-keyboard-response","40","250358","0.0-4.0-2.4","1","null","","","","Images/BlackBeadChoiceWrong.png","null"
"image-keyboard-response","41","252186","0.0-4.0-0.5","1","1826.3100001495332","","","","Images/NewTrialWC.png","37"
"image-keyboard-response","42","252440","0.0-4.0-1.5","1","null","","","","Images/BlackBeadChoice.png","null"
"image-keyboard-response","43","252947","0.0-4.0-2.5","1","null","","","","Images/BlackBeadChoiceCorrect.png","null"
"image-keyboard-response","44","254070","0.0-4.0-0.6","1","1121.7650000471622","","","","Images/NewTrialBC.png","39"
"image-keyboard-response","45","254323","0.0-4.0-1.6","1","null","","","","Images/WhiteBeadChoice.png","null"
"image-keyboard-response","46","254829","0.0-4.0-2.6","1","null","","","","Images/WhiteBeadChoiceCorrect.png","null"
"image-keyboard-response","47","257216","0.0-4.0-0.7","1","2384.9750000517815","","","","Images/NewTrialWC.png","39"
"image-keyboard-response","48","257469","0.0-4.0-1.7","1","null","","","","Images/WhiteBeadChoice.png","null"
"image-keyboard-response","49","257971","0.0-4.0-2.7","1","null","","","","Images/WhiteBeadChoiceCorrect.png","null"
"image-keyboard-response","50","258758","0.0-4.0-0.8","1","785.2849999908358","","","","Images/NewTrialWC.png","37"
"image-keyboard-response","51","259012","0.0-4.0-1.8","1","null","","","","Images/BlackBeadChoice.png","null"
"image-keyboard-response","52","259514","0.0-4.0-2.8","1","null","","","","Images/BlackBeadChoiceWrong.png","null"
"image-keyboard-response","53","260471","0.0-4.0-0.9","1","954.7749999910593","","","","Images/NewTrialWC.png","37"
"image-keyboard-response","54","260726","0.0-4.0-1.9","1","null","","","","Images/BlackBeadChoice.png","null"
"image-keyboard-response","55","261232","0.0-4.0-2.9","1","null","","","","Images/BlackBeadChoiceWrong.png","null"
"image-keyboard-response","56","262238","0.0-4.0-0.10","1","1004.9650000873953","","","","Images/NewTrialWC.png","37"
"image-keyboard-response","57","262492","0.0-4.0-1.10","1","null","","","","Images/BlackBeadChoice.png","null"
"image-keyboard-response","58","262996","0.0-4.0-2.10","1","null","","","","Images/BlackBeadChoiceCorrect.png","null"
"image-keyboard-response","59","263851","0.0-4.0-0.11","1","853.0800000298768","","","","Images/NewTrialBC.png","39"
"image-keyboard-response","60","264104","0.0-4.0-1.11","1","null","","","","Images/WhiteBeadChoice.png","null"
"image-keyboard-response","61","264608","0.0-4.0-2.11","1","null","","","","Images/WhiteBeadChoiceWrong.png","null"
"image-keyboard-response","62","265379","0.0-4.0-0.12","1","769.3900000303984","","","","Images/NewTrialBC.png","37"
"image-keyboard-response","63","265633","0.0-4.0-1.12","1","null","","","","Images/BlackBeadChoice.png","null"
"image-keyboard-response","64","266135","0.0-4.0-2.12","1","null","","","","Images/BlackBeadChoiceCorrect.png","null"
"image-keyboard-response","65","267387","0.0-4.0-0.13","1","1250.2950001507998","","","","Images/NewTrialBC.png","37"
"image-keyboard-response","66","267640","0.0-4.0-1.13","1","null","","","","Images/BlackBeadChoice.png","null"
"image-keyboard-response","67","268144","0.0-4.0-2.13","1","null","","","","Images/BlackBeadChoiceCorrect.png","null"
"image-keyboard-response","68","269527","0.0-4.0-0.14","1","1381.0799999628216","","","","Images/NewTrialBC.png","37"
"image-keyboard-response","69","269783","0.0-4.0-1.14","1","null","","","","Images/BlackBeadChoice.png","null"
"image-keyboard-response","70","270288","0.0-4.0-2.14","1","null","","","","Images/BlackBeadChoiceCorrect.png","null"
"image-keyboard-response","71","272434","0.0-4.0-0.15","1","2144.319999963045","","","","Images/NewTrialBC.png","39"
"image-keyboard-response","72","272687","0.0-4.0-1.15","1","null","","","","Images/WhiteBeadChoice.png","null"
"image-keyboard-response","73","273192","0.0-4.0-2.15","1","null","","","","Images/WhiteBeadChoiceCorrect.png","null"
"image-keyboard-response","74","274034","0.0-4.0-0.16","1","840.6949997879565","","","","Images/NewTrialWC.png","39"
"image-keyboard-response","75","274286","0.0-4.0-1.16","1","null","","","","Images/WhiteBeadChoice.png","null"
"image-keyboard-response","76","274791","0.0-4.0-2.16","1","null","","","","Images/WhiteBeadChoiceWrong.png","null"
"image-keyboard-response","77","275619","0.0-4.0-0.17","1","825.6300000939518","","","","Images/NewTrialBC.png","37"
"image-keyboard-response","78","275870","0.0-4.0-1.17","1","null","","","","Images/BlackBeadChoice.png","null"
"image-keyboard-response","79","276373","0.0-4.0-2.17","1","null","","","","Images/BlackBeadChoiceWrong.png","null"
"image-keyboard-response","80","277294","0.0-4.0-0.18","1","919.3750000558794","","","","Images/NewTrialWC.png","37"
"image-keyboard-response","81","277546","0.0-4.0-1.18","1","null","","","","Images/BlackBeadChoice.png","null"
"image-keyboard-response","82","278051","0.0-4.0-2.18","1","null","","","","Images/BlackBeadChoiceCorrect.png","null"
"image-keyboard-response","83","279039","0.0-4.0-0.19","1","986.1949998885393","","","","Images/NewTrialBC.png","37"
"image-keyboard-response","84","279292","0.0-4.0-1.19","1","null","","","","Images/BlackBeadChoice.png","null"
"image-keyboard-response","85","279795","0.0-4.0-2.19","1","null","","","","Images/BlackBeadChoiceCorrect.png","null"
"image-keyboard-response","86","280543","0.0-4.0-0.20","1","746.2299999315292","","","","Images/NewTrialBC.png","37"
"image-keyboard-response","87","280794","0.0-4.0-1.20","1","null","","","","Images/BlackBeadChoice.png","null"
"image-keyboard-response","88","281301","0.0-4.0-2.20","1","null","","","","Images/BlackBeadChoiceWrong.png","null"
"image-keyboard-response","89","282030","0.0-4.0-0.21","1","727.8099998366088","","","","Images/NewTrialWC.png","39"
"image-keyboard-response","90","282283","0.0-4.0-1.21","1","null","","","","Images/WhiteBeadChoice.png","null"
"image-keyboard-response","91","282787","0.0-4.0-2.21","1","null","","","","Images/WhiteBeadChoiceWrong.png","null"
"image-keyboard-response","92","283791","0.0-4.0-0.22","1","1002.3099998943508","","","","Images/NewTrialBC.png","39"
"image-keyboard-response","93","284043","0.0-4.0-1.22","1","null","","","","Images/WhiteBeadChoice.png","null"
"image-keyboard-response","94","284548","0.0-4.0-2.22","1","null","","","","Images/WhiteBeadChoiceWrong.png","null"
"image-keyboard-response","95","285126","0.0-4.0-0.23","1","577.95500010252","","","","Images/NewTrialBC.png","39"
"image-keyboard-response","96","285382","0.0-4.0-1.23","1","null","","","","Images/WhiteBeadChoice.png","null"
"image-keyboard-response","97","285884","0.0-4.0-2.23","1","null","","","","Images/WhiteBeadChoiceWrong.png","null"
"image-keyboard-response","98","286807","0.0-4.0-0.24","1","921.1549998726696","","","","Images/NewTrialBC.png","39"
"image-keyboard-response","99","287058","0.0-4.0-1.24","1","null","","","","Images/WhiteBeadChoice.png","null"
"image-keyboard-response","100","287560","0.0-4.0-2.24","1","null","","","","Images/WhiteBeadChoiceWrong.png","null"
"image-keyboard-response","101","288418","0.0-4.0-0.25","1","856.2499999534339","","","","Images/NewTrialBC.png","39"
"image-keyboard-response","102","288672","0.0-4.0-1.25","1","null","","","","Images/WhiteBeadChoice.png","null"
"image-keyboard-response","103","289174","0.0-4.0-2.25","1","null","","","","Images/WhiteBeadChoiceCorrect.png","null"
"image-keyboard-response","104","290995","0.0-4.0-0.26","1","1820.0100001413375","","","","Images/NewTrialWC.png","37"
"image-keyboard-response","105","291247","0.0-4.0-1.26","1","null","","","","Images/BlackBeadChoice.png","null"
"image-keyboard-response","106","291750","0.0-4.0-2.26","1","null","","","","Images/BlackBeadChoiceCorrect.png","null"
"image-keyboard-response","107","292646","0.0-4.0-0.27","1","894.3699998781085","","","","Images/NewTrialBC.png","39"
"image-keyboard-response","108","292901","0.0-4.0-1.27","1","null","","","","Images/WhiteBeadChoice.png","null"
"image-keyboard-response","109","293404","0.0-4.0-2.27","1","null","","","","Images/WhiteBeadChoiceCorrect.png","null"
"image-keyboard-response","110","294454","0.0-4.0-0.28","1","1049.2000000085682","","","","Images/NewTrialWC.png","39"
"image-keyboard-response","111","294705","0.0-4.0-1.28","1","null","","","","Images/WhiteBeadChoice.png","null"
"image-keyboard-response","112","295211","0.0-4.0-2.28","1","null","","","","Images/WhiteBeadChoiceWrong.png","null"
"image-keyboard-response","113","295858","0.0-4.0-0.29","1","645.0750001240522","","","","Images/NewTrialBC.png","37"
"image-keyboard-response","114","296110","0.0-4.0-1.29","1","null","","","","Images/BlackBeadChoice.png","null"
"image-keyboard-response","115","296618","0.0-4.0-2.29","1","null","","","","Images/BlackBeadChoiceCorrect.png","null"
"image-keyboard-response","116","298131","0.0-4.0-0.30","1","1510.6949999462813","","","","Images/NewTrialBC.png","37"
"image-keyboard-response","117","298385","0.0-4.0-1.30","1","null","","","","Images/BlackBeadChoice.png","null"
"image-keyboard-response","118","298887","0.0-4.0-2.30","1","null","","","","Images/BlackBeadChoiceCorrect.png","null"
"image-keyboard-response","119","301576","0.0-4.0-0.31","1","2687.2700001113117","","","","Images/NewTrialBC.png","37"
"image-keyboard-response","120","301830","0.0-4.0-1.31","1","null","","","","Images/BlackBeadChoice.png","null"
"image-keyboard-response","121","302333","0.0-4.0-2.31","1","null","","","","Images/BlackBeadChoiceCorrect.png","null"
"image-keyboard-response","122","304234","0.0-4.0-0.32","1","1899.7250001411885","","","","Images/NewTrialBC.png","37"
"image-keyboard-response","123","304490","0.0-4.0-1.32","1","null","","","","Images/BlackBeadChoice.png","null"
"image-keyboard-response","124","304994","0.0-4.0-2.32","1","null","","","","Images/BlackBeadChoiceCorrect.png","null"
"image-keyboard-response","125","305800","0.0-4.0-0.33","1","804.1349998675287","","","","Images/NewTrialBC.png","39"
"image-keyboard-response","126","306056","0.0-4.0-1.33","1","null","","","","Images/WhiteBeadChoice.png","null"
"image-keyboard-response","127","306559","0.0-4.0-2.33","1","null","","","","Images/WhiteBeadChoiceWrong.png","null"
"image-keyboard-response","128","307286","0.0-4.0-0.34","1","725.4649999085814","","","","Images/NewTrialBC.png","39"
"image-keyboard-response","129","307539","0.0-4.0-1.34","1","null","","","","Images/WhiteBeadChoice.png","null"
"image-keyboard-response","130","308043","0.0-4.0-2.34","1","null","","","","Images/WhiteBeadChoiceCorrect.png","null"
"image-keyboard-response","131","309302","0.0-4.0-0.35","1","1258.1150000914931","","","","Images/NewTrialWC.png","37"
"image-keyboard-response","132","309555","0.0-4.0-1.35","1","null","","","","Images/BlackBeadChoice.png","null"
"image-keyboard-response","133","310058","0.0-4.0-2.35","1","null","","","","Images/BlackBeadChoiceWrong.png","null"
"image-keyboard-response","134","310851","0.0-4.0-0.36","1","791.3599999155849","","","","Images/NewTrialWC.png","39"
"image-keyboard-response","135","311103","0.0-4.0-1.36","1","null","","","","Images/WhiteBeadChoice.png","null"
"image-keyboard-response","136","311607","0.0-4.0-2.36","1","null","","","","Images/WhiteBeadChoiceCorrect.png","null"
"image-keyboard-response","137","312415","0.0-4.0-0.37","1","806.7350001074374","","","","Images/NewTrialWC.png","37"
"image-keyboard-response","138","312671","0.0-4.0-1.37","1","null","","","","Images/BlackBeadChoice.png","null"
"image-keyboard-response","139","313173","0.0-4.0-2.37","1","null","","","","Images/BlackBeadChoiceCorrect.png","null"
"image-keyboard-response","140","314951","0.0-4.0-0.38","1","1776.2500001117587","","","","Images/NewTrialBC.png","37"
"image-keyboard-response","141","315203","0.0-4.0-1.38","1","null","","","","Images/BlackBeadChoice.png","null"
"image-keyboard-response","142","315706","0.0-4.0-2.38","1","null","","","","Images/BlackBeadChoiceWrong.png","null"
"image-keyboard-response","143","323707","0.0-4.0-0.39","1","7998.964999802411","","","","Images/NewTrialWC.png","39"
"image-keyboard-response","144","323960","0.0-4.0-1.39","1","null","","","","Images/WhiteBeadChoice.png","null"
"image-keyboard-response","145","324464","0.0-4.0-2.39","1","null","","","","Images/WhiteBeadChoiceWrong.png","null"
"image-keyboard-response","146","325933","0.0-4.0-0.40","1","1467.4050000030547","","","","Images/NewTrialBC.png","37"
"image-keyboard-response","147","326189","0.0-4.0-1.40","1","null","","","","Images/BlackBeadChoice.png","null"
"image-keyboard-response","148","326691","0.0-4.0-2.40","1","null","","","","Images/BlackBeadChoiceWrong.png","null"
"image-keyboard-response","149","327385","0.0-4.0-0.41","1","692.9549998603761","","","","Images/NewTrialWC.png","37"
"image-keyboard-response","150","327638","0.0-4.0-1.41","1","null","","","","Images/BlackBeadChoice.png","null"
"image-keyboard-response","151","328140","0.0-4.0-2.41","1","null","","","","Images/BlackBeadChoiceWrong.png","null"
"image-keyboard-response","152","329053","0.0-4.0-0.42","1","911.4550000522286","","","","Images/NewTrialWC.png","37"
"image-keyboard-response","153","329306","0.0-4.0-1.42","1","null","","","","Images/BlackBeadChoice.png","null"
"image-keyboard-response","154","329812","0.0-4.0-2.42","1","null","","","","Images/BlackBeadChoiceWrong.png","null"
"image-keyboard-response","155","330209","0.0-4.0-0.43","1","395.12500003911555","","","","Images/NewTrialWC.png","39"
"image-keyboard-response","156","330462","0.0-4.0-1.43","1","null","","","","Images/WhiteBeadChoice.png","null"
"image-keyboard-response","157","330965","0.0-4.0-2.43","1","null","","","","Images/WhiteBeadChoiceCorrect.png","null"
"image-keyboard-response","158","331593","0.0-4.0-0.44","1","626.810000045225","","","","Images/NewTrialWC.png","39"
"image-keyboard-response","159","331848","0.0-4.0-1.44","1","null","","","","Images/WhiteBeadChoice.png","null"
"image-keyboard-response","160","332353","0.0-4.0-2.44","1","null","","","","Images/WhiteBeadChoiceCorrect.png","null"
"image-keyboard-response","161","333154","0.0-4.0-0.45","1","799.4500000495464","","","","Images/NewTrialWC.png","39"
"image-keyboard-response","162","333410","0.0-4.0-1.45","1","null","","","","Images/WhiteBeadChoice.png","null"
"image-keyboard-response","163","333914","0.0-4.0-2.45","1","null","","","","Images/WhiteBeadChoiceCorrect.png","null"
"image-keyboard-response","164","334250","0.0-4.0-0.46","1","334.389999974519","","","","Images/NewTrialWC.png","39"
"image-keyboard-response","165","334504","0.0-4.0-1.46","1","null","","","","Images/WhiteBeadChoice.png","null"
"image-keyboard-response","166","335006","0.0-4.0-2.46","1","null","","","","Images/WhiteBeadChoiceWrong.png","null"
"image-keyboard-response","167","335850","0.0-4.0-0.47","1","842.1849999576807","","","","Images/NewTrialBC.png","37"
"image-keyboard-response","168","336103","0.0-4.0-1.47","1","null","","","","Images/BlackBeadChoice.png","null"
"image-keyboard-response","169","336610","0.0-4.0-2.47","1","null","","","","Images/BlackBeadChoiceCorrect.png","null"
"image-keyboard-response","170","337537","0.0-4.0-0.48","1","925.6649999879301","","","","Images/NewTrialBC.png","37"
"image-keyboard-response","171","337792","0.0-4.0-1.48","1","null","","","","Images/BlackBeadChoice.png","null"
"image-keyboard-response","172","338298","0.0-4.0-2.48","1","null","","","","Images/BlackBeadChoiceCorrect.png","null"
"image-keyboard-response","173","339085","0.0-4.0-0.49","1","785.7900001108646","","","","Images/NewTrialBC.png","37"
"image-keyboard-response","174","339341","0.0-4.0-1.49","1","null","","","","Images/BlackBeadChoice.png","null"
"image-keyboard-response","175","339844","0.0-4.0-2.49","1","null","","","","Images/BlackBeadChoiceCorrect.png","null"
"image-keyboard-response","176","340234","0.0-4.0-0.50","1","388.85500002652407","","","","Images/NewTrialBC.png","39"
"image-keyboard-response","177","340490","0.0-4.0-1.50","1","null","","","","Images/WhiteBeadChoice.png","null"
"image-keyboard-response","178","340993","0.0-4.0-2.50","1","null","","","","Images/WhiteBeadChoiceWrong.png","null"
"image-keyboard-response","179","341681","0.0-4.0-0.51","1","686.2549998331815","","","","Images/NewTrialBC.png","39"
"image-keyboard-response","180","341933","0.0-4.0-1.51","1","null","","","","Images/WhiteBeadChoice.png","null"
"image-keyboard-response","181","342435","0.0-4.0-2.51","1","null","","","","Images/WhiteBeadChoiceWrong.png","null"
"image-keyboard-response","182","343193","0.0-4.0-0.52","1","756.3699998427182","","","","Images/NewTrialBC.png","39"
"image-keyboard-response","183","343445","0.0-4.0-1.52","1","null","","","","Images/WhiteBeadChoice.png","null"
"image-keyboard-response","184","343949","0.0-4.0-2.52","1","null","","","","Images/WhiteBeadChoiceWrong.png","null"
"image-keyboard-response","185","344766","0.0-4.0-0.53","1","815.415000077337","","","","Images/NewTrialBC.png","37"
"image-keyboard-response","186","345021","0.0-4.0-1.53","1","null","","","","Images/BlackBeadChoice.png","null"
"image-keyboard-response","187","345526","0.0-4.0-2.53","1","null","","","","Images/BlackBeadChoiceCorrect.png","null"
"image-keyboard-response","188","346498","0.0-4.0-0.54","1","970.5550000071526","","","","Images/NewTrialBC.png","37"
"image-keyboard-response","189","346750","0.0-4.0-1.54","1","null","","","","Images/BlackBeadChoice.png","null"
"image-keyboard-response","190","347254","0.0-4.0-2.54","1","null","","","","Images/BlackBeadChoiceWrong.png","null"
"image-keyboard-response","191","347581","0.0-4.0-0.55","1","325.2000000793487","","","","Images/NewTrialWC.png","39"
"image-keyboard-response","192","347837","0.0-4.0-1.55","1","null","","","","Images/WhiteBeadChoice.png","null"
"image-keyboard-response","193","348341","0.0-4.0-2.55","1","null","","","","Images/WhiteBeadChoiceWrong.png","null"
"image-keyboard-response","194","348833","0.0-4.0-0.56","1","488.95999998785555","","","","Images/NewTrialBC.png","37"
"image-keyboard-response","195","349088","0.0-4.0-1.56","1","null","","","","Images/BlackBeadChoice.png","null"
"image-keyboard-response","196","349591","0.0-4.0-2.56","1","null","","","","Images/BlackBeadChoiceWrong.png","null"
"image-keyboard-response","197","350333","0.0-4.0-0.57","1","741.0200000740588","","","","Images/NewTrialWC.png","37"
"image-keyboard-response","198","350586","0.0-4.0-1.57","1","null","","","","Images/BlackBeadChoice.png","null"
"image-keyboard-response","199","351091","0.0-4.0-2.57","1","null","","","","Images/BlackBeadChoiceWrong.png","null"
"image-keyboard-response","200","351730","0.0-4.0-0.58","1","637.1449998114258","","","","Images/NewTrialWC.png","37"
"image-keyboard-response","201","351984","0.0-4.0-1.58","1","null","","","","Images/BlackBeadChoice.png","null"
"image-keyboard-response","202","352490","0.0-4.0-2.58","1","null","","","","Images/BlackBeadChoiceWrong.png","null"
"image-keyboard-response","203","353137","0.0-4.0-0.59","1","643.7649999279529","","","","Images/NewTrialWC.png","37"
"image-keyboard-response","204","353391","0.0-4.0-1.59","1","null","","","","Images/BlackBeadChoice.png","null"
"image-keyboard-response","205","353895","0.0-4.0-2.59","1","null","","","","Images/BlackBeadChoiceWrong.png","null"
"image-keyboard-response","206","355098","0.0-4.0-0.60","1","1201.6750001348555","","","","Images/NewTrialWC.png","37"
"image-keyboard-response","207","355353","0.0-4.0-1.60","1","null","","","","Images/BlackBeadChoice.png","null"
"image-keyboard-response","208","355858","0.0-4.0-2.60","1","null","","","","Images/BlackBeadChoiceWrong.png","null"
"image-keyboard-response","209","356749","0.0-4.0-0.61","1","889.8199999239296","","","","Images/NewTrialWC.png","37"
"image-keyboard-response","210","357004","0.0-4.0-1.61","1","null","","","","Images/BlackBeadChoice.png","null"
"image-keyboard-response","211","357510","0.0-4.0-2.61","1","null","","","","Images/BlackBeadChoiceWrong.png","null"
"image-keyboard-response","212","358006","0.0-4.0-0.62","1","493.7750000972301","","","","Images/NewTrialWC.png","39"
"image-keyboard-response","213","358259","0.0-4.0-1.62","1","null","","","","Images/WhiteBeadChoice.png","null"
"image-keyboard-response","214","358761","0.0-4.0-2.62","1","null","","","","Images/WhiteBeadChoiceCorrect.png","null"
"image-keyboard-response","215","359305","0.0-4.0-0.63","1","542.2499999403954","","","","Images/NewTrialWC.png","39"
"image-keyboard-response","216","359559","0.0-4.0-1.63","1","null","","","","Images/WhiteBeadChoice.png","null"
"image-keyboard-response","217","360065","0.0-4.0-2.63","1","null","","","","Images/WhiteBeadChoiceCorrect.png","null"
"image-keyboard-response","218","360873","0.0-4.0-0.64","1","806.7450001835823","","","","Images/NewTrialWC.png","39"
"image-keyboard-response","219","361125","0.0-4.0-1.64","1","null","","","","Images/WhiteBeadChoice.png","null"
"image-keyboard-response","220","361631","0.0-4.0-2.64","1","null","","","","Images/WhiteBeadChoiceWrong.png","null"
"image-keyboard-response","221","362117","0.0-4.0-0.65","1","484.53000001609325","","","","Images/NewTrialBC.png","37"
"image-keyboard-response","222","362369","0.0-4.0-1.65","1","null","","","","Images/BlackBeadChoice.png","null"
"image-keyboard-response","223","362874","0.0-4.0-2.65","1","null","","","","Images/BlackBeadChoiceWrong.png","null"
"image-keyboard-response","224","363297","0.0-4.0-0.66","1","421.75500001758337","","","","Images/NewTrialWC.png","39"
"image-keyboard-response","225","363551","0.0-4.0-1.66","1","null","","","","Images/WhiteBeadChoice.png","null"
"image-keyboard-response","226","364055","0.0-4.0-2.66","1","null","","","","Images/WhiteBeadChoiceCorrect.png","null"
"image-keyboard-response","227","364501","0.0-4.0-0.67","1","444.1600001882762","","","","Images/NewTrialWC.png","39"
"image-keyboard-response","228","364756","0.0-4.0-1.67","1","null","","","","Images/WhiteBeadChoice.png","null"
"image-keyboard-response","229","365258","0.0-4.0-2.67","1","null","","","","Images/WhiteBeadChoiceCorrect.png","null"
"image-keyboard-response","230","365650","0.0-4.0-0.68","1","390.19499998539686","","","","Images/NewTrialWC.png","39"
"image-keyboard-response","231","365903","0.0-4.0-1.68","1","null","","","","Images/WhiteBeadChoice.png","null"
"image-keyboard-response","232","366406","0.0-4.0-2.68","1","null","","","","Images/WhiteBeadChoiceCorrect.png","null"
"image-keyboard-response","233","366829","0.0-4.0-0.69","1","421.90499999560416","","","","Images/NewTrialWC.png","39"
"image-keyboard-response","234","367083","0.0-4.0-1.69","1","null","","","","Images/WhiteBeadChoice.png","null"
"image-keyboard-response","235","367585","0.0-4.0-2.69","1","null","","","","Images/WhiteBeadChoiceCorrect.png","null"
"image-keyboard-response","236","368241","0.0-4.0-0.70","1","653.8550001569092","","","","Images/NewTrialWC.png","39"
"image-keyboard-response","237","368496","0.0-4.0-1.70","1","null","","","","Images/WhiteBeadChoice.png","null"
"image-keyboard-response","238","368998","0.0-4.0-2.70","1","null","","","","Images/WhiteBeadChoiceCorrect.png","null"
"image-keyboard-response","239","369367","0.0-4.0-0.71","1","367.2499998938292","","","","Images/NewTrialWC.png","37"
"image-keyboard-response","240","369619","0.0-4.0-1.71","1","null","","","","Images/BlackBeadChoice.png","null"
"image-keyboard-response","241","370121","0.0-4.0-2.71","1","null","","","","Images/BlackBeadChoiceWrong.png","null"
"image-keyboard-response","242","370641","0.0-4.0-0.72","1","518.8100000377744","","","","Images/NewTrialWC.png","37"
"image-keyboard-response","243","370893","0.0-4.0-1.72","1","null","","","","Images/BlackBeadChoice.png","null"
"image-keyboard-response","244","371400","0.0-4.0-2.72","1","null","","","","Images/BlackBeadChoiceWrong.png","null"
"image-keyboard-response","245","371770","0.0-4.0-0.73","1","368.5250000562519","","","","Images/NewTrialWC.png","39"
"image-keyboard-response","246","372022","0.0-4.0-1.73","1","null","","","","Images/WhiteBeadChoice.png","null"
"image-keyboard-response","247","372528","0.0-4.0-2.73","1","null","","","","Images/WhiteBeadChoiceCorrect.png","null"
"image-keyboard-response","248","373103","0.0-4.0-0.74","1","573.2549999374896","","","","Images/NewTrialWC.png","39"
"image-keyboard-response","249","373358","0.0-4.0-1.74","1","null","","","","Images/WhiteBeadChoice.png","null"
"image-keyboard-response","250","373862","0.0-4.0-2.74","1","null","","","","Images/WhiteBeadChoiceCorrect.png","null"
"image-keyboard-response","251","374281","0.0-4.0-0.75","1","417.63499984517694","","","","Images/NewTrialWC.png","39"
"image-keyboard-response","252","374535","0.0-4.0-1.75","1","null","","","","Images/WhiteBeadChoice.png","null"
"image-keyboard-response","253","375042","0.0-4.0-2.75","1","null","","","","Images/WhiteBeadChoiceWrong.png","null"
"image-keyboard-response","254","375990","0.0-4.0-0.76","1","946.6949999332428","","","","Images/NewTrialBC.png","37"
"image-keyboard-response","255","376246","0.0-4.0-1.76","1","null","","","","Images/BlackBeadChoice.png","null"
"image-keyboard-response","256","376749","0.0-4.0-2.76","1","null","","","","Images/BlackBeadChoiceWrong.png","null"
"image-keyboard-response","257","377341","0.0-4.0-0.77","1","590.5849998816848","","","","Images/NewTrialWC.png","37"
"image-keyboard-response","258","377594","0.0-4.0-1.77","1","null","","","","Images/BlackBeadChoice.png","null"
"image-keyboard-response","259","378096","0.0-4.0-2.77","1","null","","","","Images/BlackBeadChoiceWrong.png","null"
"image-keyboard-response","260","378401","0.0-4.0-0.78","1","303.42500004917383","","","","Images/NewTrialWC.png","39"
"image-keyboard-response","261","378657","0.0-4.0-1.78","1","null","","","","Images/WhiteBeadChoice.png","null"
"image-keyboard-response","262","379162","0.0-4.0-2.78","1","null","","","","Images/WhiteBeadChoiceWrong.png","null"
"image-keyboard-response","263","379745","0.0-4.0-0.79","1","581.6300001461059","","","","Images/NewTrialBC.png","37"
"image-keyboard-response","264","379999","0.0-4.0-1.79","1","null","","","","Images/BlackBeadChoice.png","null"
"image-keyboard-response","265","380502","0.0-4.0-2.79","1","null","","","","Images/BlackBeadChoiceCorrect.png","null"
"image-keyboard-response","266","381209","0.0-4.0-0.80","1","705.7749999221414","","","","Images/NewTrialBC.png","37"
"image-keyboard-response","267","381463","0.0-4.0-1.80","1","null","","","","Images/BlackBeadChoice.png","null"
"image-keyboard-response","268","381965","0.0-4.0-2.80","1","null","","","","Images/BlackBeadChoiceWrong.png","null"
"image-keyboard-response","269","383085","0.0-4.0-0.81","1","1117.9049999918789","","","","Images/NewTrialWC.png","39"
"image-keyboard-response","270","383337","0.0-4.0-1.81","1","null","","","","Images/WhiteBeadChoice.png","null"
"image-keyboard-response","271","383841","0.0-4.0-2.81","1","null","","","","Images/WhiteBeadChoiceWrong.png","null"
"image-keyboard-response","272","385805","0.0-4.0-0.82","1","1962.7149999141693","","","","Images/NewTrialBC.png","37"
"image-keyboard-response","273","386061","0.0-4.0-1.82","1","null","","","","Images/BlackBeadChoice.png","null"
"image-keyboard-response","274","386564","0.0-4.0-2.82","1","null","","","","Images/BlackBeadChoiceWrong.png","null"
"image-keyboard-response","275","387050","0.0-4.0-0.83","1","484.6049998886883","","","","Images/NewTrialWC.png","37"
"image-keyboard-response","276","387303","0.0-4.0-1.83","1","null","","","","Images/BlackBeadChoice.png","null"
"image-keyboard-response","277","387805","0.0-4.0-2.83","1","null","","","","Images/BlackBeadChoiceCorrect.png","null"
"image-keyboard-response","278","388481","0.0-4.0-0.84","1","674.7350001242012","","","","Images/NewTrialBC.png","37"
"image-keyboard-response","279","388735","0.0-4.0-1.84","1","null","","","","Images/BlackBeadChoice.png","null"
"image-keyboard-response","280","389238","0.0-4.0-2.84","1","null","","","","Images/BlackBeadChoiceCorrect.png","null"
"image-keyboard-response","281","389762","0.0-4.0-0.85","1","522.0550000667572","","","","Images/NewTrialBC.png","37"
"image-keyboard-response","282","390014","0.0-4.0-1.85","1","null","","","","Images/BlackBeadChoice.png","null"
"image-keyboard-response","283","390519","0.0-4.0-2.85","1","null","","","","Images/BlackBeadChoiceCorrect.png","null"
"image-keyboard-response","284","390933","0.0-4.0-0.86","1","412.2049999423325","","","","Images/NewTrialBC.png","39"
"image-keyboard-response","285","391188","0.0-4.0-1.86","1","null","","","","Images/WhiteBeadChoice.png","null"
"image-keyboard-response","286","391694","0.0-4.0-2.86","1","null","","","","Images/WhiteBeadChoiceWrong.png","null"
"image-keyboard-response","287","392394","0.0-4.0-0.87","1","698.195000179112","","","","Images/NewTrialBC.png","39"
"image-keyboard-response","288","392646","0.0-4.0-1.87","1","null","","","","Images/WhiteBeadChoice.png","null"
"image-keyboard-response","289","393150","0.0-4.0-2.87","1","null","","","","Images/WhiteBeadChoiceWrong.png","null"
"image-keyboard-response","290","393537","0.0-4.0-0.88","1","385.53000008687377","","","","Images/NewTrialBC.png","37"
"image-keyboard-response","291","393791","0.0-4.0-1.88","1","null","","","","Images/BlackBeadChoice.png","null"
"image-keyboard-response","292","394293","0.0-4.0-2.88","1","null","","","","Images/BlackBeadChoiceCorrect.png","null"
"image-keyboard-response","293","395069","0.0-4.0-0.89","1","774.0700000431389","","","","Images/NewTrialBC.png","37"
"image-keyboard-response","294","395321","0.0-4.0-1.89","1","null","","","","Images/BlackBeadChoice.png","null"
"image-keyboard-response","295","395826","0.0-4.0-2.89","1","null","","","","Images/BlackBeadChoiceWrong.png","null"
"image-keyboard-response","296","396305","0.0-4.0-0.90","1","477.66499989666045","","","","Images/NewTrialWC.png","39"
"image-keyboard-response","297","396557","0.0-4.0-1.90","1","null","","","","Images/WhiteBeadChoice.png","null"
"image-keyboard-response","298","397059","0.0-4.0-2.90","1","null","","","","Images/WhiteBeadChoiceWrong.png","null"
"image-keyboard-response","299","398175","0.0-4.0-0.91","1","1114.3050000537187","","","","Images/NewTrialBC.png","37"
"image-keyboard-response","300","398430","0.0-4.0-1.91","1","null","","","","Images/BlackBeadChoice.png","null"
"image-keyboard-response","301","398937","0.0-4.0-2.91","1","null","","","","Images/BlackBeadChoiceCorrect.png","null"
"image-keyboard-response","302","399861","0.0-4.0-0.92","1","922.6150000467896","","","","Images/NewTrialBC.png","37"
"image-keyboard-response","303","400117","0.0-4.0-1.92","1","null","","","","Images/BlackBeadChoice.png","null"
"image-keyboard-response","304","400621","0.0-4.0-2.92","1","null","","","","Images/BlackBeadChoiceCorrect.png","null"
"image-keyboard-response","305","401229","0.0-4.0-0.93","1","605.5600000545382","","","","Images/NewTrialBC.png","37"
"image-keyboard-response","306","401482","0.0-4.0-1.93","1","null","","","","Images/BlackBeadChoice.png","null"
"image-keyboard-response","307","401987","0.0-4.0-2.93","1","null","","","","Images/BlackBeadChoiceWrong.png","null"
"image-keyboard-response","308","404789","0.0-4.0-0.94","1","2799.3850000202656","","","","Images/NewTrialWC.png","39"
"image-keyboard-response","309","405044","0.0-4.0-1.94","1","null","","","","Images/WhiteBeadChoice.png","null"
"image-keyboard-response","310","405548","0.0-4.0-2.94","1","null","","","","Images/WhiteBeadChoiceWrong.png","null"
"image-keyboard-response","311","405989","0.0-4.0-0.95","1","439.0000000130385","","","","Images/NewTrialBC.png","37"
"image-keyboard-response","312","406243","0.0-4.0-1.95","1","null","","","","Images/BlackBeadChoice.png","null"
"image-keyboard-response","313","406748","0.0-4.0-2.95","1","null","","","","Images/BlackBeadChoiceCorrect.png","null"
"image-keyboard-response","314","407425","0.0-4.0-0.96","1","675.2400000113994","","","","Images/NewTrialBC.png","37"
"image-keyboard-response","315","407677","0.0-4.0-1.96","1","null","","","","Images/BlackBeadChoice.png","null"
"image-keyboard-response","316","408182","0.0-4.0-2.96","1","null","","","","Images/BlackBeadChoiceWrong.png","null"
"image-keyboard-response","317","409114","0.0-4.0-0.97","1","931.1699999962002","","","","Images/NewTrialWC.png","37"
"image-keyboard-response","318","409370","0.0-4.0-1.97","1","null","","","","Images/BlackBeadChoice.png","null"
"image-keyboard-response","319","409872","0.0-4.0-2.97","1","null","","","","Images/BlackBeadChoiceWrong.png","null"
"image-keyboard-response","320","410009","0.0-4.0-0.98","1","135.93999994918704","","","","Images/NewTrialWC.png","39"
"image-keyboard-response","321","410262","0.0-4.0-1.98","1","null","","","","Images/WhiteBeadChoice.png","null"
"image-keyboard-response","322","410767","0.0-4.0-2.98","1","null","","","","Images/WhiteBeadChoiceCorrect.png","null"
"image-keyboard-response","323","411377","0.0-4.0-0.99","1","608.6000001523644","","","","Images/NewTrialWC.png","39"
"image-keyboard-response","324","411633","0.0-4.0-1.99","1","null","","","","Images/WhiteBeadChoice.png","null"
"image-keyboard-response","325","412135","0.0-4.0-2.99","1","null","","","","Images/WhiteBeadChoiceCorrect.png","null"
"image-keyboard-response","326","412597","0.0-4.0-0.100","1","460.59000003151596","","","","Images/NewTrialWC.png","39"
"image-keyboard-response","327","412849","0.0-4.0-1.100","1","null","","","","Images/WhiteBeadChoice.png","null"
"image-keyboard-response","328","413354","0.0-4.0-2.100","1","null","","","","Images/WhiteBeadChoiceCorrect.png","null"
"image-keyboard-response","329","413741","0.0-4.0-0.101","1","385.75499993748963","","","","Images/NewTrialWC.png","37"
"image-keyboard-response","330","413996","0.0-4.0-1.101","1","null","","","","Images/BlackBeadChoice.png","null"
"image-keyboard-response","331","414501","0.0-4.0-2.101","1","null","","","","Images/BlackBeadChoiceWrong.png","null"
"image-keyboard-response","332","415169","0.0-4.0-0.102","1","666.1600000225008","","","","Images/NewTrialWC.png","37"
"image-keyboard-response","333","415425","0.0-4.0-1.102","1","null","","","","Images/BlackBeadChoice.png","null"
"image-keyboard-response","334","415930","0.0-4.0-2.102","1","null","","","","Images/BlackBeadChoiceCorrect.png","null"
"image-keyboard-response","335","417113","0.0-4.0-0.103","1","1180.2400001324713","","","","Images/NewTrialBC.png","37"
"image-keyboard-response","336","417366","0.0-4.0-1.103","1","null","","","","Images/BlackBeadChoice.png","null"
"image-keyboard-response","337","417868","0.0-4.0-2.103","1","null","","","","Images/BlackBeadChoiceCorrect.png","null"
"image-keyboard-response","338","418321","0.0-4.0-0.104","1","451.3250000309199","","","","Images/NewTrialBC.png","37"
"image-keyboard-response","339","418576","0.0-4.0-1.104","1","null","","","","Images/BlackBeadChoice.png","null"
"image-keyboard-response","340","419079","0.0-4.0-2.104","1","null","","","","Images/BlackBeadChoiceWrong.png","null"
"image-keyboard-response","341","419491","0.0-4.0-0.105","1","409.8749998956919","","","","Images/NewTrialWC.png","39"
"image-keyboard-response","342","419746","0.0-4.0-1.105","1","null","","","","Images/WhiteBeadChoice.png","null"
"image-keyboard-response","343","420248","0.0-4.0-2.105","1","null","","","","Images/WhiteBeadChoiceCorrect.png","null"
"image-keyboard-response","344","420845","0.0-4.0-0.106","1","595.2300000935793","","","","Images/NewTrialWC.png","39"
"image-keyboard-response","345","421097","0.0-4.0-1.106","1","null","","","","Images/WhiteBeadChoice.png","null"
"image-keyboard-response","346","421603","0.0-4.0-2.106","1","null","","","","Images/WhiteBeadChoiceCorrect.png","null"
"image-keyboard-response","347","422073","0.0-4.0-0.107","1","468.5649999883026","","","","Images/NewTrialWC.png","39"
"image-keyboard-response","348","422327","0.0-4.0-1.107","1","null","","","","Images/WhiteBeadChoice.png","null"
"image-keyboard-response","349","422830","0.0-4.0-2.107","1","null","","","","Images/WhiteBeadChoiceCorrect.png","null"
"image-keyboard-response","350","423201","0.0-4.0-0.108","1","369.35499985702336","","","","Images/NewTrialWC.png","37"
"image-keyboard-response","351","423456","0.0-4.0-1.108","1","null","","","","Images/BlackBeadChoice.png","null"
"image-keyboard-response","352","423961","0.0-4.0-2.108","1","null","","","","Images/BlackBeadChoiceWrong.png","null"
"image-keyboard-response","353","424393","0.0-4.0-0.109","1","430.045000044629","","","","Images/NewTrialWC.png","37"
"image-keyboard-response","354","424648","0.0-4.0-1.109","1","null","","","","Images/BlackBeadChoice.png","null"
"image-keyboard-response","355","425151","0.0-4.0-2.109","1","null","","","","Images/BlackBeadChoiceWrong.png","null"
"image-keyboard-response","356","425938","0.0-4.0-0.110","1","784.6099999733269","","","","Images/NewTrialWC.png","37"
"image-keyboard-response","357","426192","0.0-4.0-1.110","1","null","","","","Images/BlackBeadChoice.png","null"
"image-keyboard-response","358","426695","0.0-4.0-2.110","1","null","","","","Images/BlackBeadChoiceWrong.png","null"
"image-keyboard-response","359","427009","0.0-4.0-0.111","1","313.1099999882281","","","","Images/NewTrialWC.png","39"
"image-keyboard-response","360","427261","0.0-4.0-1.111","1","null","","","","Images/WhiteBeadChoice.png","null"
"image-keyboard-response","361","427767","0.0-4.0-2.111","1","null","","","","Images/WhiteBeadChoiceCorrect.png","null"
"image-keyboard-response","362","428153","0.0-4.0-0.112","1","384.1349999420345","","","","Images/NewTrialWC.png","39"
"image-keyboard-response","363","428407","0.0-4.0-1.112","1","null","","","","Images/WhiteBeadChoice.png","null"
"image-keyboard-response","364","428908","0.0-4.0-2.112","1","null","","","","Images/WhiteBeadChoiceCorrect.png","null"
"image-keyboard-response","365","429574","0.0-4.0-0.113","1","663.1650000344962","","","","Images/NewTrialWC.png","39"
"image-keyboard-response","366","429827","0.0-4.0-1.113","1","null","","","","Images/WhiteBeadChoice.png","null"
"image-keyboard-response","367","430333","0.0-4.0-2.113","1","null","","","","Images/WhiteBeadChoiceCorrect.png","null"
"image-keyboard-response","368","430874","0.0-4.0-0.114","1","538.9149999246001","","","","Images/NewTrialWC.png","39"
"image-keyboard-response","369","431126","0.0-4.0-1.114","1","null","","","","Images/WhiteBeadChoice.png","null"
"image-keyboard-response","370","431628","0.0-4.0-2.114","1","null","","","","Images/WhiteBeadChoiceWrong.png","null"
"image-keyboard-response","371","432169","0.0-4.0-0.115","1","538.9450001530349","","","","Images/NewTrialBC.png","37"
"image-keyboard-response","372","432421","0.0-4.0-1.115","1","null","","","","Images/BlackBeadChoice.png","null"
"image-keyboard-response","373","432922","0.0-4.0-2.115","1","null","","","","Images/BlackBeadChoiceWrong.png","null"
"image-keyboard-response","374","433473","0.0-4.0-0.116","1","549.3450001813471","","","","Images/NewTrialWC.png","39"
"image-keyboard-response","375","433726","0.0-4.0-1.116","1","null","","","","Images/WhiteBeadChoice.png","null"
"image-keyboard-response","376","434231","0.0-4.0-2.116","1","null","","","","Images/WhiteBeadChoiceCorrect.png","null"
"image-keyboard-response","377","434742","0.0-4.0-0.117","1","509.7399998921901","","","","Images/NewTrialWC.png","39"
"image-keyboard-response","378","434999","0.0-4.0-1.117","1","null","","","","Images/WhiteBeadChoice.png","null"
"image-keyboard-response","379","435502","0.0-4.0-2.117","1","null","","","","Images/WhiteBeadChoiceCorrect.png","null"
"image-keyboard-response","380","436285","0.0-4.0-0.118","1","781.7199998535216","","","","Images/NewTrialWC.png","39"
"image-keyboard-response","381","436537","0.0-4.0-1.118","1","null","","","","Images/WhiteBeadChoice.png","null"
"image-keyboard-response","382","437040","0.0-4.0-2.118","1","null","","","","Images/WhiteBeadChoiceWrong.png","null"
"image-keyboard-response","383","437845","0.0-4.0-0.119","1","803.275000071153","","","","Images/NewTrialBC.png","37"
"image-keyboard-response","384","438099","0.0-4.0-1.119","1","null","","","","Images/BlackBeadChoice.png","null"
"image-keyboard-response","385","438602","0.0-4.0-2.119","1","null","","","","Images/BlackBeadChoiceWrong.png","null"
"image-keyboard-response","386","438945","0.0-4.0-0.120","1","341.1550000309944","","","","Images/NewTrialWC.png","37"
"image-keyboard-response","387","439197","0.0-4.0-1.120","1","null","","","","Images/BlackBeadChoice.png","null"
"image-keyboard-response","388","439699","0.0-4.0-2.120","1","null","","","","Images/BlackBeadChoiceCorrect.png","null"
"image-keyboard-response","389","440142","0.0-4.0-0.121","1","440.815000096336","","","","Images/NewTrialBC.png","37"
"image-keyboard-response","390","440395","0.0-4.0-1.121","1","null","","","","Images/BlackBeadChoice.png","null"
"image-keyboard-response","391","440898","0.0-4.0-2.121","1","null","","","","Images/BlackBeadChoiceCorrect.png","null"
"image-keyboard-response","392","441253","0.0-4.0-0.122","1","353.37499994784594","","","","Images/NewTrialBC.png","37"
"image-keyboard-response","393","441505","0.0-4.0-1.122","1","null","","","","Images/BlackBeadChoice.png","null"
"image-keyboard-response","394","442010","0.0-4.0-2.122","1","null","","","","Images/BlackBeadChoiceCorrect.png","null"
"image-keyboard-response","395","442421","0.0-4.0-0.123","1","409.4499999191612","","","","Images/NewTrialBC.png","39"
"image-keyboard-response","396","442675","0.0-4.0-1.123","1","null","","","","Images/WhiteBeadChoice.png","null"
"image-keyboard-response","397","443182","0.0-4.0-2.123","1","null","","","","Images/WhiteBeadChoiceWrong.png","null"
"image-keyboard-response","398","443561","0.0-4.0-0.124","1","378.0400000978261","","","","Images/NewTrialBC.png","39"
"image-keyboard-response","399","443814","0.0-4.0-1.124","1","null","","","","Images/WhiteBeadChoice.png","null"
"image-keyboard-response","400","444320","0.0-4.0-2.124","1","null","","","","Images/WhiteBeadChoiceWrong.png","null"
"image-keyboard-response","401","444661","0.0-4.0-0.125","1","339.55999999307096","","","","Images/NewTrialBC.png","39"
"image-keyboard-response","402","444915","0.0-4.0-1.125","1","null","","","","Images/WhiteBeadChoice.png","null"
"image-keyboard-response","403","445418","0.0-4.0-2.125","1","null","","","","Images/WhiteBeadChoiceWrong.png","null"
"image-keyboard-response","404","445733","0.0-4.0-0.126","1","313.069999916479","","","","Images/NewTrialBC.png","39"
"image-keyboard-response","405","445986","0.0-4.0-1.126","1","null","","","","Images/WhiteBeadChoice.png","null"
"image-keyboard-response","406","446491","0.0-4.0-2.126","1","null","","","","Images/WhiteBeadChoiceWrong.png","null"
"image-keyboard-response","407","447037","0.0-4.0-0.127","1","543.7300000339746","","","","Images/NewTrialBC.png","39"
"image-keyboard-response","408","447292","0.0-4.0-1.127","1","null","","","","Images/WhiteBeadChoice.png","null"
"image-keyboard-response","409","447795","0.0-4.0-2.127","1","null","","","","Images/WhiteBeadChoiceWrong.png","null"
"image-keyboard-response","410","448289","0.0-4.0-0.128","1","492.57000000216067","","","","Images/NewTrialBC.png","39"
"image-keyboard-response","411","448541","0.0-4.0-1.128","1","null","","","","Images/WhiteBeadChoice.png","null"
"image-keyboard-response","412","449046","0.0-4.0-2.128","1","null","","","","Images/WhiteBeadChoiceWrong.png","null"
"image-keyboard-response","413","449461","0.0-4.0-0.129","1","413.7350001838058","","","","Images/NewTrialBC.png","37"
"image-keyboard-response","414","449715","0.0-4.0-1.129","1","null","","","","Images/BlackBeadChoice.png","null"
"image-keyboard-response","415","450217","0.0-4.0-2.129","1","null","","","","Images/BlackBeadChoiceCorrect.png","null"
"image-keyboard-response","416","450990","0.0-4.0-0.130","1","771.1699998471886","","","","Images/NewTrialBC.png","37"
"image-keyboard-response","417","451243","0.0-4.0-1.130","1","null","","","","Images/BlackBeadChoice.png","null"
"image-keyboard-response","418","451749","0.0-4.0-2.130","1","null","","","","Images/BlackBeadChoiceCorrect.png","null"
"image-keyboard-response","419","452624","0.0-4.0-0.131","1","873.325000051409","","","","Images/NewTrialBC.png","37"
"image-keyboard-response","420","452878","0.0-4.0-1.131","1","null","","","","Images/BlackBeadChoice.png","null"
"image-keyboard-response","421","453383","0.0-4.0-2.131","1","null","","","","Images/BlackBeadChoiceCorrect.png","null"
"image-keyboard-response","422","454441","0.0-4.0-0.132","1","1056.5549999009818","","","","Images/NewTrialBC.png","37"
"image-keyboard-response","423","454693","0.0-4.0-1.132","1","null","","","","Images/BlackBeadChoice.png","null"
"image-keyboard-response","424","455196","0.0-4.0-2.132","1","null","","","","Images/BlackBeadChoiceCorrect.png","null"
"image-keyboard-response","425","455909","0.0-4.0-0.133","1","710.6149999890476","","","","Images/NewTrialBC.png","37"
"image-keyboard-response","426","456162","0.0-4.0-1.133","1","null","","","","Images/BlackBeadChoice.png","null"
"image-keyboard-response","427","456664","0.0-4.0-2.133","1","null","","","","Images/BlackBeadChoiceCorrect.png","null"
"image-keyboard-response","428","457281","0.0-4.0-0.134","1","615.5850000213832","","","","Images/NewTrialBC.png","37"
"image-keyboard-response","429","457537","0.0-4.0-1.134","1","null","","","","Images/BlackBeadChoice.png","null"
"image-keyboard-response","430","458041","0.0-4.0-2.134","1","null","","","","Images/BlackBeadChoiceWrong.png","null"
"image-keyboard-response","431","458498","0.0-4.0-0.135","1","454.6749999281019","","","","Images/NewTrialWC.png","39"
"image-keyboard-response","432","458752","0.0-4.0-1.135","1","null","","","","Images/WhiteBeadChoice.png","null"
"image-keyboard-response","433","459257","0.0-4.0-2.135","1","null","","","","Images/WhiteBeadChoiceCorrect.png","null"
"image-keyboard-response","434","459753","0.0-4.0-0.136","1","494.0899999346584","","","","Images/NewTrialWC.png","39"
"image-keyboard-response","435","460006","0.0-4.0-1.136","1","null","","","","Images/WhiteBeadChoice.png","null"
"image-keyboard-response","436","460511","0.0-4.0-2.136","1","null","","","","Images/WhiteBeadChoiceCorrect.png","null"
"image-keyboard-response","437","461243","0.0-4.0-0.137","1","729.6800001058728","","","","Images/NewTrialWC.png","39"
"image-keyboard-response","438","461496","0.0-4.0-1.137","1","null","","","","Images/WhiteBeadChoice.png","null"
"image-keyboard-response","439","462002","0.0-4.0-2.137","1","null","","","","Images/WhiteBeadChoiceCorrect.png","null"
"image-keyboard-response","440","462781","0.0-4.0-0.138","1","777.5049998890609","","","","Images/NewTrialWC.png","39"
"image-keyboard-response","441","463035","0.0-4.0-1.138","1","null","","","","Images/WhiteBeadChoice.png","null"
"image-keyboard-response","442","463538","0.0-4.0-2.138","1","null","","","","Images/WhiteBeadChoiceCorrect.png","null"
"image-keyboard-response","443","464621","0.0-4.0-0.139","1","1081.5349998883903","","","","Images/NewTrialWC.png","39"
"image-keyboard-response","444","464875","0.0-4.0-1.139","1","null","","","","Images/WhiteBeadChoice.png","null"
"image-keyboard-response","445","465378","0.0-4.0-2.139","1","null","","","","Images/WhiteBeadChoiceCorrect.png","null"
"image-keyboard-response","446","465789","0.0-4.0-0.140","1","409.58500001579523","","","","Images/NewTrialWC.png","39"
"image-keyboard-response","447","466044","0.0-4.0-1.140","1","null","","","","Images/WhiteBeadChoice.png","null"
"image-keyboard-response","448","466549","0.0-4.0-2.140","1","null","","","","Images/WhiteBeadChoiceCorrect.png","null"
"image-keyboard-response","449","466833","0.0-4.0-0.141","1","282.24000008776784","","","","Images/NewTrialWC.png","39"
"image-keyboard-response","450","467085","0.0-4.0-1.141","1","null","","","","Images/WhiteBeadChoice.png","null"
"image-keyboard-response","451","467587","0.0-4.0-2.141","1","null","","","","Images/WhiteBeadChoiceCorrect.png","null"
"image-keyboard-response","452","467873","0.0-4.0-0.142","1","284.38500012271106","","","","Images/NewTrialWC.png","39"
"image-keyboard-response","453","468126","0.0-4.0-1.142","1","null","","","","Images/WhiteBeadChoice.png","null"
"image-keyboard-response","454","468631","0.0-4.0-2.142","1","null","","","","Images/WhiteBeadChoiceCorrect.png","null"
"image-keyboard-response","455","468917","0.0-4.0-0.143","1","284.05500017106533","","","","Images/NewTrialWC.png","39"
"image-keyboard-response","456","469172","0.0-4.0-1.143","1","null","","","","Images/WhiteBeadChoice.png","null"
"image-keyboard-response","457","469675","0.0-4.0-2.143","1","null","","","","Images/WhiteBeadChoiceCorrect.png","null"
"image-keyboard-response","458","470201","0.0-4.0-0.144","1","524.1049998439848","","","","Images/NewTrialWC.png","39"
"image-keyboard-response","459","470459","0.0-4.0-1.144","1","null","","","","Images/WhiteBeadChoice.png","null"
"image-keyboard-response","460","470965","0.0-4.0-2.144","1","null","","","","Images/WhiteBeadChoiceCorrect.png","null"
"image-keyboard-response","461","471470","0.0-4.0-0.145","1","503.7599999923259","","","","Images/NewTrialWC.png","37"
"image-keyboard-response","462","471722","0.0-4.0-1.145","1","null","","","","Images/BlackBeadChoice.png","null"
"image-keyboard-response","463","472224","0.0-4.0-2.145","1","null","","","","Images/BlackBeadChoiceWrong.png","null"
"image-keyboard-response","464","472669","0.0-4.0-0.146","1","443.27000016346574","","","","Images/NewTrialWC.png","37"
"image-keyboard-response","465","472924","0.0-4.0-1.146","1","null","","","","Images/BlackBeadChoice.png","null"
"image-keyboard-response","466","473429","0.0-4.0-2.146","1","null","","","","Images/BlackBeadChoiceWrong.png","null"
"image-keyboard-response","467","483829","0.0-4.0-0.147","1","10398.909999988973","","","","Images/NewTrialWC.png","39"
"image-keyboard-response","468","484083","0.0-4.0-1.147","1","null","","","","Images/WhiteBeadChoice.png","null"
"image-keyboard-response","469","484586","0.0-4.0-2.147","1","null","","","","Images/WhiteBeadChoiceCorrect.png","null"
"image-keyboard-response","470","484973","0.0-4.0-0.148","1","385.8649998437613","","","","Images/NewTrialWC.png","39"
"image-keyboard-response","471","485225","0.0-4.0-1.148","1","null","","","","Images/WhiteBeadChoice.png","null"
"image-keyboard-response","472","485728","0.0-4.0-2.148","1","null","","","","Images/WhiteBeadChoiceWrong.png","null"
"image-keyboard-response","473","486009","0.0-4.0-0.149","1","279.3850000016391","","","","Images/NewTrialBC.png","37"
"image-keyboard-response","474","486261","0.0-4.0-1.149","1","null","","","","Images/BlackBeadChoice.png","null"
"image-keyboard-response","475","486766","0.0-4.0-2.149","1","null","","","","Images/BlackBeadChoiceCorrect.png","null"
"image-keyboard-response","476","487041","0.0-4.0-0.150","1","272.6350000593811","","","","Images/NewTrialBC.png","37"
"image-keyboard-response","477","487294","0.0-4.0-1.150","1","null","","","","Images/BlackBeadChoice.png","null"
"image-keyboard-response","478","487801","0.0-4.0-2.150","1","null","","","","Images/BlackBeadChoiceWrong.png","null"
"image-keyboard-response","479","488254","0.0-4.0-0.151","1","451.56499999575317","","","","Images/NewTrialWC.png","39"
"image-keyboard-response","480","488508","0.0-4.0-1.151","1","null","","","","Images/WhiteBeadChoice.png","null"
"image-keyboard-response","481","489011","0.0-4.0-2.151","1","null","","","","Images/WhiteBeadChoiceCorrect.png","null"
"image-keyboard-response","482","489341","0.0-4.0-0.152","1","328.53499986231327","","","","Images/NewTrialWC.png","39"
"image-keyboard-response","483","489593","0.0-4.0-1.152","1","null","","","","Images/WhiteBeadChoice.png","null"
"image-keyboard-response","484","490095","0.0-4.0-2.152","1","null","","","","Images/WhiteBeadChoiceWrong.png","null"
"image-keyboard-response","485","490513","0.0-4.0-0.153","1","416.2550000473857","","","","Images/NewTrialBC.png","37"
"image-keyboard-response","486","490766","0.0-4.0-1.153","1","null","","","","Images/BlackBeadChoice.png","null"
"image-keyboard-response","487","491268","0.0-4.0-2.153","1","null","","","","Images/BlackBeadChoiceWrong.png","null"
"image-keyboard-response","488","491544","0.0-4.0-0.154","1","274.7700000181794","","","","Images/NewTrialWC.png","39"
"image-keyboard-response","489","491795","0.0-4.0-1.154","1","null","","","","Images/WhiteBeadChoice.png","null"
"image-keyboard-response","490","492298","0.0-4.0-2.154","1","null","","","","Images/WhiteBeadChoiceCorrect.png","null"
"image-keyboard-response","491","492576","0.0-4.0-0.155","1","275.8300001733005","","","","Images/NewTrialWC.png","39"
"image-keyboard-response","492","492829","0.0-4.0-1.155","1","null","","","","Images/WhiteBeadChoice.png","null"
"image-keyboard-response","493","493330","0.0-4.0-2.155","1","null","","","","Images/WhiteBeadChoiceCorrect.png","null"
"image-keyboard-response","494","493745","0.0-4.0-0.156","1","414.0800000168383","","","","Images/NewTrialWC.png","39"
"image-keyboard-response","495","493997","0.0-4.0-1.156","1","null","","","","Images/WhiteBeadChoice.png","null"
"image-keyboard-response","496","494503","0.0-4.0-2.156","1","null","","","","Images/WhiteBeadChoiceCorrect.png","null"
"image-keyboard-response","497","494845","0.0-4.0-0.157","1","339.81000003404915","","","","Images/NewTrialWC.png","39"
"image-keyboard-response","498","495097","0.0-4.0-1.157","1","null","","","","Images/WhiteBeadChoice.png","null"
"image-keyboard-response","499","495602","0.0-4.0-2.157","1","null","","","","Images/WhiteBeadChoiceCorrect.png","null"
"image-keyboard-response","500","495914","0.0-4.0-0.158","1","309.70999994315207","","","","Images/NewTrialWC.png","37"
"image-keyboard-response","501","496169","0.0-4.0-1.158","1","null","","","","Images/BlackBeadChoice.png","null"
"image-keyboard-response","502","496674","0.0-4.0-2.158","1","null","","","","Images/BlackBeadChoiceWrong.png","null"
"image-keyboard-response","503","496946","0.0-4.0-0.159","1","270.5249998252839","","","","Images/NewTrialWC.png","37"
"image-keyboard-response","504","497199","0.0-4.0-1.159","1","null","","","","Images/BlackBeadChoice.png","null"
"image-keyboard-response","505","497701","0.0-4.0-2.159","1","null","","","","Images/BlackBeadChoiceWrong.png","null"
"image-keyboard-response","506","498005","0.0-4.0-0.160","1","302.0099999848753","","","","Images/NewTrialWC.png","37"
"image-keyboard-response","507","498260","0.0-4.0-1.160","1","null","","","","Images/BlackBeadChoice.png","null"
"image-keyboard-response","508","498762","0.0-4.0-2.160","1","null","","","","Images/BlackBeadChoiceCorrect.png","null"
"image-keyboard-response","509","499347","0.0-4.0-0.161","1","582.7850000932813","","","","Images/NewTrialBC.png","37"
"image-keyboard-response","510","499602","0.0-4.0-1.161","1","null","","","","Images/BlackBeadChoice.png","null"
"image-keyboard-response","511","500106","0.0-4.0-2.161","1","null","","","","Images/BlackBeadChoiceWrong.png","null"
"image-keyboard-response","512","501021","0.0-4.0-0.162","1","912.9900000989437","","","","Images/NewTrialWC.png","39"
"image-keyboard-response","513","501276","0.0-4.0-1.162","1","null","","","","Images/WhiteBeadChoice.png","null"
"image-keyboard-response","514","501779","0.0-4.0-2.162","1","null","","","","Images/WhiteBeadChoiceCorrect.png","null"
"image-keyboard-response","515","502129","0.0-4.0-0.163","1","347.5750000216067","","","","Images/NewTrialWC.png","39"
"image-keyboard-response","516","502383","0.0-4.0-1.163","1","null","","","","Images/WhiteBeadChoice.png","null"
"image-keyboard-response","517","502887","0.0-4.0-2.163","1","null","","","","Images/WhiteBeadChoiceCorrect.png","null"
"image-keyboard-response","518","503677","0.0-4.0-0.164","1","789.1750000417233","","","","Images/NewTrialWC.png","39"
"image-keyboard-response","519","503935","0.0-4.0-1.164","1","null","","","","Images/WhiteBeadChoice.png","null"
"image-keyboard-response","520","504441","0.0-4.0-2.164","1","null","","","","Images/WhiteBeadChoiceCorrect.png","null"
"image-keyboard-response","521","506153","0.0-4.0-0.165","1","1709.739999845624","","","","Images/NewTrialWC.png","39"
"image-keyboard-response","522","506405","0.0-4.0-1.165","1","null","","","","Images/WhiteBeadChoice.png","null"
"image-keyboard-response","523","506908","0.0-4.0-2.165","1","null","","","","Images/WhiteBeadChoiceCorrect.png","null"
"image-keyboard-response","524","507989","0.0-4.0-0.166","1","1078.9749999530613","","","","Images/NewTrialWC.png","39"
"image-keyboard-response","525","508241","0.0-4.0-1.166","1","null","","","","Images/WhiteBeadChoice.png","null"
"image-keyboard-response","526","508746","0.0-4.0-2.166","1","null","","","","Images/WhiteBeadChoiceCorrect.png","null"
"image-keyboard-response","527","509169","0.0-4.0-0.167","1","421.0399999283254","","","","Images/NewTrialWC.png","39"
"image-keyboard-response","528","509422","0.0-4.0-1.167","1","null","","","","Images/WhiteBeadChoice.png","null"
"image-keyboard-response","529","509924","0.0-4.0-2.167","1","null","","","","Images/WhiteBeadChoiceCorrect.png","null"
"image-keyboard-response","530","510494","0.0-4.0-0.168","1","568.3249998837709","","","","Images/NewTrialWC.png","39"
"image-keyboard-response","531","510746","0.0-4.0-1.168","1","null","","","","Images/WhiteBeadChoice.png","null"
"image-keyboard-response","532","511250","0.0-4.0-2.168","1","null","","","","Images/WhiteBeadChoiceWrong.png","null"
"image-keyboard-response","533","511765","0.0-4.0-0.169","1","513.3899999782443","","","","Images/NewTrialBC.png","37"
"image-keyboard-response","534","512017","0.0-4.0-1.169","1","null","","","","Images/BlackBeadChoice.png","null"
"image-keyboard-response","535","512520","0.0-4.0-2.169","1","null","","","","Images/BlackBeadChoiceWrong.png","null"
"image-keyboard-response","536","512657","0.0-4.0-0.170","1","135.28000004589558","","","","Images/NewTrialWC.png","39"
"image-keyboard-response","537","512911","0.0-4.0-1.170","1","null","","","","Images/WhiteBeadChoice.png","null"
"image-keyboard-response","538","513416","0.0-4.0-2.170","1","null","","","","Images/WhiteBeadChoiceCorrect.png","null"
"image-keyboard-response","539","513757","0.0-4.0-0.171","1","338.53999990969896","","","","Images/NewTrialWC.png","39"
"image-keyboard-response","540","514012","0.0-4.0-1.171","1","null","","","","Images/WhiteBeadChoice.png","null"
"image-keyboard-response","541","514514","0.0-4.0-2.171","1","null","","","","Images/WhiteBeadChoiceCorrect.png","null"
"image-keyboard-response","542","514929","0.0-4.0-0.172","1","412.92999987490475","","","","Images/NewTrialWC.png","39"
"image-keyboard-response","543","515182","0.0-4.0-1.172","1","null","","","","Images/WhiteBeadChoice.png","null"
"image-keyboard-response","544","515686","0.0-4.0-2.172","1","null","","","","Images/WhiteBeadChoiceCorrect.png","null"
"image-keyboard-response","545","516053","0.0-4.0-0.173","1","365.14999996870756","","","","Images/NewTrialWC.png","39"
"image-keyboard-response","546","516305","0.0-4.0-1.173","1","null","","","","Images/WhiteBeadChoice.png","null"
"image-keyboard-response","547","516810","0.0-4.0-2.173","1","null","","","","Images/WhiteBeadChoiceCorrect.png","null"
"image-keyboard-response","548","517413","0.0-4.0-0.174","1","601.2949999421835","","","","Images/NewTrialWC.png","39"
"image-keyboard-response","549","517667","0.0-4.0-1.174","1","null","","","","Images/WhiteBeadChoice.png","null"
"image-keyboard-response","550","518170","0.0-4.0-2.174","1","null","","","","Images/WhiteBeadChoiceCorrect.png","null"
"image-keyboard-response","551","518329","0.0-4.0-0.175","1","155.77500010840595","","","","Images/NewTrialWC.png","39"
"image-keyboard-response","552","518582","0.0-4.0-1.175","1","null","","","","Images/WhiteBeadChoice.png","null"
"image-keyboard-response","553","519086","0.0-4.0-2.175","1","null","","","","Images/WhiteBeadChoiceWrong.png","null"
"image-keyboard-response","554","519473","0.0-4.0-0.176","1","384.72500001080334","","","","Images/NewTrialBC.png","37"
"image-keyboard-response","555","519726","0.0-4.0-1.176","1","null","","","","Images/BlackBeadChoice.png","null"
"image-keyboard-response","556","520231","0.0-4.0-2.176","1","null","","","","Images/BlackBeadChoiceCorrect.png","null"
"image-keyboard-response","557","520566","0.0-4.0-0.177","1","333.37999996729195","","","","Images/NewTrialBC.png","37"
"image-keyboard-response","558","520819","0.0-4.0-1.177","1","null","","","","Images/BlackBeadChoice.png","null"
"image-keyboard-response","559","521321","0.0-4.0-2.177","1","null","","","","Images/BlackBeadChoiceWrong.png","null"
"image-keyboard-response","560","522585","0.0-4.0-0.178","1","1262.6400000881404","","","","Images/NewTrialWC.png","37"
"image-keyboard-response","561","522841","0.0-4.0-1.178","1","null","","","","Images/BlackBeadChoice.png","null"
"image-keyboard-response","562","523346","0.0-4.0-2.178","1","null","","","","Images/BlackBeadChoiceCorrect.png","null"
"image-keyboard-response","563","523961","0.0-4.0-0.179","1","613.2199999410659","","","","Images/NewTrialBC.png","37"
"image-keyboard-response","564","524215","0.0-4.0-1.179","1","null","","","","Images/BlackBeadChoice.png","null"
"image-keyboard-response","565","524717","0.0-4.0-2.179","1","null","","","","Images/BlackBeadChoiceCorrect.png","null"
"image-keyboard-response","566","525013","0.0-4.0-0.180","1","294.56999991089106","","","","Images/NewTrialBC.png","37"
"image-keyboard-response","567","525265","0.0-4.0-1.180","1","null","","","","Images/BlackBeadChoice.png","null"
"image-keyboard-response","568","525767","0.0-4.0-2.180","1","null","","","","Images/BlackBeadChoiceCorrect.png","null"
"image-keyboard-response","569","526441","0.0-4.0-0.181","1","673.1249999720603","","","","Images/NewTrialBC.png","37"
"image-keyboard-response","570","526694","0.0-4.0-1.181","1","null","","","","Images/BlackBeadChoice.png","null"
"image-keyboard-response","571","527196","0.0-4.0-2.181","1","null","","","","Images/BlackBeadChoiceCorrect.png","null"
"image-keyboard-response","572","527597","0.0-4.0-0.182","1","399.42999999038875","","","","Images/NewTrialBC.png","39"
"image-keyboard-response","573","527849","0.0-4.0-1.182","1","null","","","","Images/WhiteBeadChoice.png","null"
"image-keyboard-response","574","528358","0.0-4.0-2.182","1","null","","","","Images/WhiteBeadChoiceWrong.png","null"
"image-keyboard-response","575","528798","0.0-4.0-0.183","1","438.86500014923513","","","","Images/NewTrialBC.png","39"
"image-keyboard-response","576","529050","0.0-4.0-1.183","1","null","","","","Images/WhiteBeadChoice.png","null"
"image-keyboard-response","577","529555","0.0-4.0-2.183","1","null","","","","Images/WhiteBeadChoiceCorrect.png","null"
"image-keyboard-response","578","530025","0.0-4.0-0.184","1","468.5899999458343","","","","Images/NewTrialWC.png","39"
"image-keyboard-response","579","530279","0.0-4.0-1.184","1","null","","","","Images/WhiteBeadChoice.png","null"
"image-keyboard-response","580","530781","0.0-4.0-2.184","1","null","","","","Images/WhiteBeadChoiceCorrect.png","null"
"image-keyboard-response","581","531282","0.0-4.0-0.185","1","498.8700000103563","","","","Images/NewTrialWC.png","39"
"image-keyboard-response","582","531536","0.0-4.0-1.185","1","null","","","","Images/WhiteBeadChoice.png","null"
"image-keyboard-response","583","532041","0.0-4.0-2.185","1","null","","","","Images/WhiteBeadChoiceCorrect.png","null"
"image-keyboard-response","584","533369","0.0-4.0-0.186","1","1326.0200000368059","","","","Images/NewTrialWC.png","39"
"image-keyboard-response","585","533623","0.0-4.0-1.186","1","null","","","","Images/WhiteBeadChoice.png","null"
"image-keyboard-response","586","534127","0.0-4.0-2.186","1","null","","","","Images/WhiteBeadChoiceWrong.png","null"
"image-keyboard-response","587","535062","0.0-4.0-0.187","1","934.1649999842048","","","","Images/NewTrialBC.png","37"
"image-keyboard-response","588","535318","0.0-4.0-1.187","1","null","","","","Images/BlackBeadChoice.png","null"
"image-keyboard-response","589","535822","0.0-4.0-2.187","1","null","","","","Images/BlackBeadChoiceCorrect.png","null"
"image-keyboard-response","590","536162","0.0-4.0-0.188","1","338.0700000561774","","","","Images/NewTrialBC.png","37"
"image-keyboard-response","591","536414","0.0-4.0-1.188","1","null","","","","Images/BlackBeadChoice.png","null"
"image-keyboard-response","592","536918","0.0-4.0-2.188","1","null","","","","Images/BlackBeadChoiceWrong.png","null"
"image-keyboard-response","593","538521","0.0-4.0-0.189","1","1600.9899999480695","","","","Images/NewTrialWC.png","37"
"image-keyboard-response","594","538773","0.0-4.0-1.189","1","null","","","","Images/BlackBeadChoice.png","null"
"image-keyboard-response","595","539277","0.0-4.0-2.189","1","null","","","","Images/BlackBeadChoiceWrong.png","null"
"image-keyboard-response","596","539388","0.0-4.0-0.190","1","109.78999990038574","","","","Images/NewTrialWC.png","39"
"image-keyboard-response","597","539641","0.0-4.0-1.190","1","null","","","","Images/WhiteBeadChoice.png","null"
"image-keyboard-response","598","540143","0.0-4.0-2.190","1","null","","","","Images/WhiteBeadChoiceCorrect.png","null"
"image-keyboard-response","599","540425","0.0-4.0-0.191","1","280.22499987855554","","","","Images/NewTrialWC.png","39"
"image-keyboard-response","600","540677","0.0-4.0-1.191","1","null","","","","Images/WhiteBeadChoice.png","null"
"image-keyboard-response","601","541185","0.0-4.0-2.191","1","null","","","","Images/WhiteBeadChoiceCorrect.png","null"
"image-keyboard-response","602","541470","0.0-4.0-0.192","1","283.70500006712973","","","","Images/NewTrialWC.png","39"
"image-keyboard-response","603","541726","0.0-4.0-1.192","1","null","","","","Images/WhiteBeadChoice.png","null"
"image-keyboard-response","604","542232","0.0-4.0-2.192","1","null","","","","Images/WhiteBeadChoiceCorrect.png","null"
"image-keyboard-response","605","542557","0.0-4.0-0.193","1","323.0299998540431","","","","Images/NewTrialWC.png","39"
"image-keyboard-response","606","542809","0.0-4.0-1.193","1","null","","","","Images/WhiteBeadChoice.png","null"
"image-keyboard-response","607","543310","0.0-4.0-2.193","1","null","","","","Images/WhiteBeadChoiceWrong.png","null"
"image-keyboard-response","608","544213","0.0-4.0-0.194","1","900.690000038594","","","","Images/NewTrialBC.png","37"
"image-keyboard-response","609","544468","0.0-4.0-1.194","1","null","","","","Images/BlackBeadChoice.png","null"
"image-keyboard-response","610","544971","0.0-4.0-2.194","1","null","","","","Images/BlackBeadChoiceCorrect.png","null"
"image-keyboard-response","611","545249","0.0-4.0-0.195","1","276.2349999975413","","","","Images/NewTrialBC.png","37"
"image-keyboard-response","612","545504","0.0-4.0-1.195","1","null","","","","Images/BlackBeadChoice.png","null"
"image-keyboard-response","613","546007","0.0-4.0-2.195","1","null","","","","Images/BlackBeadChoiceCorrect.png","null"
"image-keyboard-response","614","546265","0.0-4.0-0.196","1","256.10999995842576","","","","Images/NewTrialBC.png","37"
"image-keyboard-response","615","546516","0.0-4.0-1.196","1","null","","","","Images/BlackBeadChoice.png","null"
"image-keyboard-response","616","547021","0.0-4.0-2.196","1","null","","","","Images/BlackBeadChoiceCorrect.png","null"
"image-keyboard-response","617","547293","0.0-4.0-0.197","1","269.94499983265996","","","","Images/NewTrialBC.png","37"
"image-keyboard-response","618","547547","0.0-4.0-1.197","1","null","","","","Images/BlackBeadChoice.png","null"
"image-keyboard-response","619","548049","0.0-4.0-2.197","1","null","","","","Images/BlackBeadChoiceCorrect.png","null"
"image-keyboard-response","620","548233","0.0-4.0-0.198","1","181.97500007227063","","","","Images/NewTrialBC.png","37"
"image-keyboard-response","621","548490","0.0-4.0-1.198","1","null","","","","Images/BlackBeadChoice.png","null"
"image-keyboard-response","622","548997","0.0-4.0-2.198","1","null","","","","Images/BlackBeadChoiceCorrect.png","null"
"image-keyboard-response","623","551277","0.0-4.0-0.199","1","2278.1450001057237","","","","Images/NewTrialBC.png","37"
"image-keyboard-response","624","551532","0.0-4.0-1.199","1","null","","","","Images/BlackBeadChoice.png","null"
"image-keyboard-response","625","552034","0.0-4.0-2.199","1","null","","","","Images/BlackBeadChoiceWrong.png","null"
"html-keyboard-response","626","555730","0.0-5.0","1","3694.575000088662","","","","","32"
"html-keyboard-response","627","562348","0.0-6.0","1","6615.13499985449","","","","<div class=""container"" style=""height:800px;width:800px;display:flex;flex-direction:column;justify-content:center;align-items:center;text-align:center;font-weight:normal;font-family:Arial;font-size:20px""><p>Loading episode&hellip;</p><div>","32"
"image-keyboard-response","628","564972","0.0-7.0-0.0","1","2621.6700000222772","","","","Images/NoChoiceMM.png","39"
"image-keyboard-response","629","565227","0.0-7.0-1.0","1","null","","","","Images/WhiteBeadChoiceMM.png","null"
"image-keyboard-response","630","565730","0.0-7.0-2.0","1","null","","","","Images/WhiteBeadChoiceCorrectMM.png","null"
"image-keyboard-response","631","568416","0.0-7.0-0.1","1","2684.510000050068","","","","Images/NewTrialWCMM.png","39"
"image-keyboard-response","632","568672","0.0-7.0-1.1","1","null","","","","Images/WhiteBeadChoiceMM.png","null"
"image-keyboard-response","633","569175","0.0-7.0-2.1","1","null","","","","Images/WhiteBeadChoiceWrongMM.png","null"
"image-keyboard-response","634","571144","0.0-7.0-0.2","1","1967.3099999781698","","","","Images/NewTrialBCMM.png","37"
"image-keyboard-response","635","571396","0.0-7.0-1.2","1","null","","","","Images/BlackBeadChoiceMM.png","null"
"image-keyboard-response","636","571902","0.0-7.0-2.2","1","null","","","","Images/BlackBeadChoiceWrongMM.png","null"
"image-keyboard-response","637","574432","0.0-7.0-0.3","1","2527.8650000691414","","","","Images/NewTrialWCMM.png","37"
"image-keyboard-response","638","574684","0.0-7.0-1.3","1","null","","","","Images/BlackBeadChoiceMM.png","null"
"image-keyboard-response","639","575189","0.0-7.0-2.3","1","null","","","","Images/BlackBeadChoiceWrongMM.png","null"
"image-keyboard-response","640","576172","0.0-7.0-0.4","1","981.1650000046939","","","","Images/NewTrialWCMM.png","37"
"image-keyboard-response","641","576427","0.0-7.0-1.4","1","null","","","","Images/BlackBeadChoiceMM.png","null"
"image-keyboard-response","642","576934","0.0-7.0-2.4","1","null","","","","Images/BlackBeadChoiceWrongMM.png","null"
"image-keyboard-response","643","577608","0.0-7.0-0.5","1","670.0599999167025","","","","Images/NewTrialWCMM.png","39"
"image-keyboard-response","644","577862","0.0-7.0-1.5","1","null","","","","Images/WhiteBeadChoiceMM.png","null"
"image-keyboard-response","645","578366","0.0-7.0-2.5","1","null","","","","Images/WhiteBeadChoiceCorrectMM.png","null"
"image-keyboard-response","646","578917","0.0-7.0-0.6","1","549.0149999968708","","","","Images/NewTrialWCMM.png","39"
"image-keyboard-response","647","579169","0.0-7.0-1.6","1","null","","","","Images/WhiteBeadChoiceMM.png","null"
"image-keyboard-response","648","579671","0.0-7.0-2.6","1","null","","","","Images/WhiteBeadChoiceCorrectMM.png","null"
"image-keyboard-response","649","580243","0.0-7.0-0.7","1","570.039999904111","","","","Images/NewTrialWCMM.png","39"
"image-keyboard-response","650","580500","0.0-7.0-1.7","1","null","","","","Images/WhiteBeadChoiceMM.png","null"
"image-keyboard-response","651","581003","0.0-7.0-2.7","1","null","","","","Images/WhiteBeadChoiceCorrectMM.png","null"
"image-keyboard-response","652","581492","0.0-7.0-0.8","1","485.60000001452863","","","","Images/NewTrialWCMM.png","39"
"image-keyboard-response","653","581748","0.0-7.0-1.8","1","null","","","","Images/WhiteBeadChoiceMM.png","null"
"image-keyboard-response","654","582252","0.0-7.0-2.8","1","null","","","","Images/WhiteBeadChoiceCorrectMM.png","null"
"image-keyboard-response","655","582924","0.0-7.0-0.9","1","670.5599999986589","","","","Images/NewTrialWCMM.png","39"
"image-keyboard-response","656","583180","0.0-7.0-1.9","1","null","","","","Images/WhiteBeadChoiceMM.png","null"
"image-keyboard-response","657","583687","0.0-7.0-2.9","1","null","","","","Images/WhiteBeadChoiceWrongMM.png","null"
"image-keyboard-response","658","584057","0.0-7.0-0.10","1","368.2699999772012","","","","Images/NewTrialBCMM.png","37"
"image-keyboard-response","659","584309","0.0-7.0-1.10","1","null","","","","Images/BlackBeadChoiceMM.png","null"
"image-keyboard-response","660","584812","0.0-7.0-2.10","1","null","","","","Images/BlackBeadChoiceCorrectMM.png","null"
"image-keyboard-response","661","585244","0.0-7.0-0.11","1","429.38999994657934","","","","Images/NewTrialBCMM.png","37"
"image-keyboard-response","662","585501","0.0-7.0-1.11","1","null","","","","Images/BlackBeadChoiceMM.png","null"
"image-keyboard-response","663","586004","0.0-7.0-2.11","1","null","","","","Images/BlackBeadChoiceWrongMM.png","null"
"image-keyboard-response","664","586904","0.0-7.0-0.12","1","897.7050001267344","","","","Images/NewTrialWCMM.png","39"
"image-keyboard-response","665","587157","0.0-7.0-1.12","1","null","","","","Images/WhiteBeadChoiceMM.png","null"
"image-keyboard-response","666","587661","0.0-7.0-2.12","1","null","","","","Images/WhiteBeadChoiceCorrectMM.png","null"
"image-keyboard-response","667","588007","0.0-7.0-0.13","1","343.46999996341765","","","","Images/NewTrialWCMM.png","39"
"image-keyboard-response","668","588262","0.0-7.0-1.13","1","null","","","","Images/WhiteBeadChoiceMM.png","null"
"image-keyboard-response","669","588764","0.0-7.0-2.13","1","null","","","","Images/WhiteBeadChoiceCorrectMM.png","null"
"image-keyboard-response","670","589040","0.0-7.0-0.14","1","274.51499993912876","","","","Images/NewTrialWCMM.png","39"
"image-keyboard-response","671","589295","0.0-7.0-1.14","1","null","","","","Images/WhiteBeadChoiceMM.png","null"
"image-keyboard-response","672","589800","0.0-7.0-2.14","1","null","","","","Images/WhiteBeadChoiceCorrectMM.png","null"
"image-keyboard-response","673","590084","0.0-7.0-0.15","1","282.49499993398786","","","","Images/NewTrialWCMM.png","37"
"image-keyboard-response","674","590337","0.0-7.0-1.15","1","null","","","","Images/BlackBeadChoiceMM.png","null"
"image-keyboard-response","675","590840","0.0-7.0-2.15","1","null","","","","Images/BlackBeadChoiceWrongMM.png","null"
"image-keyboard-response","676","591155","0.0-7.0-0.16","1","314.2399999778718","","","","Images/NewTrialWCMM.png","37"
"image-keyboard-response","677","591411","0.0-7.0-1.16","1","null","","","","Images/BlackBeadChoiceMM.png","null"
"image-keyboard-response","678","591914","0.0-7.0-2.16","1","null","","","","Images/BlackBeadChoiceWrongMM.png","null"
"image-keyboard-response","679","592268","0.0-7.0-0.17","1","351.29999998025596","","","","Images/NewTrialWCMM.png","37"
"image-keyboard-response","680","592519","0.0-7.0-1.17","1","null","","","","Images/BlackBeadChoiceMM.png","null"
"image-keyboard-response","681","593025","0.0-7.0-2.17","1","null","","","","Images/BlackBeadChoiceWrongMM.png","null"
"image-keyboard-response","682","593359","0.0-7.0-0.18","1","332.33499992638826","","","","Images/NewTrialWCMM.png","39"
"image-keyboard-response","683","593613","0.0-7.0-1.18","1","null","","","","Images/WhiteBeadChoiceMM.png","null"
"image-keyboard-response","684","594117","0.0-7.0-2.18","1","null","","","","Images/WhiteBeadChoiceCorrectMM.png","null"
"image-keyboard-response","685","594536","0.0-7.0-0.19","1","416.64499999023974","","","","Images/NewTrialWCMM.png","39"
"image-keyboard-response","686","594791","0.0-7.0-1.19","1","null","","","","Images/WhiteBeadChoiceMM.png","null"
"image-keyboard-response","687","595296","0.0-7.0-2.19","1","null","","","","Images/WhiteBeadChoiceCorrectMM.png","null"
"image-keyboard-response","688","595752","0.0-7.0-0.20","1","454.67500016093254","","","","Images/NewTrialWCMM.png","39"
"image-keyboard-response","689","596010","0.0-7.0-1.20","1","null","","","","Images/WhiteBeadChoiceMM.png","null"
"image-keyboard-response","690","596512","0.0-7.0-2.20","1","null","","","","Images/WhiteBeadChoiceCorrectMM.png","null"
"image-keyboard-response","691","596868","0.0-7.0-0.21","1","354.3900002259761","","","","Images/NewTrialWCMM.png","39"
"image-keyboard-response","692","597120","0.0-7.0-1.21","1","null","","","","Images/WhiteBeadChoiceMM.png","null"
"image-keyboard-response","693","597624","0.0-7.0-2.21","1","null","","","","Images/WhiteBeadChoiceCorrectMM.png","null"
"image-keyboard-response","694","598304","0.0-7.0-0.22","1","677.8450000565499","","","","Images/NewTrialWCMM.png","39"
"image-keyboard-response","695","598558","0.0-7.0-1.22","1","null","","","","Images/WhiteBeadChoiceMM.png","null"
"image-keyboard-response","696","599061","0.0-7.0-2.22","1","null","","","","Images/WhiteBeadChoiceWrongMM.png","null"
"image-keyboard-response","697","600341","0.0-7.0-0.23","1","1278.470000019297","","","","Images/NewTrialBCMM.png","37"
"image-keyboard-response","698","600593","0.0-7.0-1.23","1","null","","","","Images/BlackBeadChoiceMM.png","null"
"image-keyboard-response","699","601095","0.0-7.0-2.23","1","null","","","","Images/BlackBeadChoiceCorrectMM.png","null"
"image-keyboard-response","700","602804","0.0-7.0-0.24","1","1707.410000031814","","","","Images/NewTrialBCMM.png","37"
"image-keyboard-response","701","603058","0.0-7.0-1.24","1","null","","","","Images/BlackBeadChoiceMM.png","null"
"image-keyboard-response","702","603560","0.0-7.0-2.24","1","null","","","","Images/BlackBeadChoiceCorrectMM.png","null"
"image-keyboard-response","703","604052","0.0-7.0-0.25","1","489.9949999526143","","","","Images/NewTrialBCMM.png","37"
"image-keyboard-response","704","604304","0.0-7.0-1.25","1","null","","","","Images/BlackBeadChoiceMM.png","null"
"image-keyboard-response","705","604807","0.0-7.0-2.25","1","null","","","","Images/BlackBeadChoiceWrongMM.png","null"
"image-keyboard-response","706","605368","0.0-7.0-0.26","1","558.4650000091642","","","","Images/NewTrialWCMM.png","39"
"image-keyboard-response","707","605622","0.0-7.0-1.26","1","null","","","","Images/WhiteBeadChoiceMM.png","null"
"image-keyboard-response","708","606130","0.0-7.0-2.26","1","null","","","","Images/WhiteBeadChoiceWrongMM.png","null"
"image-keyboard-response","709","606404","0.0-7.0-0.27","1","272.1649999730289","","","","Images/NewTrialBCMM.png","37"
"image-keyboard-response","710","606658","0.0-7.0-1.27","1","null","","","","Images/BlackBeadChoiceMM.png","null"
"image-keyboard-response","711","607161","0.0-7.0-2.27","1","null","","","","Images/BlackBeadChoiceCorrectMM.png","null"
"image-keyboard-response","712","607452","0.0-7.0-0.28","1","288.48000010475516","","","","Images/NewTrialBCMM.png","37"
"image-keyboard-response","713","607707","0.0-7.0-1.28","1","null","","","","Images/BlackBeadChoiceMM.png","null"
"image-keyboard-response","714","608210","0.0-7.0-2.28","1","null","","","","Images/BlackBeadChoiceCorrectMM.png","null"
"image-keyboard-response","715","608472","0.0-7.0-0.29","1","259.19999997131526","","","","Images/NewTrialBCMM.png","37"
"image-keyboard-response","716","608726","0.0-7.0-1.29","1","null","","","","Images/BlackBeadChoiceMM.png","null"
"image-keyboard-response","717","609231","0.0-7.0-2.29","1","null","","","","Images/BlackBeadChoiceCorrectMM.png","null"
"image-keyboard-response","718","609563","0.0-7.0-0.30","1","330.73499985039234","","","","Images/NewTrialBCMM.png","39"
"image-keyboard-response","719","609819","0.0-7.0-1.30","1","null","","","","Images/WhiteBeadChoiceMM.png","null"
"image-keyboard-response","720","610321","0.0-7.0-2.30","1","null","","","","Images/WhiteBeadChoiceWrongMM.png","null"
"image-keyboard-response","721","610693","0.0-7.0-0.31","1","370.06499990820885","","","","Images/NewTrialBCMM.png","39"
"image-keyboard-response","722","610945","0.0-7.0-1.31","1","null","","","","Images/WhiteBeadChoiceMM.png","null"
"image-keyboard-response","723","611446","0.0-7.0-2.31","1","null","","","","Images/WhiteBeadChoiceWrongMM.png","null"
"image-keyboard-response","724","611716","0.0-7.0-0.32","1","267.51499995589256","","","","Images/NewTrialBCMM.png","37"
"image-keyboard-response","725","611971","0.0-7.0-1.32","1","null","","","","Images/BlackBeadChoiceMM.png","null"
"image-keyboard-response","726","612473","0.0-7.0-2.32","1","null","","","","Images/BlackBeadChoiceCorrectMM.png","null"
"image-keyboard-response","727","613024","0.0-7.0-0.33","1","548.769999993965","","","","Images/NewTrialBCMM.png","37"
"image-keyboard-response","728","613277","0.0-7.0-1.33","1","null","","","","Images/BlackBeadChoiceMM.png","null"
"image-keyboard-response","729","613782","0.0-7.0-2.33","1","null","","","","Images/BlackBeadChoiceCorrectMM.png","null"
"image-keyboard-response","730","614284","0.0-7.0-0.34","1","499.6450000908226","","","","Images/NewTrialBCMM.png","37"
"image-keyboard-response","731","614536","0.0-7.0-1.34","1","null","","","","Images/BlackBeadChoiceMM.png","null"
"image-keyboard-response","732","615040","0.0-7.0-2.34","1","null","","","","Images/BlackBeadChoiceCorrectMM.png","null"
"image-keyboard-response","733","615676","0.0-7.0-0.35","1","634.1150000225753","","","","Images/NewTrialBCMM.png","37"
"image-keyboard-response","734","615933","0.0-7.0-1.35","1","null","","","","Images/BlackBeadChoiceMM.png","null"
"image-keyboard-response","735","616437","0.0-7.0-2.35","1","null","","","","Images/BlackBeadChoiceCorrectMM.png","null"
"image-keyboard-response","736","617640","0.0-7.0-0.36","1","1201.6050000675023","","","","Images/NewTrialBCMM.png","37"
"image-keyboard-response","737","617892","0.0-7.0-1.36","1","null","","","","Images/BlackBeadChoiceMM.png","null"
"image-keyboard-response","738","618399","0.0-7.0-2.36","1","null","","","","Images/BlackBeadChoiceCorrectMM.png","null"
"image-keyboard-response","739","619436","0.0-7.0-0.37","1","1035.5899999849498","","","","Images/NewTrialBCMM.png","37"
"image-keyboard-response","740","619691","0.0-7.0-1.37","1","null","","","","Images/BlackBeadChoiceMM.png","null"
"image-keyboard-response","741","620197","0.0-7.0-2.37","1","null","","","","Images/BlackBeadChoiceCorrectMM.png","null"
"image-keyboard-response","742","620608","0.0-7.0-0.38","1","408.9399999938905","","","","Images/NewTrialBCMM.png","37"
"image-keyboard-response","743","620864","0.0-7.0-1.38","1","null","","","","Images/BlackBeadChoiceMM.png","null"
"image-keyboard-response","744","621366","0.0-7.0-2.38","1","null","","","","Images/BlackBeadChoiceCorrectMM.png","null"
"image-keyboard-response","745","621697","0.0-7.0-0.39","1","328.8199999369681","","","","Images/NewTrialBCMM.png","37"
"image-keyboard-response","746","621952","0.0-7.0-1.39","1","null","","","","Images/BlackBeadChoiceMM.png","null"
"image-keyboard-response","747","622456","0.0-7.0-2.39","1","null","","","","Images/BlackBeadChoiceCorrectMM.png","null"
"image-keyboard-response","748","623156","0.0-7.0-0.40","1","699.104999890551","","","","Images/NewTrialBCMM.png","37"
"image-keyboard-response","749","623412","0.0-7.0-1.40","1","null","","","","Images/BlackBeadChoiceMM.png","null"
"image-keyboard-response","750","623915","0.0-7.0-2.40","1","null","","","","Images/BlackBeadChoiceCorrectMM.png","null"
"image-keyboard-response","751","624468","0.0-7.0-0.41","1","550.8699999190867","","","","Images/NewTrialBCMM.png","37"
"image-keyboard-response","752","624720","0.0-7.0-1.41","1","null","","","","Images/BlackBeadChoiceMM.png","null"
"image-keyboard-response","753","625228","0.0-7.0-2.41","1","null","","","","Images/BlackBeadChoiceCorrectMM.png","null"
"image-keyboard-response","754","625524","0.0-7.0-0.42","1","293.8699999358505","","","","Images/NewTrialBCMM.png","37"
"image-keyboard-response","755","625777","0.0-7.0-1.42","1","null","","","","Images/BlackBeadChoiceMM.png","null"
"image-keyboard-response","756","626283","0.0-7.0-2.42","1","null","","","","Images/BlackBeadChoiceCorrectMM.png","null"
"image-keyboard-response","757","627256","0.0-7.0-0.43","1","970.7450000569224","","","","Images/NewTrialBCMM.png","37"
"image-keyboard-response","758","627510","0.0-7.0-1.43","1","null","","","","Images/BlackBeadChoiceMM.png","null"
"image-keyboard-response","759","628014","0.0-7.0-2.43","1","null","","","","Images/BlackBeadChoiceCorrectMM.png","null"
"image-keyboard-response","760","628884","0.0-7.0-0.44","1","868.0650000460446","","","","Images/NewTrialBCMM.png","37"
"image-keyboard-response","761","629137","0.0-7.0-1.44","1","null","","","","Images/BlackBeadChoiceMM.png","null"
"image-keyboard-response","762","629642","0.0-7.0-2.44","1","null","","","","Images/BlackBeadChoiceCorrectMM.png","null"
"image-keyboard-response","763","629940","0.0-7.0-0.45","1","295.8100000396371","","","","Images/NewTrialBCMM.png","37"
"image-keyboard-response","764","630193","0.0-7.0-1.45","1","null","","","","Images/BlackBeadChoiceMM.png","null"
"image-keyboard-response","765","630696","0.0-7.0-2.45","1","null","","","","Images/BlackBeadChoiceCorrectMM.png","null"
"image-keyboard-response","766","631985","0.0-7.0-0.46","1","1287.3949999921024","","","","Images/NewTrialBCMM.png","37"
"image-keyboard-response","767","632241","0.0-7.0-1.46","1","null","","","","Images/BlackBeadChoiceMM.png","null"
"image-keyboard-response","768","632744","0.0-7.0-2.46","1","null","","","","Images/BlackBeadChoiceCorrectMM.png","null"
"image-keyboard-response","769","633480","0.0-7.0-0.47","1","733.8349998462945","","","","Images/NewTrialBCMM.png","37"
"image-keyboard-response","770","633734","0.0-7.0-1.47","1","null","","","","Images/BlackBeadChoiceMM.png","null"
"image-keyboard-response","771","634243","0.0-7.0-2.47","1","null","","","","Images/BlackBeadChoiceCorrectMM.png","null"
"image-keyboard-response","772","634552","0.0-7.0-0.48","1","307.2150000371039","","","","Images/NewTrialBCMM.png","37"
"image-keyboard-response","773","634807","0.0-7.0-1.48","1","null","","","","Images/BlackBeadChoiceMM.png","null"
"image-keyboard-response","774","635311","0.0-7.0-2.48","1","null","","","","Images/BlackBeadChoiceCorrectMM.png","null"
"image-keyboard-response","775","636136","0.0-7.0-0.49","1","823.5550001263618","","","","Images/NewTrialBCMM.png","37"
"image-keyboard-response","776","636389","0.0-7.0-1.49","1","null","","","","Images/BlackBeadChoiceMM.png","null"
"image-keyboard-response","777","636894","0.0-7.0-2.49","1","473.4050000552088","","","","Images/BlackBeadChoiceCorrectMM.png","37"
"image-keyboard-response","778","637704","0.0-7.0-0.50","1","808.3049999549985","","","","Images/NewTrialBCMM.png","37"
"image-keyboard-response","779","637956","0.0-7.0-1.50","1","null","","","","Images/BlackBeadChoiceMM.png","null"
"image-keyboard-response","780","638463","0.0-7.0-2.50","1","null","","","","Images/BlackBeadChoiceCorrectMM.png","null"
"image-keyboard-response","781","639560","0.0-7.0-0.51","1","1094.939999980852","","","","Images/NewTrialBCMM.png","37"
"image-keyboard-response","782","639812","0.0-7.0-1.51","1","null","","","","Images/BlackBeadChoiceMM.png","null"
"image-keyboard-response","783","640315","0.0-7.0-2.51","1","null","","","","Images/BlackBeadChoiceCorrectMM.png","null"
"image-keyboard-response","784","640832","0.0-7.0-0.52","1","515.1950002182275","","","","Images/NewTrialBCMM.png","37"
"image-keyboard-response","785","641087","0.0-7.0-1.52","1","null","","","","Images/BlackBeadChoiceMM.png","null"
"image-keyboard-response","786","641592","0.0-7.0-2.52","1","null","","","","Images/BlackBeadChoiceWrongMM.png","null"
"image-keyboard-response","787","642137","0.0-7.0-0.53","1","543.4050001204014","","","","Images/NewTrialWCMM.png","39"
"image-keyboard-response","788","642391","0.0-7.0-1.53","1","null","","","","Images/WhiteBeadChoiceMM.png","null"
"image-keyboard-response","789","642894","0.0-7.0-2.53","1","null","","","","Images/WhiteBeadChoiceCorrectMM.png","null"
"image-keyboard-response","790","644104","0.0-7.0-0.54","1","1208.070000167936","","","","Images/NewTrialWCMM.png","39"
"image-keyboard-response","791","644356","0.0-7.0-1.54","1","null","","","","Images/WhiteBeadChoiceMM.png","null"
"image-keyboard-response","792","644861","0.0-7.0-2.54","1","null","","","","Images/WhiteBeadChoiceCorrectMM.png","null"
"image-keyboard-response","793","645452","0.0-7.0-0.55","1","588.9950001146644","","","","Images/NewTrialWCMM.png","39"
"image-keyboard-response","794","645705","0.0-7.0-1.55","1","null","","","","Images/WhiteBeadChoiceMM.png","null"
"image-keyboard-response","795","646212","0.0-7.0-2.55","1","null","","","","Images/WhiteBeadChoiceCorrectMM.png","null"
"image-keyboard-response","796","646448","0.0-7.0-0.56","1","233.839999884367","","","","Images/NewTrialWCMM.png","39"
"image-keyboard-response","797","646701","0.0-7.0-1.56","1","null","","","","Images/WhiteBeadChoiceMM.png","null"
"image-keyboard-response","798","647205","0.0-7.0-2.56","1","null","","","","Images/WhiteBeadChoiceCorrectMM.png","null"
"image-keyboard-response","799","647332","0.0-7.0-0.57","1","125.23499992676079","","","","Images/NewTrialWCMM.png","39"
"image-keyboard-response","800","647584","0.0-7.0-1.57","1","null","","","","Images/WhiteBeadChoiceMM.png","null"
"image-keyboard-response","801","648087","0.0-7.0-2.57","1","null","","","","Images/WhiteBeadChoiceCorrectMM.png","null"
"image-keyboard-response","802","648248","0.0-7.0-0.58","1","159.62999989278615","","","","Images/NewTrialWCMM.png","39"
"image-keyboard-response","803","648502","0.0-7.0-1.58","1","null","","","","Images/WhiteBeadChoiceMM.png","null"
"image-keyboard-response","804","649004","0.0-7.0-2.58","1","null","","","","Images/WhiteBeadChoiceCorrectMM.png","null"
"image-keyboard-response","805","649145","0.0-7.0-0.59","1","138.55000003241003","","","","Images/NewTrialWCMM.png","39"
"image-keyboard-response","806","649398","0.0-7.0-1.59","1","null","","","","Images/WhiteBeadChoiceMM.png","null"
"image-keyboard-response","807","649905","0.0-7.0-2.59","1","null","","","","Images/WhiteBeadChoiceCorrectMM.png","null"
"image-keyboard-response","808","650324","0.0-7.0-0.60","1","417.6049998495728","","","","Images/NewTrialWCMM.png","39"
"image-keyboard-response","809","650577","0.0-7.0-1.60","1","null","","","","Images/WhiteBeadChoiceMM.png","null"
"image-keyboard-response","810","651079","0.0-7.0-2.60","1","449.5300000999123","","","","Images/WhiteBeadChoiceCorrectMM.png","39"
"image-keyboard-response","811","651572","0.0-7.0-0.61","1","491.3850000593811","","","","Images/NewTrialWCMM.png","39"
"image-keyboard-response","812","651826","0.0-7.0-1.61","1","null","","","","Images/WhiteBeadChoiceMM.png","null"
"image-keyboard-response","813","652328","0.0-7.0-2.61","1","null","","","","Images/WhiteBeadChoiceWrongMM.png","null"
"image-keyboard-response","814","652626","0.0-7.0-0.62","1","295.7049999386072","","","","Images/NewTrialBCMM.png","37"
"image-keyboard-response","815","652878","0.0-7.0-1.62","1","null","","","","Images/BlackBeadChoiceMM.png","null"
