"trial_type","trial_index","time_elapsed","internal_node_id","Script_Picker","rt","url","responses","question_order","stimulus","key_press"
"pavlovia","0","3","0.0-0.0","17","","","","","",""
"external-html","1","14971","0.0-1.0-0.0","17","14884.084999997867","consent.html","","","",""
"survey-multi-choice","2","29921","0.0-1.0-1.0","17","14947.730000014417","","{""Q0"":""Female"",""Q1"":""White""}","[0,1]","",""
"survey-text","3","33029","0.0-1.0-2.0","17","3102.7800000156276","","{""Q0"":""22""}","","",""
"survey-text","4","40683","0.0-1.0-3.0","17","7547.770000004675","","{""Q0"":""5d2cd30f4d046f0016a74f85""}","","",""
"html-keyboard-response","5","136637","0.0-2.0-0.0","17","95845.08999998798","","","","<div class=""container"" style=""height:800px;width:800px;display:flex;flex-direction:column;justify-content:center;align-items:center;text-align:center;font-weight:normal;font-family:Arial;font-size:20px""><p>In this task you will see black or white beads being pulled from jars. <br><br>On each trial, a bead will be pulled from one of two jars. Once you see this bead, your goal is to predict the color of NEXT bead that will be pulled. <br> <br>Every time you correctly guess the color of the NEXT bead, you will get a point. The more points you get, the higher your win bonus at the end of the experiment <br><br>Press the SPACEBAR to continue.</p><div>","32"
"html-keyboard-response","6","144559","0.0-2.0-1.0","17","7920.920000004116","","","","<div class=""container"" style=""height:800px;width:800px;display:flex;flex-direction:column;justify-content:center;align-items:center;text-align:center;font-weight:normal;font-family:Arial;font-size:20px""><p>There are two types of jars:<br><br>1) Jars filled with ONLY white or black beads<br><br>2) Jars filled with 90% white or black beads and 10% of the opposite color mixed in<br><br>Press the SPACEBAR to continue. </p><div>","32"
"image-keyboard-response","7","149140","0.0-2.0-2.0","17","4579.005000006873","","","","resources/WhiteJar_MM.png","32"
"image-keyboard-response","8","149911","0.0-2.0-3.0","17","769.4250000058673","","","","resources/BlackJar_MM.png","32"
"image-keyboard-response","9","164005","0.0-2.0-4.0","17","14091.97999999742","","","","resources/WhiteJar_HMM.png","32"
"image-keyboard-response","10","167343","0.0-2.0-5.0","17","3337.230000004638","","","","resources/BlackJar_HMM.png","32"
"html-keyboard-response","11","194785","0.0-2.0-6.0","17","27439.769999997225","","","","<div class=""container"" style=""height:800px;width:800px;display:flex;flex-direction:column;justify-content:center;align-items:center;text-align:center;font-weight:normal;font-family:Arial;font-size:20px""><p>There will be four blocks of trials. In each block, you will see the pair of jars that beads will be pulled from.<br><br>The pair of jars used in each block will ONLY ever be 100% white and black jars, or 90/10 mixed jars. <br><br>The pair of jars in each block will not change until the next block.<br><br>Here are examples of what you will see on each trial.<br><br>Press the SPACEBAR to continue. </p><div>","32"
"image-keyboard-response","12","197791","0.0-2.0-7.0","17","3004.7150000173133","","","","Images/NoChoiceMM.png","32"
"image-keyboard-response","13","199815","0.0-2.0-8.0","17","2023.6849999928381","","","","Images/NoChoice.png","32"
"html-keyboard-response","14","219180","0.0-2.0-9.0","17","19363.68000000948","","","","<div class=""container"" style=""height:800px;width:800px;display:flex;flex-direction:column;justify-content:center;align-items:center;text-align:center;font-weight:normal;font-family:Arial;font-size:20px""><p> The jar the beads are pulled from is NOT choosen at random on each trial.<br><br>After each prediction, there will be a chance that the jars will switch, and that the next bead will be pulled from the opposite jar as the previous trial.<br><br>In each block, the chance that a jar will switch will either be LOW (the jars will not switch very often), or HIGH (the jars will switch almost all the time).<br><br>At the start of each block, you will be told the probability that the jars will switch on each trial. This switch probability will stay constant throughout the block.<br><br>Press the SPACEBAR to continue. </p><div>","32"
"image-keyboard-response","15","228000","0.0-2.0-10.0","17","8817.750000016531","","","","Images/TutorialBlackJarDrawMM.png","32"
"image-keyboard-response","16","229102","0.0-2.0-11.0","17","1100.9249999769963","","","","Images/TutorialWhiteJarDrawMM.png","32"
"html-keyboard-response","17","255529","0.0-2.0-12.0","17","26425.395000027493","","","","<div class=""container"" style=""height:800px;width:800px;display:flex;flex-direction:column;justify-content:center;align-items:center;text-align:center;font-weight:normal;font-family:Arial;font-size:20px""><p> When the jars are filled with only one color, each bead is guaranteed to have come from the same-colored jar. During these blocks, the best strategy is to use the jar switch probability to predict whether the next bead will be the same or different from the previous trial.<br><br> When the jars contain a mix of black and white beads, you will sometimes see black beads pulled from the mostly white jar, and white beads pulled from the mostly black jar. <br><br>Here is an example.<br><br>Press the SPACEBAR to continue.  </p><div>","32"
"image-keyboard-response","18","258670","0.0-2.0-13.0","17","3139.984999987064","","","","Images/TutorialWhiteJarDrawHMMC.png","32"
"image-keyboard-response","19","260556","0.0-2.0-14.0","17","1884.764999995241","","","","Images/TutorialBlackJarDrawHMMC.png","32"
"image-keyboard-response","20","261382","0.0-2.0-15.0","17","825.2199999988079","","","","Images/TutorialBlackJarDrawHMMI.png","32"
"html-keyboard-response","21","273637","0.0-2.0-16.0","17","12253.924999997253","","","","<div class=""container"" style=""height:800px;width:800px;display:flex;flex-direction:column;justify-content:center;align-items:center;text-align:center;font-weight:normal;font-family:Arial;font-size:20px""><p> As you observed, a white bead was pulled from a 90% white jar, the jars switched and a black bead was pulled from the 90% black jar, but then low-probability white bead was pulled from the 90% black jar. <br><br>In these mixed-jar blocks, you will first have to figure out which jar the current bead was pulled from, then use the jar switch probability to predict the color of the next bead.<br><br>Press SPACEBAR to conitnue.</p><div>","32"
"html-keyboard-response","22","276911","0.0-2.0-17.0","17","3272.2800000046846","","","","<div class=""container"" style=""height:800px;width:800px;display:flex;flex-direction:column;justify-content:center;align-items:center;text-align:center;font-weight:normal;font-family:Arial;font-size:20px""><p> You will now be given a 3 question quiz to make sure you understand the fundamentals. </p><div>","32"
"image-keyboard-response","23","287142","0.0-2.0-18.0","17","10229.74000000977","","","","Images/TutorialQuestion1.png","39"
"image-keyboard-response","24","297037","0.0-2.0-19.0","17","5933.255000010831","","","","Images/TutorialQuestion2.png","38"
"html-keyboard-response","25","327388","0.0-3.0","17","29035.200000012992","","","","<div class=""container"" style=""height:800px;width:800px;display:flex;flex-direction:column;justify-content:center;align-items:center;text-align:center;font-weight:normal;font-family:Arial;font-size:20px""><p>Loading episode&hellip;</p><div>","32"
"image-keyboard-response","26","335179","0.0-4.0-0.0","17","7788.770000013756","","","","Images/NoChoice.png","37"
"image-keyboard-response","27","335435","0.0-4.0-1.0","17","null","","","","Images/BlackBeadChoice.png","null"
"image-keyboard-response","28","335937","0.0-4.0-2.0","17","null","","","","Images/BlackBeadChoiceWrong.png","null"
"image-keyboard-response","29","343631","0.0-4.0-0.1","17","7692.240000003949","","","","Images/NewTrialWC.png","39"
"image-keyboard-response","30","343882","0.0-4.0-1.1","17","null","","","","Images/WhiteBeadChoice.png","null"
"image-keyboard-response","31","344389","0.0-4.0-2.1","17","null","","","","Images/WhiteBeadChoiceWrong.png","null"
"image-keyboard-response","32","347436","0.0-4.0-0.2","17","3045.4550000140443","","","","Images/NewTrialBC.png","37"
"image-keyboard-response","33","347688","0.0-4.0-1.2","17","null","","","","Images/BlackBeadChoice.png","null"
"image-keyboard-response","34","348191","0.0-4.0-2.2","17","null","","","","Images/BlackBeadChoiceCorrect.png","null"
"image-keyboard-response","35","349863","0.0-4.0-0.3","17","1670.3850000048988","","","","Images/NewTrialBC.png","37"
"image-keyboard-response","36","350119","0.0-4.0-1.3","17","null","","","","Images/BlackBeadChoice.png","null"
"image-keyboard-response","37","350624","0.0-4.0-2.3","17","null","","","","Images/BlackBeadChoiceCorrect.png","null"
"image-keyboard-response","38","353850","0.0-4.0-0.4","17","3224.625000002561","","","","Images/NewTrialBC.png","37"
"image-keyboard-response","39","354107","0.0-4.0-1.4","17","null","","","","Images/BlackBeadChoice.png","null"
"image-keyboard-response","40","354608","0.0-4.0-2.4","17","null","","","","Images/BlackBeadChoiceWrong.png","null"
"image-keyboard-response","41","354938","0.0-4.0-0.5","17","328.1299999798648","","","","Images/NewTrialWC.png","39"
"image-keyboard-response","42","355194","0.0-4.0-1.5","17","null","","","","Images/WhiteBeadChoice.png","null"
"image-keyboard-response","43","355700","0.0-4.0-2.5","17","null","","","","Images/WhiteBeadChoiceCorrect.png","null"
"image-keyboard-response","44","357520","0.0-4.0-0.6","17","1818.2849999866448","","","","Images/NewTrialWC.png","39"
"image-keyboard-response","45","357774","0.0-4.0-1.6","17","null","","","","Images/WhiteBeadChoice.png","null"
"image-keyboard-response","46","358280","0.0-4.0-2.6","17","null","","","","Images/WhiteBeadChoiceCorrect.png","null"
"image-keyboard-response","47","359124","0.0-4.0-0.7","17","842.4749999830965","","","","Images/NewTrialWC.png","37"
"image-keyboard-response","48","359376","0.0-4.0-1.7","17","null","","","","Images/BlackBeadChoice.png","null"
"image-keyboard-response","49","359882","0.0-4.0-2.7","17","null","","","","Images/BlackBeadChoiceWrong.png","null"
"image-keyboard-response","50","360211","0.0-4.0-0.8","17","326.9800000125542","","","","Images/NewTrialWC.png","39"
"image-keyboard-response","51","360467","0.0-4.0-1.8","17","null","","","","Images/WhiteBeadChoice.png","null"
"image-keyboard-response","52","360969","0.0-4.0-2.8","17","null","","","","Images/WhiteBeadChoiceCorrect.png","null"
"image-keyboard-response","53","361347","0.0-4.0-0.9","17","376.5349999885075","","","","Images/NewTrialWC.png","39"
"image-keyboard-response","54","361599","0.0-4.0-1.9","17","null","","","","Images/WhiteBeadChoice.png","null"
"image-keyboard-response","55","362101","0.0-4.0-2.9","17","null","","","","Images/WhiteBeadChoiceCorrect.png","null"
"image-keyboard-response","56","363138","0.0-4.0-0.10","17","1035.6200000096578","","","","Images/NewTrialWC.png","39"
"image-keyboard-response","57","363394","0.0-4.0-1.10","17","null","","","","Images/WhiteBeadChoice.png","null"
"image-keyboard-response","58","363901","0.0-4.0-2.10","17","null","","","","Images/WhiteBeadChoiceWrong.png","null"
"image-keyboard-response","59","364685","0.0-4.0-0.11","17","783.4300000104122","","","","Images/NewTrialBC.png","37"
"image-keyboard-response","60","364942","0.0-4.0-1.11","17","null","","","","Images/BlackBeadChoice.png","null"
"image-keyboard-response","61","365448","0.0-4.0-2.11","17","null","","","","Images/BlackBeadChoiceWrong.png","null"
"image-keyboard-response","62","367501","0.0-4.0-0.12","17","2051.130000007106","","","","Images/NewTrialWC.png","39"
"image-keyboard-response","63","367755","0.0-4.0-1.12","17","null","","","","Images/WhiteBeadChoice.png","null"
"image-keyboard-response","64","368261","0.0-4.0-2.12","17","null","","","","Images/WhiteBeadChoiceCorrect.png","null"
"image-keyboard-response","65","368912","0.0-4.0-0.13","17","649.4299999903888","","","","Images/NewTrialWC.png","39"
"image-keyboard-response","66","369168","0.0-4.0-1.13","17","null","","","","Images/WhiteBeadChoice.png","null"
"image-keyboard-response","67","369674","0.0-4.0-2.13","17","null","","","","Images/WhiteBeadChoiceWrong.png","null"
"image-keyboard-response","68","370522","0.0-4.0-0.14","17","846.3199999823701","","","","Images/NewTrialBC.png","37"
"image-keyboard-response","69","370778","0.0-4.0-1.14","17","null","","","","Images/BlackBeadChoice.png","null"
"image-keyboard-response","70","371284","0.0-4.0-2.14","17","null","","","","Images/BlackBeadChoiceWrong.png","null"
"image-keyboard-response","71","373267","0.0-4.0-0.15","17","1981.4149999874644","","","","Images/NewTrialWC.png","37"
"image-keyboard-response","72","373523","0.0-4.0-1.15","17","null","","","","Images/BlackBeadChoice.png","null"
"image-keyboard-response","73","374029","0.0-4.0-2.15","17","null","","","","Images/BlackBeadChoiceCorrect.png","null"
"image-keyboard-response","74","374405","0.0-4.0-0.16","17","375.58999998145737","","","","Images/NewTrialBC.png","39"
"image-keyboard-response","75","374662","0.0-4.0-1.16","17","null","","","","Images/WhiteBeadChoice.png","null"
"image-keyboard-response","76","375168","0.0-4.0-2.16","17","null","","","","Images/WhiteBeadChoiceWrong.png","null"
"image-keyboard-response","77","375519","0.0-4.0-0.17","17","349.16499999235384","","","","Images/NewTrialBC.png","37"
"image-keyboard-response","78","375772","0.0-4.0-1.17","17","null","","","","Images/BlackBeadChoice.png","null"
"image-keyboard-response","79","376276","0.0-4.0-2.17","17","null","","","","Images/BlackBeadChoiceWrong.png","null"
"image-keyboard-response","80","377443","0.0-4.0-0.18","17","1165.450000000419","","","","Images/NewTrialWC.png","39"
"image-keyboard-response","81","377699","0.0-4.0-1.18","17","null","","","","Images/WhiteBeadChoice.png","null"
"image-keyboard-response","82","378202","0.0-4.0-2.18","17","null","","","","Images/WhiteBeadChoiceWrong.png","null"
"image-keyboard-response","83","378482","0.0-4.0-0.19","17","279.01500000734814","","","","Images/NewTrialBC.png","37"
"image-keyboard-response","84","378735","0.0-4.0-1.19","17","null","","","","Images/BlackBeadChoice.png","null"
"image-keyboard-response","85","379241","0.0-4.0-2.19","17","null","","","","Images/BlackBeadChoiceCorrect.png","null"
"image-keyboard-response","86","379602","0.0-4.0-0.20","17","359.5950000162702","","","","Images/NewTrialBC.png","37"
"image-keyboard-response","87","379856","0.0-4.0-1.20","17","null","","","","Images/BlackBeadChoice.png","null"
"image-keyboard-response","88","380362","0.0-4.0-2.20","17","null","","","","Images/BlackBeadChoiceCorrect.png","null"
"image-keyboard-response","89","381312","0.0-4.0-0.21","17","948.9300000132062","","","","Images/NewTrialBC.png","37"
"image-keyboard-response","90","381568","0.0-4.0-1.21","17","null","","","","Images/BlackBeadChoice.png","null"
"image-keyboard-response","91","382075","0.0-4.0-2.21","17","null","","","","Images/BlackBeadChoiceCorrect.png","null"
"image-keyboard-response","92","383128","0.0-4.0-0.22","17","1052.6299999910407","","","","Images/NewTrialBC.png","37"
"image-keyboard-response","93","383385","0.0-4.0-1.22","17","null","","","","Images/BlackBeadChoice.png","null"
"image-keyboard-response","94","383891","0.0-4.0-2.22","17","null","","","","Images/BlackBeadChoiceCorrect.png","null"
"image-keyboard-response","95","384347","0.0-4.0-0.23","17","454.83500001137145","","","","Images/NewTrialBC.png","37"
"image-keyboard-response","96","384603","0.0-4.0-1.23","17","null","","","","Images/BlackBeadChoice.png","null"
"image-keyboard-response","97","385106","0.0-4.0-2.23","17","null","","","","Images/BlackBeadChoiceCorrect.png","null"
"image-keyboard-response","98","385229","0.0-4.0-0.24","17","121.38500000583008","","","","Images/NewTrialBC.png","39"
"image-keyboard-response","99","385485","0.0-4.0-1.24","17","null","","","","Images/WhiteBeadChoice.png","null"
"image-keyboard-response","100","385992","0.0-4.0-2.24","17","null","","","","Images/WhiteBeadChoiceWrong.png","null"
"image-keyboard-response","101","386495","0.0-4.0-0.25","17","501.69499998446554","","","","Images/NewTrialBC.png","37"
"image-keyboard-response","102","386748","0.0-4.0-1.25","17","null","","","","Images/BlackBeadChoice.png","null"
"image-keyboard-response","103","387255","0.0-4.0-2.25","17","null","","","","Images/BlackBeadChoiceWrong.png","null"
"image-keyboard-response","104","387619","0.0-4.0-0.26","17","362.7649999980349","","","","Images/NewTrialWC.png","39"
"image-keyboard-response","105","387873","0.0-4.0-1.26","17","null","","","","Images/WhiteBeadChoice.png","null"
"image-keyboard-response","106","388375","0.0-4.0-2.26","17","null","","","","Images/WhiteBeadChoiceCorrect.png","null"
"image-keyboard-response","107","388564","0.0-4.0-0.27","17","186.97000000975095","","","","Images/NewTrialWC.png","39"
"image-keyboard-response","108","388820","0.0-4.0-1.27","17","null","","","","Images/WhiteBeadChoice.png","null"
"image-keyboard-response","109","389326","0.0-4.0-2.27","17","null","","","","Images/WhiteBeadChoiceWrong.png","null"
"image-keyboard-response","110","389469","0.0-4.0-0.28","17","141.22999997925945","","","","Images/NewTrialBC.png","37"
"image-keyboard-response","111","389725","0.0-4.0-1.28","17","null","","","","Images/BlackBeadChoice.png","null"
"image-keyboard-response","112","390228","0.0-4.0-2.28","17","408.4300000104122","","","","Images/BlackBeadChoiceCorrect.png","37"
"image-keyboard-response","113","391073","0.0-4.0-0.29","17","843.2899999897927","","","","Images/NewTrialBC.png","37"
"image-keyboard-response","114","391328","0.0-4.0-1.29","17","null","","","","Images/BlackBeadChoice.png","null"
"image-keyboard-response","115","391835","0.0-4.0-2.29","17","null","","","","Images/BlackBeadChoiceCorrect.png","null"
"image-keyboard-response","116","392096","0.0-4.0-0.30","17","259.79999999981374","","","","Images/NewTrialBC.png","37"
"image-keyboard-response","117","392347","0.0-4.0-1.30","17","null","","","","Images/BlackBeadChoice.png","null"
"image-keyboard-response","118","392854","0.0-4.0-2.30","17","null","","","","Images/BlackBeadChoiceWrong.png","null"
"image-keyboard-response","119","393313","0.0-4.0-0.31","17","457.9000000085216","","","","Images/NewTrialWC.png","39"
"image-keyboard-response","120","393570","0.0-4.0-1.31","17","null","","","","Images/WhiteBeadChoice.png","null"
"image-keyboard-response","121","394076","0.0-4.0-2.31","17","null","","","","Images/WhiteBeadChoiceWrong.png","null"
"image-keyboard-response","122","395141","0.0-4.0-0.32","17","1063.4199999913108","","","","Images/NewTrialBC.png","37"
"image-keyboard-response","123","395394","0.0-4.0-1.32","17","null","","","","Images/BlackBeadChoice.png","null"
"image-keyboard-response","124","395900","0.0-4.0-2.32","17","null","","","","Images/BlackBeadChoiceWrong.png","null"
"image-keyboard-response","125","396613","0.0-4.0-0.33","17","711.6349999851082","","","","Images/NewTrialWC.png","39"
"image-keyboard-response","126","396864","0.0-4.0-1.33","17","null","","","","Images/WhiteBeadChoice.png","null"
"image-keyboard-response","127","397371","0.0-4.0-2.33","17","null","","","","Images/WhiteBeadChoiceCorrect.png","null"
"image-keyboard-response","128","398413","0.0-4.0-0.34","17","1041.044999990845","","","","Images/NewTrialWC.png","39"
"image-keyboard-response","129","398670","0.0-4.0-1.34","17","null","","","","Images/WhiteBeadChoice.png","null"
"image-keyboard-response","130","399176","0.0-4.0-2.34","17","null","","","","Images/WhiteBeadChoiceWrong.png","null"
"image-keyboard-response","131","399736","0.0-4.0-0.35","17","558.1499999971129","","","","Images/NewTrialBC.png","37"
"image-keyboard-response","132","399992","0.0-4.0-1.35","17","null","","","","Images/BlackBeadChoice.png","null"
"image-keyboard-response","133","400499","0.0-4.0-2.35","17","316.6849999979604","","","","Images/BlackBeadChoiceCorrect.png","37"
"image-keyboard-response","134","400866","0.0-4.0-0.36","17","366.0150000068825","","","","Images/NewTrialBC.png","37"
"image-keyboard-response","135","401121","0.0-4.0-1.36","17","null","","","","Images/BlackBeadChoice.png","null"
"image-keyboard-response","136","401628","0.0-4.0-2.36","17","360.4300000006333","","","","Images/BlackBeadChoiceCorrect.png","37"
"image-keyboard-response","137","401854","0.0-4.0-0.37","17","224.564999982249","","","","Images/NewTrialBC.png","37"
"image-keyboard-response","138","402110","0.0-4.0-1.37","17","null","","","","Images/BlackBeadChoice.png","null"
"image-keyboard-response","139","402616","0.0-4.0-2.37","17","395.31500000157394","","","","Images/BlackBeadChoiceCorrect.png","37"
"image-keyboard-response","140","402906","0.0-4.0-0.38","17","288.5299999907147","","","","Images/NewTrialBC.png","37"
"image-keyboard-response","141","403163","0.0-4.0-1.38","17","null","","","","Images/BlackBeadChoice.png","null"
"image-keyboard-response","142","403669","0.0-4.0-2.38","17","359.4900000025518","","","","Images/BlackBeadChoiceCorrect.png","37"
"image-keyboard-response","143","403950","0.0-4.0-0.39","17","279.0250000252854","","","","Images/NewTrialBC.png","37"
"image-keyboard-response","144","404206","0.0-4.0-1.39","17","null","","","","Images/BlackBeadChoice.png","null"
"image-keyboard-response","145","404712","0.0-4.0-2.39","17","350.4700000048615","","","","Images/BlackBeadChoiceCorrect.png","37"
"image-keyboard-response","146","405040","0.0-4.0-0.40","17","326.35499999742024","","","","Images/NewTrialBC.png","37"
"image-keyboard-response","147","405294","0.0-4.0-1.40","17","null","","","","Images/BlackBeadChoice.png","null"
"image-keyboard-response","148","405797","0.0-4.0-2.40","17","null","","","","Images/BlackBeadChoiceCorrect.png","null"
"image-keyboard-response","149","406034","0.0-4.0-0.41","17","235.61999999219552","","","","Images/NewTrialBC.png","37"
"image-keyboard-response","150","406290","0.0-4.0-1.41","17","null","","","","Images/BlackBeadChoice.png","null"
"image-keyboard-response","151","406795","0.0-4.0-2.41","17","null","","","","Images/BlackBeadChoiceCorrect.png","null"
"image-keyboard-response","152","407235","0.0-4.0-0.42","17","437.94999999227","","","","Images/NewTrialBC.png","37"
"image-keyboard-response","153","407491","0.0-4.0-1.42","17","null","","","","Images/BlackBeadChoice.png","null"
"image-keyboard-response","154","407998","0.0-4.0-2.42","17","null","","","","Images/BlackBeadChoiceCorrect.png","null"
"image-keyboard-response","155","408462","0.0-4.0-0.43","17","463.194999989355","","","","Images/NewTrialBC.png","37"
"image-keyboard-response","156","408718","0.0-4.0-1.43","17","null","","","","Images/BlackBeadChoice.png","null"
"image-keyboard-response","157","409226","0.0-4.0-2.43","17","null","","","","Images/BlackBeadChoiceCorrect.png","null"
"image-keyboard-response","158","409617","0.0-4.0-0.44","17","390.16999999876134","","","","Images/NewTrialBC.png","37"
"image-keyboard-response","159","409874","0.0-4.0-1.44","17","null","","","","Images/BlackBeadChoice.png","null"
"image-keyboard-response","160","410380","0.0-4.0-2.44","17","null","","","","Images/BlackBeadChoiceCorrect.png","null"
"image-keyboard-response","161","411377","0.0-4.0-0.45","17","995.4049999942072","","","","Images/NewTrialBC.png","37"
"image-keyboard-response","162","411632","0.0-4.0-1.45","17","null","","","","Images/BlackBeadChoice.png","null"
"image-keyboard-response","163","412137","0.0-4.0-2.45","17","360.50999999861233","","","","Images/BlackBeadChoiceCorrect.png","39"
"image-keyboard-response","164","412541","0.0-4.0-0.46","17","401.8950000172481","","","","Images/NewTrialBC.png","39"
"image-keyboard-response","165","412797","0.0-4.0-1.46","17","null","","","","Images/WhiteBeadChoice.png","null"
"image-keyboard-response","166","413303","0.0-4.0-2.46","17","446.4050000242423","","","","Images/WhiteBeadChoiceCorrect.png","37"
"image-keyboard-response","167","416178","0.0-4.0-0.47","17","2872.865000012098","","","","Images/NewTrialWC.png","39"
"image-keyboard-response","168","416433","0.0-4.0-1.47","17","null","","","","Images/WhiteBeadChoice.png","null"
"image-keyboard-response","169","416940","0.0-4.0-2.47","17","null","","","","Images/WhiteBeadChoiceWrong.png","null"
"image-keyboard-response","170","417341","0.0-4.0-0.48","17","399.7549999912735","","","","Images/NewTrialBC.png","37"
"image-keyboard-response","171","417597","0.0-4.0-1.48","17","null","","","","Images/BlackBeadChoice.png","null"
"image-keyboard-response","172","418103","0.0-4.0-2.48","17","null","","","","Images/BlackBeadChoiceCorrect.png","null"
"image-keyboard-response","173","418691","0.0-4.0-0.49","17","586.3200000021607","","","","Images/NewTrialBC.png","37"
"image-keyboard-response","174","418947","0.0-4.0-1.49","17","null","","","","Images/BlackBeadChoice.png","null"
"image-keyboard-response","175","419453","0.0-4.0-2.49","17","null","","","","Images/BlackBeadChoiceCorrect.png","null"
"image-keyboard-response","176","419712","0.0-4.0-0.50","17","256.920000014361","","","","Images/NewTrialBC.png","37"
"image-keyboard-response","177","419968","0.0-4.0-1.50","17","null","","","","Images/BlackBeadChoice.png","null"
"image-keyboard-response","178","420474","0.0-4.0-2.50","17","null","","","","Images/BlackBeadChoiceCorrect.png","null"
"image-keyboard-response","179","420916","0.0-4.0-0.51","17","440.23000000743195","","","","Images/NewTrialBC.png","37"
"image-keyboard-response","180","421172","0.0-4.0-1.51","17","null","","","","Images/BlackBeadChoice.png","null"
"image-keyboard-response","181","421679","0.0-4.0-2.51","17","null","","","","Images/BlackBeadChoiceWrong.png","null"
"image-keyboard-response","182","421982","0.0-4.0-0.52","17","301.97999998927116","","","","Images/NewTrialWC.png","39"
"image-keyboard-response","183","422238","0.0-4.0-1.52","17","null","","","","Images/WhiteBeadChoice.png","null"
"image-keyboard-response","184","422745","0.0-4.0-2.52","17","null","","","","Images/WhiteBeadChoiceCorrect.png","null"
"image-keyboard-response","185","423216","0.0-4.0-0.53","17","469.9949999921955","","","","Images/NewTrialWC.png","39"
"image-keyboard-response","186","423472","0.0-4.0-1.53","17","null","","","","Images/WhiteBeadChoice.png","null"
"image-keyboard-response","187","423975","0.0-4.0-2.53","17","null","","","","Images/WhiteBeadChoiceCorrect.png","null"
"image-keyboard-response","188","424409","0.0-4.0-0.54","17","433.06499999016523","","","","Images/NewTrialWC.png","39"
"image-keyboard-response","189","424663","0.0-4.0-1.54","17","null","","","","Images/WhiteBeadChoice.png","null"
"image-keyboard-response","190","425168","0.0-4.0-2.54","17","null","","","","Images/WhiteBeadChoiceCorrect.png","null"
"image-keyboard-response","191","425445","0.0-4.0-0.55","17","275.9399999922607","","","","Images/NewTrialWC.png","39"
"image-keyboard-response","192","425701","0.0-4.0-1.55","17","null","","","","Images/WhiteBeadChoice.png","null"
"image-keyboard-response","193","426208","0.0-4.0-2.55","17","null","","","","Images/WhiteBeadChoiceCorrect.png","null"
"image-keyboard-response","194","426483","0.0-4.0-0.56","17","274.4349999993574","","","","Images/NewTrialWC.png","39"
"image-keyboard-response","195","426740","0.0-4.0-1.56","17","null","","","","Images/WhiteBeadChoice.png","null"
"image-keyboard-response","196","427246","0.0-4.0-2.56","17","null","","","","Images/WhiteBeadChoiceCorrect.png","null"
"image-keyboard-response","197","427464","0.0-4.0-0.57","17","217.0849999820348","","","","Images/NewTrialWC.png","39"
"image-keyboard-response","198","427720","0.0-4.0-1.57","17","null","","","","Images/WhiteBeadChoice.png","null"
"image-keyboard-response","199","428226","0.0-4.0-2.57","17","null","","","","Images/WhiteBeadChoiceWrong.png","null"
"image-keyboard-response","200","428459","0.0-4.0-0.58","17","231.97999998228624","","","","Images/NewTrialBC.png","37"
"image-keyboard-response","201","428710","0.0-4.0-1.58","17","null","","","","Images/BlackBeadChoice.png","null"
"image-keyboard-response","202","429213","0.0-4.0-2.58","17","null","","","","Images/BlackBeadChoiceCorrect.png","null"
"image-keyboard-response","203","429384","0.0-4.0-0.59","17","170.060000004014","","","","Images/NewTrialBC.png","37"
"image-keyboard-response","204","429641","0.0-4.0-1.59","17","null","","","","Images/BlackBeadChoice.png","null"
"image-keyboard-response","205","430147","0.0-4.0-2.59","17","400.31500000623055","","","","Images/BlackBeadChoiceCorrect.png","37"
"image-keyboard-response","206","430797","0.0-4.0-0.60","17","648.7299999862444","","","","Images/NewTrialBC.png","37"
"image-keyboard-response","207","431050","0.0-4.0-1.60","17","null","","","","Images/BlackBeadChoice.png","null"
"image-keyboard-response","208","431556","0.0-4.0-2.60","17","382.34499999089167","","","","Images/BlackBeadChoiceCorrect.png","37"
"image-keyboard-response","209","431865","0.0-4.0-0.61","17","307.0350000052713","","","","Images/NewTrialBC.png","37"
"image-keyboard-response","210","432121","0.0-4.0-1.61","17","null","","","","Images/BlackBeadChoice.png","null"
"image-keyboard-response","211","432622","0.0-4.0-2.61","17","null","","","","Images/BlackBeadChoiceWrong.png","null"
"image-keyboard-response","212","433119","0.0-4.0-0.62","17","495.82000001100823","","","","Images/NewTrialWC.png","39"
"image-keyboard-response","213","433376","0.0-4.0-1.62","17","null","","","","Images/WhiteBeadChoice.png","null"
"image-keyboard-response","214","433882","0.0-4.0-2.62","17","429.4649999937974","","","","Images/WhiteBeadChoiceCorrect.png","39"
"image-keyboard-response","215","434289","0.0-4.0-0.63","17","405.68999998504296","","","","Images/NewTrialWC.png","39"
"image-keyboard-response","216","434545","0.0-4.0-1.63","17","null","","","","Images/WhiteBeadChoice.png","null"
"image-keyboard-response","217","435052","0.0-4.0-2.63","17","287.75500002666377","","","","Images/WhiteBeadChoiceCorrect.png","39"
"image-keyboard-response","218","435192","0.0-4.0-0.64","17","139.035000000149","","","","Images/NewTrialWC.png","39"
"image-keyboard-response","219","435448","0.0-4.0-1.64","17","null","","","","Images/WhiteBeadChoice.png","null"
"image-keyboard-response","220","435955","0.0-4.0-2.64","17","299.60500000743195","","","","Images/WhiteBeadChoiceCorrect.png","37"
"image-keyboard-response","221","436638","0.0-4.0-0.65","17","682.0500000030734","","","","Images/NewTrialWC.png","39"
"image-keyboard-response","222","436894","0.0-4.0-1.65","17","null","","","","Images/WhiteBeadChoice.png","null"
"image-keyboard-response","223","437400","0.0-4.0-2.65","17","338.0600000091363","","","","Images/WhiteBeadChoiceCorrect.png","37"
"image-keyboard-response","224","438116","0.0-4.0-0.66","17","714.6249999932479","","","","Images/NewTrialWC.png","39"
"image-keyboard-response","225","438372","0.0-4.0-1.66","17","null","","","","Images/WhiteBeadChoice.png","null"
"image-keyboard-response","226","438879","0.0-4.0-2.66","17","null","","","","Images/WhiteBeadChoiceCorrect.png","null"
"image-keyboard-response","227","438990","0.0-4.0-0.67","17","109.70500000985339","","","","Images/NewTrialWC.png","39"
"image-keyboard-response","228","439247","0.0-4.0-1.67","17","null","","","","Images/WhiteBeadChoice.png","null"
"image-keyboard-response","229","439753","0.0-4.0-2.67","17","413.395000010496","","","","Images/WhiteBeadChoiceCorrect.png","39"
"image-keyboard-response","230","440134","0.0-4.0-0.68","17","379.27000000490807","","","","Images/NewTrialWC.png","39"
"image-keyboard-response","231","440390","0.0-4.0-1.68","17","null","","","","Images/WhiteBeadChoice.png","null"
"image-keyboard-response","232","440893","0.0-4.0-2.68","17","359.3399999954272","","","","Images/WhiteBeadChoiceCorrect.png","37"
"image-keyboard-response","233","441481","0.0-4.0-0.69","17","586.0150000080466","","","","Images/NewTrialWC.png","39"
"image-keyboard-response","234","441735","0.0-4.0-1.69","17","null","","","","Images/WhiteBeadChoice.png","null"
"image-keyboard-response","235","442241","0.0-4.0-2.69","17","316.3300000014715","","","","Images/WhiteBeadChoiceCorrect.png","39"
"image-keyboard-response","236","442514","0.0-4.0-0.70","17","271.6800000052899","","","","Images/NewTrialWC.png","39"
"image-keyboard-response","237","442770","0.0-4.0-1.70","17","null","","","","Images/WhiteBeadChoice.png","null"
"image-keyboard-response","238","443277","0.0-4.0-2.70","17","340.68500000284985","","","","Images/WhiteBeadChoiceCorrect.png","39"
"image-keyboard-response","239","443536","0.0-4.0-0.71","17","258.2750000001397","","","","Images/NewTrialWC.png","39"
"image-keyboard-response","240","443788","0.0-4.0-1.71","17","null","","","","Images/WhiteBeadChoice.png","null"
"image-keyboard-response","241","444290","0.0-4.0-2.71","17","294.6749999828171","","","","Images/WhiteBeadChoiceCorrect.png","39"
"image-keyboard-response","242","444774","0.0-4.0-0.72","17","482.5750000018161","","","","Images/NewTrialWC.png","39"
"image-keyboard-response","243","445030","0.0-4.0-1.72","17","null","","","","Images/WhiteBeadChoice.png","null"
"image-keyboard-response","244","445532","0.0-4.0-2.72","17","354.8249999876134","","","","Images/WhiteBeadChoiceCorrect.png","39"
"image-keyboard-response","245","445832","0.0-4.0-0.73","17","298.5499999776948","","","","Images/NewTrialWC.png","39"
"image-keyboard-response","246","446088","0.0-4.0-1.73","17","null","","","","Images/WhiteBeadChoice.png","null"
"image-keyboard-response","247","446595","0.0-4.0-2.73","17","424.6149999962654","","","","Images/WhiteBeadChoiceCorrect.png","39"
"image-keyboard-response","248","446915","0.0-4.0-0.74","17","319.01000000652857","","","","Images/NewTrialWC.png","39"
"image-keyboard-response","249","447171","0.0-4.0-1.74","17","null","","","","Images/WhiteBeadChoice.png","null"
"image-keyboard-response","250","447676","0.0-4.0-2.74","17","412.7149999840185","","","","Images/WhiteBeadChoiceCorrect.png","39"
"image-keyboard-response","251","448089","0.0-4.0-0.75","17","411.3749999960419","","","","Images/NewTrialWC.png","39"
"image-keyboard-response","252","448345","0.0-4.0-1.75","17","null","","","","Images/WhiteBeadChoice.png","null"
"image-keyboard-response","253","448851","0.0-4.0-2.75","17","325.3850000037346","","","","Images/WhiteBeadChoiceCorrect.png","39"
"image-keyboard-response","254","449124","0.0-4.0-0.76","17","270.85999998962507","","","","Images/NewTrialWC.png","39"
"image-keyboard-response","255","449376","0.0-4.0-1.76","17","null","","","","Images/WhiteBeadChoice.png","null"
"image-keyboard-response","256","449878","0.0-4.0-2.76","17","339.5400000154041","","","","Images/WhiteBeadChoiceCorrect.png","39"
"image-keyboard-response","257","450225","0.0-4.0-0.77","17","345.9850000217557","","","","Images/NewTrialWC.png","39"
"image-keyboard-response","258","450481","0.0-4.0-1.77","17","null","","","","Images/WhiteBeadChoice.png","null"
"image-keyboard-response","259","450983","0.0-4.0-2.77","17","324.1600000183098","","","","Images/WhiteBeadChoiceCorrect.png","39"
"image-keyboard-response","260","451363","0.0-4.0-0.78","17","379.1549999732524","","","","Images/NewTrialWC.png","39"
"image-keyboard-response","261","451617","0.0-4.0-1.78","17","null","","","","Images/WhiteBeadChoice.png","null"
"image-keyboard-response","262","452118","0.0-4.0-2.78","17","340.00000002561137","","","","Images/WhiteBeadChoiceCorrect.png","39"
"image-keyboard-response","263","452492","0.0-4.0-0.79","17","372.02999999863096","","","","Images/NewTrialWC.png","39"
"image-keyboard-response","264","452748","0.0-4.0-1.79","17","null","","","","Images/WhiteBeadChoice.png","null"
"image-keyboard-response","265","453251","0.0-4.0-2.79","17","342.73999999277294","","","","Images/WhiteBeadChoiceCorrect.png","39"
"image-keyboard-response","266","453628","0.0-4.0-0.80","17","375.82499999552965","","","","Images/NewTrialWC.png","39"
"image-keyboard-response","267","453880","0.0-4.0-1.80","17","null","","","","Images/WhiteBeadChoice.png","null"
"image-keyboard-response","268","454382","0.0-4.0-2.80","17","340.18500000820495","","","","Images/WhiteBeadChoiceCorrect.png","39"
"image-keyboard-response","269","454734","0.0-4.0-0.81","17","350.155000021914","","","","Images/NewTrialWC.png","39"
"image-keyboard-response","270","454990","0.0-4.0-1.81","17","null","","","","Images/WhiteBeadChoice.png","null"
"image-keyboard-response","271","455495","0.0-4.0-2.81","17","null","","","","Images/WhiteBeadChoiceWrong.png","null"
"image-keyboard-response","272","457467","0.0-4.0-0.82","17","1971.1949999909848","","","","Images/NewTrialBC.png","39"
"image-keyboard-response","273","457724","0.0-4.0-1.82","17","null","","","","Images/WhiteBeadChoice.png","null"
"image-keyboard-response","274","458227","0.0-4.0-2.82","17","null","","","","Images/WhiteBeadChoiceWrong.png","null"
"image-keyboard-response","275","458569","0.0-4.0-0.83","17","340.2949999726843","","","","Images/NewTrialBC.png","37"
"image-keyboard-response","276","458825","0.0-4.0-1.83","17","null","","","","Images/BlackBeadChoice.png","null"
"image-keyboard-response","277","459332","0.0-4.0-2.83","17","455.454999988433","","","","Images/BlackBeadChoiceWrong.png","39"
"image-keyboard-response","278","459800","0.0-4.0-0.84","17","467.14500000234693","","","","Images/NewTrialWC.png","39"
"image-keyboard-response","279","460051","0.0-4.0-1.84","17","null","","","","Images/WhiteBeadChoice.png","null"
"image-keyboard-response","280","460558","0.0-4.0-2.84","17","350.40500000468455","","","","Images/WhiteBeadChoiceWrong.png","39"
"image-keyboard-response","281","460853","0.0-4.0-0.85","17","293.8150000118185","","","","Images/NewTrialBC.png","37"
"image-keyboard-response","282","461109","0.0-4.0-1.85","17","null","","","","Images/BlackBeadChoice.png","null"
"image-keyboard-response","283","461612","0.0-4.0-2.85","17","363.62499999813735","","","","Images/BlackBeadChoiceCorrect.png","37"
"image-keyboard-response","284","461931","0.0-4.0-0.86","17","317.74500000756234","","","","Images/NewTrialBC.png","37"
"image-keyboard-response","285","462185","0.0-4.0-1.86","17","null","","","","Images/BlackBeadChoice.png","null"
"image-keyboard-response","286","462691","0.0-4.0-2.86","17","309.26500001805834","","","","Images/BlackBeadChoiceCorrect.png","37"
"image-keyboard-response","287","462947","0.0-4.0-0.87","17","254.48500001220964","","","","Images/NewTrialBC.png","37"
"image-keyboard-response","288","463203","0.0-4.0-1.87","17","null","","","","Images/BlackBeadChoice.png","null"
"image-keyboard-response","289","463709","0.0-4.0-2.87","17","322.5899999961257","","","","Images/BlackBeadChoiceCorrect.png","37"
"image-keyboard-response","290","464137","0.0-4.0-0.88","17","426.1500000138767","","","","Images/NewTrialBC.png","37"
"image-keyboard-response","291","464391","0.0-4.0-1.88","17","null","","","","Images/BlackBeadChoice.png","null"
"image-keyboard-response","292","464897","0.0-4.0-2.88","17","289.12500001024455","","","","Images/BlackBeadChoiceCorrect.png","37"
"image-keyboard-response","293","465072","0.0-4.0-0.89","17","173.66000000038184","","","","Images/NewTrialBC.png","37"
"image-keyboard-response","294","465328","0.0-4.0-1.89","17","null","","","","Images/BlackBeadChoice.png","null"
"image-keyboard-response","295","465835","0.0-4.0-2.89","17","338.51999999023974","","","","Images/BlackBeadChoiceCorrect.png","37"
"image-keyboard-response","296","466083","0.0-4.0-0.90","17","246.58500001532957","","","","Images/NewTrialBC.png","37"
"image-keyboard-response","297","466339","0.0-4.0-1.90","17","null","","","","Images/BlackBeadChoice.png","null"
"image-keyboard-response","298","466846","0.0-4.0-2.90","17","229.57500000484288","","","","Images/BlackBeadChoiceCorrect.png","37"
"image-keyboard-response","299","466925","0.0-4.0-0.91","17","77.97499999287538","","","","Images/NewTrialBC.png","37"
"image-keyboard-response","300","467180","0.0-4.0-1.91","17","null","","","","Images/BlackBeadChoice.png","null"
"image-keyboard-response","301","467681","0.0-4.0-2.91","17","357.09499998483807","","","","Images/BlackBeadChoiceWrong.png","37"
"image-keyboard-response","302","468002","0.0-4.0-0.92","17","319.0349999931641","","","","Images/NewTrialWC.png","39"
"image-keyboard-response","303","468258","0.0-4.0-1.92","17","null","","","","Images/WhiteBeadChoice.png","null"
"image-keyboard-response","304","468764","0.0-4.0-2.92","17","285.68500000983477","","","","Images/WhiteBeadChoiceWrong.png","37"
"image-keyboard-response","305","469040","0.0-4.0-0.93","17","274.28499999223277","","","","Images/NewTrialBC.png","37"
"image-keyboard-response","306","469296","0.0-4.0-1.93","17","null","","","","Images/BlackBeadChoice.png","null"
"image-keyboard-response","307","469803","0.0-4.0-2.93","17","null","","","","Images/BlackBeadChoiceWrong.png","null"
"image-keyboard-response","308","469973","0.0-4.0-0.94","17","168.7099999981001","","","","Images/NewTrialWC.png","39"
"image-keyboard-response","309","470228","0.0-4.0-1.94","17","null","","","","Images/WhiteBeadChoice.png","null"
"image-keyboard-response","310","470733","0.0-4.0-2.94","17","362.0249999803491","","","","Images/WhiteBeadChoiceWrong.png","37"
"image-keyboard-response","311","471073","0.0-4.0-0.95","17","338.9049999823328","","","","Images/NewTrialBC.png","37"
"image-keyboard-response","312","471329","0.0-4.0-1.95","17","null","","","","Images/BlackBeadChoice.png","null"
"image-keyboard-response","313","471836","0.0-4.0-2.95","17","333.39000001433305","","","","Images/BlackBeadChoiceCorrect.png","37"
"image-keyboard-response","314","472118","0.0-4.0-0.96","17","280.7700000121258","","","","Images/NewTrialBC.png","37"
"image-keyboard-response","315","472373","0.0-4.0-1.96","17","null","","","","Images/BlackBeadChoice.png","null"
"image-keyboard-response","316","472879","0.0-4.0-2.96","17","293.10999999870546","","","","Images/BlackBeadChoiceWrong.png","37"
"image-keyboard-response","317","473387","0.0-4.0-0.97","17","506.0049999738112","","","","Images/NewTrialWC.png","39"
"image-keyboard-response","318","473643","0.0-4.0-1.97","17","null","","","","Images/WhiteBeadChoice.png","null"
"image-keyboard-response","319","474146","0.0-4.0-2.97","17","null","","","","Images/WhiteBeadChoiceCorrect.png","null"
"image-keyboard-response","320","474238","0.0-4.0-0.98","17","90.57499998016283","","","","Images/NewTrialWC.png","39"
"image-keyboard-response","321","474494","0.0-4.0-1.98","17","null","","","","Images/WhiteBeadChoice.png","null"
"image-keyboard-response","322","474998","0.0-4.0-2.98","17","318.65999998990446","","","","Images/WhiteBeadChoiceCorrect.png","39"
"image-keyboard-response","323","475353","0.0-4.0-0.99","17","352.94000001158565","","","","Images/NewTrialWC.png","39"
"image-keyboard-response","324","475609","0.0-4.0-1.99","17","null","","","","Images/WhiteBeadChoice.png","null"
"image-keyboard-response","325","476115","0.0-4.0-2.99","17","352.61000000173226","","","","Images/WhiteBeadChoiceCorrect.png","39"
"image-keyboard-response","326","476370","0.0-4.0-0.100","17","252.9999999969732","","","","Images/NewTrialWC.png","39"
"image-keyboard-response","327","476626","0.0-4.0-1.100","17","null","","","","Images/WhiteBeadChoice.png","null"
"image-keyboard-response","328","477131","0.0-4.0-2.100","17","309.6300000033807","","","","Images/WhiteBeadChoiceWrong.png","39"
"image-keyboard-response","329","477512","0.0-4.0-0.101","17","378.62499998300336","","","","Images/NewTrialBC.png","37"
"image-keyboard-response","330","477768","0.0-4.0-1.101","17","null","","","","Images/BlackBeadChoice.png","null"
"image-keyboard-response","331","478275","0.0-4.0-2.101","17","389.549999992596","","","","Images/BlackBeadChoiceCorrect.png","39"
"image-keyboard-response","332","478627","0.0-4.0-0.102","17","351.6700000036508","","","","Images/NewTrialBC.png","37"
"image-keyboard-response","333","478883","0.0-4.0-1.102","17","null","","","","Images/BlackBeadChoice.png","null"
"image-keyboard-response","334","479385","0.0-4.0-2.102","17","471.159999986412","","","","Images/BlackBeadChoiceWrong.png","39"
"image-keyboard-response","335","479711","0.0-4.0-0.103","17","325.1149999850895","","","","Images/NewTrialWC.png","39"
"image-keyboard-response","336","479968","0.0-4.0-1.103","17","null","","","","Images/WhiteBeadChoice.png","null"
"image-keyboard-response","337","480474","0.0-4.0-2.103","17","326.52500001131557","","","","Images/WhiteBeadChoiceCorrect.png","39"
"image-keyboard-response","338","480808","0.0-4.0-0.104","17","332.31999998679385","","","","Images/NewTrialWC.png","39"
"image-keyboard-response","339","481061","0.0-4.0-1.104","17","null","","","","Images/WhiteBeadChoice.png","null"
"image-keyboard-response","340","481563","0.0-4.0-2.104","17","308.32499999087304","","","","Images/WhiteBeadChoiceCorrect.png","39"
"image-keyboard-response","341","481895","0.0-4.0-0.105","17","330.2149999944959","","","","Images/NewTrialWC.png","39"
"image-keyboard-response","342","482147","0.0-4.0-1.105","17","null","","","","Images/WhiteBeadChoice.png","null"
"image-keyboard-response","343","482651","0.0-4.0-2.105","17","343.8099999912083","","","","Images/WhiteBeadChoiceCorrect.png","39"
"image-keyboard-response","344","482981","0.0-4.0-0.106","17","328.9900000090711","","","","Images/NewTrialWC.png","39"
"image-keyboard-response","345","483236","0.0-4.0-1.106","17","null","","","","Images/WhiteBeadChoice.png","null"
"image-keyboard-response","346","483743","0.0-4.0-2.106","17","435.3899999987334","","","","Images/WhiteBeadChoiceCorrect.png","39"
"image-keyboard-response","347","484161","0.0-4.0-0.107","17","416.77499999059364","","","","Images/NewTrialWC.png","39"
"image-keyboard-response","348","484417","0.0-4.0-1.107","17","null","","","","Images/WhiteBeadChoice.png","null"
"image-keyboard-response","349","484922","0.0-4.0-2.107","17","317.5950000004377","","","","Images/WhiteBeadChoiceCorrect.png","39"
"image-keyboard-response","350","485310","0.0-4.0-0.108","17","386.1249999899883","","","","Images/NewTrialWC.png","39"
"image-keyboard-response","351","485562","0.0-4.0-1.108","17","null","","","","Images/WhiteBeadChoice.png","null"
"image-keyboard-response","352","486065","0.0-4.0-2.108","17","403.66999999969266","","","","Images/WhiteBeadChoiceCorrect.png","39"
"image-keyboard-response","353","486411","0.0-4.0-0.109","17","345.1549999881536","","","","Images/NewTrialWC.png","39"
"image-keyboard-response","354","486669","0.0-4.0-1.109","17","null","","","","Images/WhiteBeadChoice.png","null"
"image-keyboard-response","355","487175","0.0-4.0-2.109","17","324.6000000217464","","","","Images/WhiteBeadChoiceCorrect.png","39"
"image-keyboard-response","356","487537","0.0-4.0-0.110","17","361.01000002236106","","","","Images/NewTrialWC.png","39"
"image-keyboard-response","357","487794","0.0-4.0-1.110","17","null","","","","Images/WhiteBeadChoice.png","null"
"image-keyboard-response","358","488300","0.0-4.0-2.110","17","294.7449999919627","","","","Images/WhiteBeadChoiceCorrect.png","39"
"image-keyboard-response","359","488584","0.0-4.0-0.111","17","283.1599999917671","","","","Images/NewTrialWC.png","39"
"image-keyboard-response","360","488837","0.0-4.0-1.111","17","null","","","","Images/WhiteBeadChoice.png","null"
"image-keyboard-response","361","489343","0.0-4.0-2.111","17","252.81000000541098","","","","Images/WhiteBeadChoiceCorrect.png","39"
"image-keyboard-response","362","489538","0.0-4.0-0.112","17","194.19499998912215","","","","Images/NewTrialWC.png","39"
"image-keyboard-response","363","489795","0.0-4.0-1.112","17","null","","","","Images/WhiteBeadChoice.png","null"
"image-keyboard-response","364","490296","0.0-4.0-2.112","17","304.81499998131767","","","","Images/WhiteBeadChoiceCorrect.png","39"
"image-keyboard-response","365","490530","0.0-4.0-0.113","17","231.97000002255663","","","","Images/NewTrialWC.png","39"
"image-keyboard-response","366","490781","0.0-4.0-1.113","17","null","","","","Images/WhiteBeadChoice.png","null"
"image-keyboard-response","367","491284","0.0-4.0-2.113","17","283.88500001165085","","","","Images/WhiteBeadChoiceCorrect.png","39"
"image-keyboard-response","368","491582","0.0-4.0-0.114","17","296.8549999932293","","","","Images/NewTrialWC.png","39"
"image-keyboard-response","369","491836","0.0-4.0-1.114","17","null","","","","Images/WhiteBeadChoice.png","null"
"image-keyboard-response","370","492343","0.0-4.0-2.114","17","270.924999989802","","","","Images/WhiteBeadChoiceCorrect.png","39"
"image-keyboard-response","371","492621","0.0-4.0-0.115","17","277.25500002270564","","","","Images/NewTrialWC.png","39"
"image-keyboard-response","372","492878","0.0-4.0-1.115","17","null","","","","Images/WhiteBeadChoice.png","null"
"image-keyboard-response","373","493384","0.0-4.0-2.115","17","329.67000000644475","","","","Images/WhiteBeadChoiceCorrect.png","39"
"image-keyboard-response","374","493678","0.0-4.0-0.116","17","293.16000000108033","","","","Images/NewTrialWC.png","39"
"image-keyboard-response","375","493934","0.0-4.0-1.116","17","null","","","","Images/WhiteBeadChoice.png","null"
"image-keyboard-response","376","494436","0.0-4.0-2.116","17","270.0649999896996","","","","Images/WhiteBeadChoiceWrong.png","39"
"image-keyboard-response","377","494896","0.0-4.0-0.117","17","458.67499997257255","","","","Images/NewTrialBC.png","37"
"image-keyboard-response","378","495153","0.0-4.0-1.117","17","null","","","","Images/BlackBeadChoice.png","null"
"image-keyboard-response","379","495656","0.0-4.0-2.117","17","488.6549999937415","","","","Images/BlackBeadChoiceCorrect.png","37"
"image-keyboard-response","380","496123","0.0-4.0-0.118","17","466.1900000064634","","","","Images/NewTrialBC.png","37"
"image-keyboard-response","381","496380","0.0-4.0-1.118","17","null","","","","Images/BlackBeadChoice.png","null"
"image-keyboard-response","382","496885","0.0-4.0-2.118","17","381.41999999061227","","","","Images/BlackBeadChoiceCorrect.png","37"
"image-keyboard-response","383","497249","0.0-4.0-0.119","17","361.90000001806766","","","","Images/NewTrialBC.png","37"
"image-keyboard-response","384","497502","0.0-4.0-1.119","17","null","","","","Images/BlackBeadChoice.png","null"
"image-keyboard-response","385","498007","0.0-4.0-2.119","17","371.9250000140164","","","","Images/BlackBeadChoiceCorrect.png","37"
"image-keyboard-response","386","498366","0.0-4.0-0.120","17","358.0800000054296","","","","Images/NewTrialBC.png","37"
"image-keyboard-response","387","498622","0.0-4.0-1.120","17","null","","","","Images/BlackBeadChoice.png","null"
"image-keyboard-response","388","499129","0.0-4.0-2.120","17","379.5950000057928","","","","Images/BlackBeadChoiceWrong.png","37"
"image-keyboard-response","389","499353","0.0-4.0-0.121","17","222.99499998916872","","","","Images/NewTrialWC.png","39"
"image-keyboard-response","390","499609","0.0-4.0-1.121","17","null","","","","Images/WhiteBeadChoice.png","null"
"image-keyboard-response","391","500114","0.0-4.0-2.121","17","368.8850000035018","","","","Images/WhiteBeadChoiceCorrect.png","37"
"image-keyboard-response","392","500374","0.0-4.0-0.122","17","257.8349999967031","","","","Images/NewTrialWC.png","39"
"image-keyboard-response","393","500630","0.0-4.0-1.122","17","null","","","","Images/WhiteBeadChoice.png","null"
"image-keyboard-response","394","501134","0.0-4.0-2.122","17","336.5699999849312","","","","Images/WhiteBeadChoiceCorrect.png","39"
"image-keyboard-response","395","501365","0.0-4.0-0.123","17","229.8900000168942","","","","Images/NewTrialWC.png","39"
"image-keyboard-response","396","501619","0.0-4.0-1.123","17","null","","","","Images/WhiteBeadChoice.png","null"
"image-keyboard-response","397","502127","0.0-4.0-2.123","17","351.5950000146404","","","","Images/WhiteBeadChoiceWrong.png","39"
"image-keyboard-response","398","502493","0.0-4.0-0.124","17","365.3549999871757","","","","Images/NewTrialBC.png","39"
"image-keyboard-response","399","502745","0.0-4.0-1.124","17","null","","","","Images/WhiteBeadChoice.png","null"
"image-keyboard-response","400","503250","0.0-4.0-2.124","17","2.5000000023283064","","","","Images/WhiteBeadChoiceWrong.png","37"
"image-keyboard-response","401","503332","0.0-4.0-0.125","17","80.59500000672415","","","","Images/NewTrialBC.png","37"
"image-keyboard-response","402","503586","0.0-4.0-1.125","17","null","","","","Images/BlackBeadChoice.png","null"
"image-keyboard-response","403","504092","0.0-4.0-2.125","17","74.0349999978207","","","","Images/BlackBeadChoiceCorrect.png","37"
"image-keyboard-response","404","504348","0.0-4.0-0.126","17","254.28500000271015","","","","Images/NewTrialBC.png","37"
"image-keyboard-response","405","504604","0.0-4.0-1.126","17","null","","","","Images/BlackBeadChoice.png","null"
"image-keyboard-response","406","505109","0.0-4.0-2.126","17","null","","","","Images/BlackBeadChoiceWrong.png","null"
"image-keyboard-response","407","505121","0.0-4.0-0.127","17","10.974999982863665","","","","Images/NewTrialWC.png","39"
"image-keyboard-response","408","505377","0.0-4.0-1.127","17","null","","","","Images/WhiteBeadChoice.png","null"
"image-keyboard-response","409","505883","0.0-4.0-2.127","17","442.8550000011455","","","","Images/WhiteBeadChoiceWrong.png","37"
"image-keyboard-response","410","506325","0.0-4.0-0.128","17","440.5900000128895","","","","Images/NewTrialBC.png","37"
"image-keyboard-response","411","506582","0.0-4.0-1.128","17","null","","","","Images/BlackBeadChoice.png","null"
"image-keyboard-response","412","507085","0.0-4.0-2.128","17","438.6050000030082","","","","Images/BlackBeadChoiceCorrect.png","37"
"image-keyboard-response","413","507506","0.0-4.0-0.129","17","419.75999998976476","","","","Images/NewTrialBC.png","37"
"image-keyboard-response","414","507762","0.0-4.0-1.129","17","null","","","","Images/BlackBeadChoice.png","null"
"image-keyboard-response","415","508269","0.0-4.0-2.129","17","389.7100000176579","","","","Images/BlackBeadChoiceCorrect.png","37"
"image-keyboard-response","416","508566","0.0-4.0-0.130","17","296.0499999753665","","","","Images/NewTrialBC.png","37"
"image-keyboard-response","417","508817","0.0-4.0-1.130","17","null","","","","Images/BlackBeadChoice.png","null"
"image-keyboard-response","418","509324","0.0-4.0-2.130","17","403.40999999898486","","","","Images/BlackBeadChoiceCorrect.png","39"
"image-keyboard-response","419","509813","0.0-4.0-0.131","17","487.9300000029616","","","","Images/NewTrialBC.png","39"
"image-keyboard-response","420","510069","0.0-4.0-1.131","17","null","","","","Images/WhiteBeadChoice.png","null"
"image-keyboard-response","421","510576","0.0-4.0-2.131","17","null","","","","Images/WhiteBeadChoiceCorrect.png","null"
"image-keyboard-response","422","510676","0.0-4.0-0.132","17","98.82500002277084","","","","Images/NewTrialWC.png","39"
"image-keyboard-response","423","510932","0.0-4.0-1.132","17","null","","","","Images/WhiteBeadChoice.png","null"
"image-keyboard-response","424","511438","0.0-4.0-2.132","17","null","","","","Images/WhiteBeadChoiceCorrect.png","null"
"image-keyboard-response","425","511560","0.0-4.0-0.133","17","121.63999999756925","","","","Images/NewTrialWC.png","39"
"image-keyboard-response","426","511817","0.0-4.0-1.133","17","null","","","","Images/WhiteBeadChoice.png","null"
"image-keyboard-response","427","512323","0.0-4.0-2.133","17","null","","","","Images/WhiteBeadChoiceCorrect.png","null"
"image-keyboard-response","428","512439","0.0-4.0-0.134","17","114.58500000298955","","","","Images/NewTrialWC.png","39"
"image-keyboard-response","429","512695","0.0-4.0-1.134","17","null","","","","Images/WhiteBeadChoice.png","null"
"image-keyboard-response","430","513202","0.0-4.0-2.134","17","null","","","","Images/WhiteBeadChoiceCorrect.png","null"
"image-keyboard-response","431","513340","0.0-4.0-0.135","17","137.1050000016112","","","","Images/NewTrialWC.png","39"
"image-keyboard-response","432","513596","0.0-4.0-1.135","17","null","","","","Images/WhiteBeadChoice.png","null"
"image-keyboard-response","433","514103","0.0-4.0-2.135","17","null","","","","Images/WhiteBeadChoiceCorrect.png","null"
"image-keyboard-response","434","514125","0.0-4.0-0.136","17","20.889999985229224","","","","Images/NewTrialWC.png","39"
"image-keyboard-response","435","514377","0.0-4.0-1.136","17","null","","","","Images/WhiteBeadChoice.png","null"
"image-keyboard-response","436","514883","0.0-4.0-2.136","17","null","","","","Images/WhiteBeadChoiceCorrect.png","null"
"image-keyboard-response","437","515106","0.0-4.0-0.137","17","220.80999999889173","","","","Images/NewTrialWC.png","39"
"image-keyboard-response","438","515361","0.0-4.0-1.137","17","null","","","","Images/WhiteBeadChoice.png","null"
"image-keyboard-response","439","515868","0.0-4.0-2.137","17","null","","","","Images/WhiteBeadChoiceCorrect.png","null"
"image-keyboard-response","440","516009","0.0-4.0-0.138","17","139.8149999731686","","","","Images/NewTrialWC.png","37"
"image-keyboard-response","441","516260","0.0-4.0-1.138","17","null","","","","Images/BlackBeadChoice.png","null"
"image-keyboard-response","442","516762","0.0-4.0-2.138","17","463.3599999942817","","","","Images/BlackBeadChoiceWrong.png","39"
"image-keyboard-response","443","517347","0.0-4.0-0.139","17","583.5549999901559","","","","Images/NewTrialWC.png","39"
"image-keyboard-response","444","517598","0.0-4.0-1.139","17","null","","","","Images/WhiteBeadChoice.png","null"
"image-keyboard-response","445","518101","0.0-4.0-2.139","17","null","","","","Images/WhiteBeadChoiceCorrect.png","null"
"image-keyboard-response","446","518105","0.0-4.0-0.140","17","2.1049999922979623","","","","Images/NewTrialWC.png","37"
"image-keyboard-response","447","518361","0.0-4.0-1.140","17","null","","","","Images/BlackBeadChoice.png","null"
"image-keyboard-response","448","518867","0.0-4.0-2.140","17","null","","","","Images/BlackBeadChoiceWrong.png","null"
"image-keyboard-response","449","518977","0.0-4.0-0.141","17","108.29000000376254","","","","Images/NewTrialWC.png","39"
"image-keyboard-response","450","519233","0.0-4.0-1.141","17","null","","","","Images/WhiteBeadChoice.png","null"
"image-keyboard-response","451","519737","0.0-4.0-2.141","17","null","","","","Images/WhiteBeadChoiceWrong.png","null"
"image-keyboard-response","452","520202","0.0-4.0-0.142","17","463.1599999847822","","","","Images/NewTrialBC.png","39"
"image-keyboard-response","453","520458","0.0-4.0-1.142","17","null","","","","Images/WhiteBeadChoice.png","null"
"image-keyboard-response","454","520965","0.0-4.0-2.142","17","400.38500001537614","","","","Images/WhiteBeadChoiceCorrect.png","37"
"image-keyboard-response","455","521639","0.0-4.0-0.143","17","672.7850000024773","","","","Images/NewTrialWC.png","37"
"image-keyboard-response","456","521895","0.0-4.0-1.143","17","null","","","","Images/BlackBeadChoice.png","null"
"image-keyboard-response","457","522397","0.0-4.0-2.143","17","null","","","","Images/BlackBeadChoiceCorrect.png","null"
"image-keyboard-response","458","522399","0.0-4.0-0.144","17","0.20000000949949026","","","","Images/NewTrialBC.png","39"
"image-keyboard-response","459","522651","0.0-4.0-1.144","17","null","","","","Images/WhiteBeadChoice.png","null"
"image-keyboard-response","460","523158","0.0-4.0-2.144","17","295.4650000028778","","","","Images/WhiteBeadChoiceCorrect.png","37"
"image-keyboard-response","461","523323","0.0-4.0-0.145","17","163.91500001191162","","","","Images/NewTrialWC.png","37"
"image-keyboard-response","462","523578","0.0-4.0-1.145","17","null","","","","Images/BlackBeadChoice.png","null"
"image-keyboard-response","463","524084","0.0-4.0-2.145","17","209.96000000741333","","","","Images/BlackBeadChoiceWrong.png","37"
"image-keyboard-response","464","524386","0.0-4.0-0.146","17","300.8750000153668","","","","Images/NewTrialWC.png","37"
"image-keyboard-response","465","524642","0.0-4.0-1.146","17","null","","","","Images/BlackBeadChoice.png","null"
"image-keyboard-response","466","525144","0.0-4.0-2.146","17","368.1250000081491","","","","Images/BlackBeadChoiceCorrect.png","39"
"image-keyboard-response","467","525780","0.0-4.0-0.147","17","634.3150000029709","","","","Images/NewTrialBC.png","37"
"image-keyboard-response","468","526036","0.0-4.0-1.147","17","null","","","","Images/BlackBeadChoice.png","null"
"image-keyboard-response","469","526538","0.0-4.0-2.147","17","347.38000002107583","","","","Images/BlackBeadChoiceCorrect.png","37"
"image-keyboard-response","470","526709","0.0-4.0-0.148","17","169.46000000461936","","","","Images/NewTrialBC.png","37"
"image-keyboard-response","471","526965","0.0-4.0-1.148","17","null","","","","Images/BlackBeadChoice.png","null"
"image-keyboard-response","472","527471","0.0-4.0-2.148","17","390.85500000510365","","","","Images/BlackBeadChoiceWrong.png","37"
"image-keyboard-response","473","527612","0.0-4.0-0.149","17","139.29500000085682","","","","Images/NewTrialWC.png","39"
"image-keyboard-response","474","527863","0.0-4.0-1.149","17","null","","","","Images/WhiteBeadChoice.png","null"
"image-keyboard-response","475","528366","0.0-4.0-2.149","17","351.17999999783933","","","","Images/WhiteBeadChoiceCorrect.png","39"
"image-keyboard-response","476","528625","0.0-4.0-0.150","17","258.17499999538995","","","","Images/NewTrialWC.png","39"
"image-keyboard-response","477","528877","0.0-4.0-1.150","17","null","","","","Images/WhiteBeadChoice.png","null"
"image-keyboard-response","478","529379","0.0-4.0-2.150","17","290.3799999912735","","","","Images/WhiteBeadChoiceCorrect.png","39"
"image-keyboard-response","479","529777","0.0-4.0-0.151","17","396.35999998426996","","","","Images/NewTrialWC.png","39"
"image-keyboard-response","480","530032","0.0-4.0-1.151","17","null","","","","Images/WhiteBeadChoice.png","null"
"image-keyboard-response","481","530538","0.0-4.0-2.151","17","null","","","","Images/WhiteBeadChoiceCorrect.png","null"
"image-keyboard-response","482","530677","0.0-4.0-0.152","17","137.24499999079853","","","","Images/NewTrialWC.png","39"
"image-keyboard-response","483","530933","0.0-4.0-1.152","17","null","","","","Images/WhiteBeadChoice.png","null"
"image-keyboard-response","484","531439","0.0-4.0-2.152","17","null","","","","Images/WhiteBeadChoiceWrong.png","null"
"image-keyboard-response","485","531500","0.0-4.0-0.153","17","59.14999998640269","","","","Images/NewTrialBC.png","37"
"image-keyboard-response","486","531754","0.0-4.0-1.153","17","null","","","","Images/BlackBeadChoice.png","null"
"image-keyboard-response","487","532261","0.0-4.0-2.153","17","391.26499998383224","","","","Images/BlackBeadChoiceCorrect.png","37"
"image-keyboard-response","488","532567","0.0-4.0-0.154","17","304.69999997876585","","","","Images/NewTrialBC.png","37"
"image-keyboard-response","489","532823","0.0-4.0-1.154","17","null","","","","Images/BlackBeadChoice.png","null"
"image-keyboard-response","490","533326","0.0-4.0-2.154","17","342.2699999937322","","","","Images/BlackBeadChoiceCorrect.png","37"
"image-keyboard-response","491","533663","0.0-4.0-0.155","17","335.00999998068437","","","","Images/NewTrialBC.png","37"
"image-keyboard-response","492","533919","0.0-4.0-1.155","17","null","","","","Images/BlackBeadChoice.png","null"
"image-keyboard-response","493","534422","0.0-4.0-2.155","17","null","","","","Images/BlackBeadChoiceCorrect.png","null"
"image-keyboard-response","494","534444","0.0-4.0-0.156","17","20.170000003417954","","","","Images/NewTrialBC.png","37"
"image-keyboard-response","495","534700","0.0-4.0-1.156","17","null","","","","Images/BlackBeadChoice.png","null"
"image-keyboard-response","496","535202","0.0-4.0-2.156","17","398.2700000051409","","","","Images/BlackBeadChoiceWrong.png","37"
"image-keyboard-response","497","535782","0.0-4.0-0.157","17","578.2500000204891","","","","Images/NewTrialWC.png","39"
"image-keyboard-response","498","536035","0.0-4.0-1.157","17","null","","","","Images/WhiteBeadChoice.png","null"
"image-keyboard-response","499","536538","0.0-4.0-2.157","17","476.8449999974109","","","","Images/WhiteBeadChoiceWrong.png","37"
"image-keyboard-response","500","536993","0.0-4.0-0.158","17","453.89500001329","","","","Images/NewTrialBC.png","37"
"image-keyboard-response","501","537250","0.0-4.0-1.158","17","null","","","","Images/BlackBeadChoice.png","null"
"image-keyboard-response","502","537753","0.0-4.0-2.158","17","null","","","","Images/BlackBeadChoiceWrong.png","null"
"image-keyboard-response","503","537889","0.0-4.0-0.159","17","134.74499998847023","","","","Images/NewTrialWC.png","39"
"image-keyboard-response","504","538146","0.0-4.0-1.159","17","null","","","","Images/WhiteBeadChoice.png","null"
"image-keyboard-response","505","538652","0.0-4.0-2.159","17","464.7850000183098","","","","Images/WhiteBeadChoiceCorrect.png","39"
"image-keyboard-response","506","539036","0.0-4.0-0.160","17","383.1800000043586","","","","Images/NewTrialWC.png","39"
"image-keyboard-response","507","539293","0.0-4.0-1.160","17","null","","","","Images/WhiteBeadChoice.png","null"
"image-keyboard-response","508","539796","0.0-4.0-2.160","17","190.2999999874737","","","","Images/WhiteBeadChoiceWrong.png","39"
"image-keyboard-response","509","539916","0.0-4.0-0.161","17","118.92000000807457","","","","Images/NewTrialBC.png","37"
"image-keyboard-response","510","540172","0.0-4.0-1.161","17","null","","","","Images/BlackBeadChoice.png","null"
"image-keyboard-response","511","540678","0.0-4.0-2.161","17","389.4649999856483","","","","Images/BlackBeadChoiceWrong.png","39"
"image-keyboard-response","512","541087","0.0-4.0-0.162","17","407.7899999974761","","","","Images/NewTrialWC.png","39"
"image-keyboard-response","513","541344","0.0-4.0-1.162","17","null","","","","Images/WhiteBeadChoice.png","null"
"image-keyboard-response","514","541850","0.0-4.0-2.162","17","null","","","","Images/WhiteBeadChoiceCorrect.png","null"
"image-keyboard-response","515","541880","0.0-4.0-0.163","17","29.145000007702038","","","","Images/NewTrialWC.png","39"
"image-keyboard-response","516","542136","0.0-4.0-1.163","17","null","","","","Images/WhiteBeadChoice.png","null"
"image-keyboard-response","517","542638","0.0-4.0-2.163","17","362.32500002370216","","","","Images/WhiteBeadChoiceCorrect.png","39"
"image-keyboard-response","518","542948","0.0-4.0-0.164","17","308.34499999764375","","","","Images/NewTrialWC.png","39"
"image-keyboard-response","519","543203","0.0-4.0-1.164","17","null","","","","Images/WhiteBeadChoice.png","null"
"image-keyboard-response","520","543705","0.0-4.0-2.164","17","277.88500001770444","","","","Images/WhiteBeadChoiceWrong.png","37"
"image-keyboard-response","521","543864","0.0-4.0-0.165","17","158.23500000988133","","","","Images/NewTrialBC.png","37"
"image-keyboard-response","522","544121","0.0-4.0-1.165","17","null","","","","Images/BlackBeadChoice.png","null"
"image-keyboard-response","523","544627","0.0-4.0-2.165","17","320.44999999925494","","","","Images/BlackBeadChoiceCorrect.png","37"
"image-keyboard-response","524","544975","0.0-4.0-0.166","17","346.9049999839626","","","","Images/NewTrialBC.png","37"
"image-keyboard-response","525","545232","0.0-4.0-1.166","17","null","","","","Images/BlackBeadChoice.png","null"
"image-keyboard-response","526","545733","0.0-4.0-2.166","17","498.60999998054467","","","","Images/BlackBeadChoiceCorrect.png","37"
"image-keyboard-response","527","546271","0.0-4.0-0.167","17","536.7050000058953","","","","Images/NewTrialBC.png","37"
"image-keyboard-response","528","546527","0.0-4.0-1.167","17","null","","","","Images/BlackBeadChoice.png","null"
"image-keyboard-response","529","547034","0.0-4.0-2.167","17","385.48999998602085","","","","Images/BlackBeadChoiceCorrect.png","39"
"image-keyboard-response","530","547299","0.0-4.0-0.168","17","263.9649999910034","","","","Images/NewTrialBC.png","39"
"image-keyboard-response","531","547556","0.0-4.0-1.168","17","null","","","","Images/WhiteBeadChoice.png","null"
"image-keyboard-response","532","548059","0.0-4.0-2.168","17","null","","","","Images/WhiteBeadChoiceWrong.png","null"
"image-keyboard-response","533","548113","0.0-4.0-0.169","17","52.9499999829568","","","","Images/NewTrialBC.png","37"
"image-keyboard-response","534","548370","0.0-4.0-1.169","17","null","","","","Images/BlackBeadChoice.png","null"
"image-keyboard-response","535","548876","0.0-4.0-2.169","17","null","","","","Images/BlackBeadChoiceCorrect.png","null"
"image-keyboard-response","536","548937","0.0-4.0-0.170","17","60.43499999213964","","","","Images/NewTrialBC.png","39"
"image-keyboard-response","537","549193","0.0-4.0-1.170","17","null","","","","Images/WhiteBeadChoice.png","null"
"image-keyboard-response","538","549699","0.0-4.0-2.170","17","387.20500000636093","","","","Images/WhiteBeadChoiceWrong.png","37"
"image-keyboard-response","539","550133","0.0-4.0-0.171","17","432.8150000073947","","","","Images/NewTrialBC.png","37"
"image-keyboard-response","540","550387","0.0-4.0-1.171","17","null","","","","Images/BlackBeadChoice.png","null"
"image-keyboard-response","541","550894","0.0-4.0-2.171","17","null","","","","Images/BlackBeadChoiceWrong.png","null"
"image-keyboard-response","542","550925","0.0-4.0-0.172","17","30.30500002205372","","","","Images/NewTrialWC.png","39"
"image-keyboard-response","543","551181","0.0-4.0-1.172","17","null","","","","Images/WhiteBeadChoice.png","null"
"image-keyboard-response","544","551684","0.0-4.0-2.172","17","338.33500000764616","","","","Images/WhiteBeadChoiceCorrect.png","39"
"image-keyboard-response","545","552004","0.0-4.0-0.173","17","318.7750000215601","","","","Images/NewTrialWC.png","39"
"image-keyboard-response","546","552260","0.0-4.0-1.173","17","null","","","","Images/WhiteBeadChoice.png","null"
"image-keyboard-response","547","552767","0.0-4.0-2.173","17","327.43499998468906","","","","Images/WhiteBeadChoiceCorrect.png","39"
"image-keyboard-response","548","553202","0.0-4.0-0.174","17","433.86999997892417","","","","Images/NewTrialWC.png","39"
"image-keyboard-response","549","553458","0.0-4.0-1.174","17","null","","","","Images/WhiteBeadChoice.png","null"
"image-keyboard-response","550","553960","0.0-4.0-2.174","17","369.555000012042","","","","Images/WhiteBeadChoiceCorrect.png","39"
"image-keyboard-response","551","554314","0.0-4.0-0.175","17","352.79500001342967","","","","Images/NewTrialWC.png","39"
"image-keyboard-response","552","554570","0.0-4.0-1.175","17","null","","","","Images/WhiteBeadChoice.png","null"
"image-keyboard-response","553","555077","0.0-4.0-2.175","17","396.5700000117067","","","","Images/WhiteBeadChoiceCorrect.png","39"
"image-keyboard-response","554","555427","0.0-4.0-0.176","17","348.8099999958649","","","","Images/NewTrialWC.png","39"
"image-keyboard-response","555","555683","0.0-4.0-1.176","17","null","","","","Images/WhiteBeadChoice.png","null"
"image-keyboard-response","556","556187","0.0-4.0-2.176","17","384.71000001300126","","","","Images/WhiteBeadChoiceWrong.png","37"
"image-keyboard-response","557","556492","0.0-4.0-0.177","17","303.5150000068825","","","","Images/NewTrialBC.png","37"
"image-keyboard-response","558","556749","0.0-4.0-1.177","17","null","","","","Images/BlackBeadChoice.png","null"
"image-keyboard-response","559","557253","0.0-4.0-2.177","17","null","","","","Images/BlackBeadChoiceWrong.png","null"
"image-keyboard-response","560","557259","0.0-4.0-0.178","17","3.1549999839626253","","","","Images/NewTrialWC.png","39"
"image-keyboard-response","561","557514","0.0-4.0-1.178","17","null","","","","Images/WhiteBeadChoice.png","null"
"image-keyboard-response","562","558021","0.0-4.0-2.178","17","220.68500000750646","","","","Images/WhiteBeadChoiceWrong.png","39"
"image-keyboard-response","563","558370","0.0-4.0-0.179","17","348.07000000728294","","","","Images/NewTrialBC.png","39"
"image-keyboard-response","564","558626","0.0-4.0-1.179","17","null","","","","Images/WhiteBeadChoice.png","null"
"image-keyboard-response","565","559133","0.0-4.0-2.179","17","378.6100000143051","","","","Images/WhiteBeadChoiceWrong.png","37"
"image-keyboard-response","566","559431","0.0-4.0-0.180","17","297.099999996135","","","","Images/NewTrialBC.png","37"
"image-keyboard-response","567","559684","0.0-4.0-1.180","17","null","","","","Images/BlackBeadChoice.png","null"
"image-keyboard-response","568","560188","0.0-4.0-2.180","17","135.53500000853091","","","","Images/BlackBeadChoiceCorrect.png","37"
"image-keyboard-response","569","560221","0.0-4.0-0.181","17","31.684999994467944","","","","Images/NewTrialBC.png","37"
"image-keyboard-response","570","560477","0.0-4.0-1.181","17","null","","","","Images/BlackBeadChoice.png","null"
"image-keyboard-response","571","560979","0.0-4.0-2.181","17","248.43499998678453","","","","Images/BlackBeadChoiceWrong.png","37"
"image-keyboard-response","572","561038","0.0-4.0-0.182","17","57.36000000615604","","","","Images/NewTrialWC.png","39"
"image-keyboard-response","573","561294","0.0-4.0-1.182","17","null","","","","Images/WhiteBeadChoice.png","null"
"image-keyboard-response","574","561801","0.0-4.0-2.182","17","314.7600000083912","","","","Images/WhiteBeadChoiceWrong.png","39"
"image-keyboard-response","575","562257","0.0-4.0-0.183","17","455.07000002544373","","","","Images/NewTrialBC.png","37"
"image-keyboard-response","576","562513","0.0-4.0-1.183","17","null","","","","Images/BlackBeadChoice.png","null"
"image-keyboard-response","577","563020","0.0-4.0-2.183","17","334.42500000819564","","","","Images/BlackBeadChoiceCorrect.png","39"
"image-keyboard-response","578","563478","0.0-4.0-0.184","17","456.91000000806525","","","","Images/NewTrialBC.png","37"
"image-keyboard-response","579","563734","0.0-4.0-1.184","17","null","","","","Images/BlackBeadChoice.png","null"
"image-keyboard-response","580","564238","0.0-4.0-2.184","17","435.1850000093691","","","","Images/BlackBeadChoiceCorrect.png","37"
"image-keyboard-response","581","564835","0.0-4.0-0.185","17","595.0749999901745","","","","Images/NewTrialBC.png","37"
"image-keyboard-response","582","565090","0.0-4.0-1.185","17","null","","","","Images/BlackBeadChoice.png","null"
"image-keyboard-response","583","565594","0.0-4.0-2.185","17","null","","","","Images/BlackBeadChoiceCorrect.png","null"
"image-keyboard-response","584","565692","0.0-4.0-0.186","17","97.0050000178162","","","","Images/NewTrialBC.png","37"
"image-keyboard-response","585","565944","0.0-4.0-1.186","17","null","","","","Images/BlackBeadChoice.png","null"
"image-keyboard-response","586","566450","0.0-4.0-2.186","17","null","","","","Images/BlackBeadChoiceCorrect.png","null"
"image-keyboard-response","587","566781","0.0-4.0-0.187","17","329.30000001215376","","","","Images/NewTrialBC.png","37"
"image-keyboard-response","588","567037","0.0-4.0-1.187","17","null","","","","Images/BlackBeadChoice.png","null"
"image-keyboard-response","589","567544","0.0-4.0-2.187","17","null","","","","Images/BlackBeadChoiceCorrect.png","null"
"image-keyboard-response","590","567979","0.0-4.0-0.188","17","433.8949999946635","","","","Images/NewTrialBC.png","37"
"image-keyboard-response","591","568231","0.0-4.0-1.188","17","null","","","","Images/BlackBeadChoice.png","null"
"image-keyboard-response","592","568735","0.0-4.0-2.188","17","411.9650000066031","","","","Images/BlackBeadChoiceWrong.png","39"
"image-keyboard-response","593","569002","0.0-4.0-0.189","17","265.7149999868125","","","","Images/NewTrialWC.png","39"
"image-keyboard-response","594","569258","0.0-4.0-1.189","17","null","","","","Images/WhiteBeadChoice.png","null"
"image-keyboard-response","595","569760","0.0-4.0-2.189","17","493.784999998752","","","","Images/WhiteBeadChoiceCorrect.png","39"
"image-keyboard-response","596","570199","0.0-4.0-0.190","17","437.42000000202097","","","","Images/NewTrialWC.png","39"
"image-keyboard-response","597","570454","0.0-4.0-1.190","17","null","","","","Images/WhiteBeadChoice.png","null"
"image-keyboard-response","598","570960","0.0-4.0-2.190","17","395.7200000004377","","","","Images/WhiteBeadChoiceCorrect.png","37"
"image-keyboard-response","599","571329","0.0-4.0-0.191","17","367.1099999919534","","","","Images/NewTrialWC.png","37"
"image-keyboard-response","600","571585","0.0-4.0-1.191","17","null","","","","Images/BlackBeadChoice.png","null"
"image-keyboard-response","601","572088","0.0-4.0-2.191","17","359.5550000027288","","","","Images/BlackBeadChoiceWrong.png","39"
"image-keyboard-response","602","572339","0.0-4.0-0.192","17","248.41500000911765","","","","Images/NewTrialWC.png","39"
"image-keyboard-response","603","572595","0.0-4.0-1.192","17","null","","","","Images/WhiteBeadChoice.png","null"
"image-keyboard-response","604","573098","0.0-4.0-2.192","17","324.18999998481013","","","","Images/WhiteBeadChoiceCorrect.png","39"
"image-keyboard-response","605","573342","0.0-4.0-0.193","17","242.10999999195337","","","","Images/NewTrialWC.png","39"
"image-keyboard-response","606","573598","0.0-4.0-1.193","17","null","","","","Images/WhiteBeadChoice.png","null"
"image-keyboard-response","607","574100","0.0-4.0-2.193","17","342.55500001017936","","","","Images/WhiteBeadChoiceCorrect.png","39"
"image-keyboard-response","608","574355","0.0-4.0-0.194","17","253.47499997587875","","","","Images/NewTrialWC.png","39"
"image-keyboard-response","609","574611","0.0-4.0-1.194","17","null","","","","Images/WhiteBeadChoice.png","null"
"image-keyboard-response","610","575113","0.0-4.0-2.194","17","498.0349999968894","","","","Images/WhiteBeadChoiceWrong.png","37"
"image-keyboard-response","611","575610","0.0-4.0-0.195","17","495.4699999943841","","","","Images/NewTrialBC.png","37"
"image-keyboard-response","612","575866","0.0-4.0-1.195","17","null","","","","Images/BlackBeadChoice.png","null"
"image-keyboard-response","613","576372","0.0-4.0-2.195","17","349.70000002067536","","","","Images/BlackBeadChoiceCorrect.png","37"
"image-keyboard-response","614","576617","0.0-4.0-0.196","17","243.21499999496154","","","","Images/NewTrialBC.png","37"
"image-keyboard-response","615","576870","0.0-4.0-1.196","17","null","","","","Images/BlackBeadChoice.png","null"
"image-keyboard-response","616","577377","0.0-4.0-2.196","17","255.86000000475906","","","","Images/BlackBeadChoiceCorrect.png","37"
"image-keyboard-response","617","577801","0.0-4.0-0.197","17","422.59000000194646","","","","Images/NewTrialBC.png","37"
"image-keyboard-response","618","578057","0.0-4.0-1.197","17","null","","","","Images/BlackBeadChoice.png","null"
"image-keyboard-response","619","578560","0.0-4.0-2.197","17","304.41500002052635","","","","Images/BlackBeadChoiceWrong.png","37"
"image-keyboard-response","620","578935","0.0-4.0-0.198","17","373.28500000876375","","","","Images/NewTrialWC.png","39"
"image-keyboard-response","621","579188","0.0-4.0-1.198","17","null","","","","Images/WhiteBeadChoice.png","null"
"image-keyboard-response","622","579694","0.0-4.0-2.198","17","null","","","","Images/WhiteBeadChoiceCorrect.png","null"
"image-keyboard-response","623","579932","0.0-4.0-0.199","17","236.7099999974016","","","","Images/NewTrialWC.png","39"
"image-keyboard-response","624","580188","0.0-4.0-1.199","17","null","","","","Images/WhiteBeadChoice.png","null"
"image-keyboard-response","625","580693","0.0-4.0-2.199","17","355.38500000257045","","","","Images/WhiteBeadChoiceWrong.png","39"
"html-keyboard-response","626","585005","0.0-5.0","17","4310.3399999963585","","","","","32"
"html-keyboard-response","627","595768","0.0-6.0","17","10760.379999992438","","","","<div class=""container"" style=""height:800px;width:800px;display:flex;flex-direction:column;justify-content:center;align-items:center;text-align:center;font-weight:normal;font-family:Arial;font-size:20px""><p>Loading episode&hellip;</p><div>","32"
"image-keyboard-response","628","597962","0.0-7.0-0.0","17","2192.494999995688","","","","Images/NoChoiceMM.png","37"
"image-keyboard-response","629","598218","0.0-7.0-1.0","17","null","","","","Images/BlackBeadChoiceMM.png","null"
"image-keyboard-response","630","598719","0.0-7.0-2.0","17","null","","","","Images/BlackBeadChoiceCorrectMM.png","null"
"image-keyboard-response","631","600177","0.0-7.0-0.1","17","1457.0099999837112","","","","Images/NewTrialBCMM.png","37"
"image-keyboard-response","632","600433","0.0-7.0-1.1","17","null","","","","Images/BlackBeadChoiceMM.png","null"
"image-keyboard-response","633","600940","0.0-7.0-2.1","17","null","","","","Images/BlackBeadChoiceCorrectMM.png","null"
"image-keyboard-response","634","600951","0.0-7.0-0.2","17","10.119999991729856","","","","Images/NewTrialBCMM.png","37"
"image-keyboard-response","635","601207","0.0-7.0-1.2","17","null","","","","Images/BlackBeadChoiceMM.png","null"
"image-keyboard-response","636","601714","0.0-7.0-2.2","17","478.4700000018347","","","","Images/BlackBeadChoiceCorrectMM.png","37"
"image-keyboard-response","637","602209","0.0-7.0-0.3","17","493.7450000143144","","","","Images/NewTrialBCMM.png","37"
"image-keyboard-response","638","602465","0.0-7.0-1.3","17","null","","","","Images/BlackBeadChoiceMM.png","null"
"image-keyboard-response","639","602971","0.0-7.0-2.3","17","363.6199999891687","","","","Images/BlackBeadChoiceCorrectMM.png","37"
"image-keyboard-response","640","603291","0.0-7.0-0.4","17","318.0200000060722","","","","Images/NewTrialBCMM.png","37"
"image-keyboard-response","641","603547","0.0-7.0-1.4","17","null","","","","Images/BlackBeadChoiceMM.png","null"
"image-keyboard-response","642","604052","0.0-7.0-2.4","17","341.64999998756684","","","","Images/BlackBeadChoiceCorrectMM.png","37"
"image-keyboard-response","643","604289","0.0-7.0-0.5","17","235.29000001144595","","","","Images/NewTrialBCMM.png","37"
"image-keyboard-response","644","604545","0.0-7.0-1.5","17","null","","","","Images/BlackBeadChoiceMM.png","null"
"image-keyboard-response","645","605047","0.0-7.0-2.5","17","126.90999999176711","","","","Images/BlackBeadChoiceCorrectMM.png","37"
"image-keyboard-response","646","605117","0.0-7.0-0.6","17","68.43500002287328","","","","Images/NewTrialBCMM.png","37"
"image-keyboard-response","647","605373","0.0-7.0-1.6","17","null","","","","Images/BlackBeadChoiceMM.png","null"
"image-keyboard-response","648","605879","0.0-7.0-2.6","17","261.70500001171604","","","","Images/BlackBeadChoiceCorrectMM.png","37"
"image-keyboard-response","649","606009","0.0-7.0-0.7","17","128.68999998318031","","","","Images/NewTrialBCMM.png","37"
"image-keyboard-response","650","606266","0.0-7.0-1.7","17","null","","","","Images/BlackBeadChoiceMM.png","null"
"image-keyboard-response","651","606772","0.0-7.0-2.7","17","301.9999999960419","","","","Images/BlackBeadChoiceCorrectMM.png","37"
"image-keyboard-response","652","606997","0.0-7.0-0.8","17","223.23500001220964","","","","Images/NewTrialBCMM.png","37"
"image-keyboard-response","653","607253","0.0-7.0-1.8","17","null","","","","Images/BlackBeadChoiceMM.png","null"
"image-keyboard-response","654","607759","0.0-7.0-2.8","17","316.93500000983477","","","","Images/BlackBeadChoiceCorrectMM.png","37"
"image-keyboard-response","655","607974","0.0-7.0-0.9","17","214.30000002146699","","","","Images/NewTrialBCMM.png","37"
"image-keyboard-response","656","608231","0.0-7.0-1.9","17","null","","","","Images/BlackBeadChoiceMM.png","null"
"image-keyboard-response","657","608737","0.0-7.0-2.9","17","225.73999999440275","","","","Images/BlackBeadChoiceCorrectMM.png","37"
"image-keyboard-response","658","608844","0.0-7.0-0.10","17","106.05000000214204","","","","Images/NewTrialBCMM.png","37"
"image-keyboard-response","659","609101","0.0-7.0-1.10","17","null","","","","Images/BlackBeadChoiceMM.png","null"
"image-keyboard-response","660","609607","0.0-7.0-2.10","17","179.47999999159947","","","","Images/BlackBeadChoiceCorrectMM.png","37"
"image-keyboard-response","661","609707","0.0-7.0-0.11","17","97.89000000455417","","","","Images/NewTrialBCMM.png","37"
"image-keyboard-response","662","609963","0.0-7.0-1.11","17","null","","","","Images/BlackBeadChoiceMM.png","null"
"image-keyboard-response","663","610469","0.0-7.0-2.11","17","310.8549999888055","","","","Images/BlackBeadChoiceCorrectMM.png","37"
"image-keyboard-response","664","610640","0.0-7.0-0.12","17","169.38000000664033","","","","Images/NewTrialBCMM.png","37"
"image-keyboard-response","665","610896","0.0-7.0-1.12","17","null","","","","Images/BlackBeadChoiceMM.png","null"
"image-keyboard-response","666","611403","0.0-7.0-2.12","17","266.94500001030974","","","","Images/BlackBeadChoiceCorrectMM.png","37"
"image-keyboard-response","667","611577","0.0-7.0-0.13","17","173.26999999932013","","","","Images/NewTrialBCMM.png","37"
"image-keyboard-response","668","611832","0.0-7.0-1.13","17","null","","","","Images/BlackBeadChoiceMM.png","null"
"image-keyboard-response","669","612338","0.0-7.0-2.13","17","210.70500000496395","","","","Images/BlackBeadChoiceCorrectMM.png","37"
"image-keyboard-response","670","612424","0.0-7.0-0.14","17","84.7150000045076","","","","Images/NewTrialBCMM.png","37"
"image-keyboard-response","671","612681","0.0-7.0-1.14","17","null","","","","Images/BlackBeadChoiceMM.png","null"
"image-keyboard-response","672","613182","0.0-7.0-2.14","17","100.639999989653","","","","Images/BlackBeadChoiceCorrectMM.png","37"
"image-keyboard-response","673","613541","0.0-7.0-0.15","17","358.10499999206513","","","","Images/NewTrialBCMM.png","37"
"image-keyboard-response","674","613795","0.0-7.0-1.15","17","null","","","","Images/BlackBeadChoiceMM.png","null"
"image-keyboard-response","675","614301","0.0-7.0-2.15","17","226.83500000857748","","","","Images/BlackBeadChoiceCorrectMM.png","37"
"image-keyboard-response","676","614399","0.0-7.0-0.16","17","97.03499998431653","","","","Images/NewTrialBCMM.png","37"
"image-keyboard-response","677","614653","0.0-7.0-1.16","17","null","","","","Images/BlackBeadChoiceMM.png","null"
"image-keyboard-response","678","615158","0.0-7.0-2.16","17","386.23499998357147","","","","Images/BlackBeadChoiceCorrectMM.png","37"
"image-keyboard-response","679","615503","0.0-7.0-0.17","17","343.91499997582287","","","","Images/NewTrialBCMM.png","37"
"image-keyboard-response","680","615760","0.0-7.0-1.17","17","null","","","","Images/BlackBeadChoiceMM.png","null"
"image-keyboard-response","681","616266","0.0-7.0-2.17","17","289.4350000133272","","","","Images/BlackBeadChoiceCorrectMM.png","37"
"image-keyboard-response","682","616432","0.0-7.0-0.18","17","165.03999999258667","","","","Images/NewTrialBCMM.png","37"
"image-keyboard-response","683","616686","0.0-7.0-1.18","17","null","","","","Images/BlackBeadChoiceMM.png","null"
"image-keyboard-response","684","617190","0.0-7.0-2.18","17","184.30999998236075","","","","Images/BlackBeadChoiceWrongMM.png","37"
"image-keyboard-response","685","618081","0.0-7.0-0.19","17","889.950000011595","","","","Images/NewTrialWCMM.png","39"
"image-keyboard-response","686","618335","0.0-7.0-1.19","17","null","","","","Images/WhiteBeadChoiceMM.png","null"
"image-keyboard-response","687","618841","0.0-7.0-2.19","17","null","","","","Images/WhiteBeadChoiceCorrectMM.png","null"
"image-keyboard-response","688","619315","0.0-7.0-0.20","17","472.8700000268873","","","","Images/NewTrialWCMM.png","39"
"image-keyboard-response","689","619567","0.0-7.0-1.20","17","null","","","","Images/WhiteBeadChoiceMM.png","null"
"image-keyboard-response","690","620068","0.0-7.0-2.20","17","340.09000001242384","","","","Images/WhiteBeadChoiceCorrectMM.png","39"
"image-keyboard-response","691","620319","0.0-7.0-0.21","17","249.59999998100102","","","","Images/NewTrialWCMM.png","39"
"image-keyboard-response","692","620576","0.0-7.0-1.21","17","null","","","","Images/WhiteBeadChoiceMM.png","null"
"image-keyboard-response","693","621082","0.0-7.0-2.21","17","95.41999999783002","","","","Images/WhiteBeadChoiceCorrectMM.png","39"
"image-keyboard-response","694","621143","0.0-7.0-0.22","17","59.74999998579733","","","","Images/NewTrialWCMM.png","39"
"image-keyboard-response","695","621398","0.0-7.0-1.22","17","null","","","","Images/WhiteBeadChoiceMM.png","null"
"image-keyboard-response","696","621901","0.0-7.0-2.22","17","104.5999999914784","","","","Images/WhiteBeadChoiceWrongMM.png","39"
"image-keyboard-response","697","622105","0.0-7.0-0.23","17","202.65999998082407","","","","Images/NewTrialBCMM.png","39"
"image-keyboard-response","698","622362","0.0-7.0-1.23","17","null","","","","Images/WhiteBeadChoiceMM.png","null"
"image-keyboard-response","699","622866","0.0-7.0-2.23","17","null","","","","Images/WhiteBeadChoiceWrongMM.png","null"
"image-keyboard-response","700","622873","0.0-7.0-0.24","17","4.844999988563359","","","","Images/NewTrialBCMM.png","37"
"image-keyboard-response","701","623126","0.0-7.0-1.24","17","null","","","","Images/BlackBeadChoiceMM.png","null"
"image-keyboard-response","702","623630","0.0-7.0-2.24","17","202.71000001230277","","","","Images/BlackBeadChoiceCorrectMM.png","37"
"image-keyboard-response","703","623712","0.0-7.0-0.25","17","80.41999998386018","","","","Images/NewTrialBCMM.png","37"
"image-keyboard-response","704","623966","0.0-7.0-1.25","17","null","","","","Images/BlackBeadChoiceMM.png","null"
"image-keyboard-response","705","624472","0.0-7.0-2.25","17","318.8699999882374","","","","Images/BlackBeadChoiceCorrectMM.png","37"
"image-keyboard-response","706","624752","0.0-7.0-0.26","17","278.76000001560897","","","","Images/NewTrialBCMM.png","37"
"image-keyboard-response","707","625006","0.0-7.0-1.26","17","null","","","","Images/BlackBeadChoiceMM.png","null"
"image-keyboard-response","708","625512","0.0-7.0-2.26","17","329.26500000758097","","","","Images/BlackBeadChoiceWrongMM.png","37"
"image-keyboard-response","709","626254","0.0-7.0-0.27","17","740.4899999964982","","","","Images/NewTrialWCMM.png","37"
"image-keyboard-response","710","626510","0.0-7.0-1.27","17","null","","","","Images/BlackBeadChoiceMM.png","null"
"image-keyboard-response","711","627017","0.0-7.0-2.27","17","111.67000001296401","","","","Images/BlackBeadChoiceWrongMM.png","39"
"image-keyboard-response","712","627395","0.0-7.0-0.28","17","377.0500000100583","","","","Images/NewTrialWCMM.png","39"
"image-keyboard-response","713","627651","0.0-7.0-1.28","17","null","","","","Images/WhiteBeadChoiceMM.png","null"
"image-keyboard-response","714","628157","0.0-7.0-2.28","17","403.4950000059325","","","","Images/WhiteBeadChoiceCorrectMM.png","39"
"image-keyboard-response","715","628623","0.0-7.0-0.29","17","464.72499999799766","","","","Images/NewTrialWCMM.png","39"
"image-keyboard-response","716","628879","0.0-7.0-1.29","17","null","","","","Images/WhiteBeadChoiceMM.png","null"
"image-keyboard-response","717","629384","0.0-7.0-2.29","17","485.75500000151806","","","","Images/WhiteBeadChoiceCorrectMM.png","39"
"image-keyboard-response","718","630002","0.0-7.0-0.30","17","616.3200000009965","","","","Images/NewTrialWCMM.png","39"
"image-keyboard-response","719","630258","0.0-7.0-1.30","17","null","","","","Images/WhiteBeadChoiceMM.png","null"
"image-keyboard-response","720","630765","0.0-7.0-2.30","17","332.9049999883864","","","","Images/WhiteBeadChoiceCorrectMM.png","39"
"image-keyboard-response","721","630965","0.0-7.0-0.31","17","199.1050000069663","","","","Images/NewTrialWCMM.png","39"
"image-keyboard-response","722","631218","0.0-7.0-1.31","17","null","","","","Images/WhiteBeadChoiceMM.png","null"
"image-keyboard-response","723","631724","0.0-7.0-2.31","17","341.1750000086613","","","","Images/WhiteBeadChoiceCorrectMM.png","39"
"image-keyboard-response","724","631964","0.0-7.0-0.32","17","238.6899999983143","","","","Images/NewTrialWCMM.png","39"
"image-keyboard-response","725","632220","0.0-7.0-1.32","17","null","","","","Images/WhiteBeadChoiceMM.png","null"
"image-keyboard-response","726","632726","0.0-7.0-2.32","17","null","","","","Images/WhiteBeadChoiceCorrectMM.png","null"
"image-keyboard-response","727","632738","0.0-7.0-0.33","17","9.944999997969717","","","","Images/NewTrialWCMM.png","39"
"image-keyboard-response","728","632990","0.0-7.0-1.33","17","null","","","","Images/WhiteBeadChoiceMM.png","null"
"image-keyboard-response","729","633496","0.0-7.0-2.33","17","469.939999980852","","","","Images/WhiteBeadChoiceCorrectMM.png","39"
"image-keyboard-response","730","633918","0.0-7.0-0.34","17","420.2250000089407","","","","Images/NewTrialWCMM.png","39"
"image-keyboard-response","731","634174","0.0-7.0-1.34","17","null","","","","Images/WhiteBeadChoiceMM.png","null"
"image-keyboard-response","732","634681","0.0-7.0-2.34","17","350.494999991497","","","","Images/WhiteBeadChoiceCorrectMM.png","39"
"image-keyboard-response","733","634849","0.0-7.0-0.35","17","166.9899999978952","","","","Images/NewTrialWCMM.png","39"
"image-keyboard-response","734","635105","0.0-7.0-1.35","17","null","","","","Images/WhiteBeadChoiceMM.png","null"
"image-keyboard-response","735","635611","0.0-7.0-2.35","17","350.9150000172667","","","","Images/WhiteBeadChoiceCorrectMM.png","39"
"image-keyboard-response","736","635772","0.0-7.0-0.36","17","159.50000000884756","","","","Images/NewTrialWCMM.png","39"
"image-keyboard-response","737","636024","0.0-7.0-1.36","17","null","","","","Images/WhiteBeadChoiceMM.png","null"
"image-keyboard-response","738","636529","0.0-7.0-2.36","17","104.44499997538514","","","","Images/WhiteBeadChoiceCorrectMM.png","39"
"image-keyboard-response","739","636867","0.0-7.0-0.37","17","336.4000000001397","","","","Images/NewTrialWCMM.png","39"
"image-keyboard-response","740","637123","0.0-7.0-1.37","17","null","","","","Images/WhiteBeadChoiceMM.png","null"
"image-keyboard-response","741","637630","0.0-7.0-2.37","17","207.91500000632368","","","","Images/WhiteBeadChoiceCorrectMM.png","39"
"image-keyboard-response","742","637692","0.0-7.0-0.38","17","60.86999998660758","","","","Images/NewTrialWCMM.png","39"
"image-keyboard-response","743","637948","0.0-7.0-1.38","17","null","","","","Images/WhiteBeadChoiceMM.png","null"
"image-keyboard-response","744","638454","0.0-7.0-2.38","17","127.89000000339001","","","","Images/WhiteBeadChoiceCorrectMM.png","39"
"image-keyboard-response","745","638760","0.0-7.0-0.39","17","304.13500001304783","","","","Images/NewTrialWCMM.png","39"
"image-keyboard-response","746","639016","0.0-7.0-1.39","17","null","","","","Images/WhiteBeadChoiceMM.png","null"
"image-keyboard-response","747","639518","0.0-7.0-2.39","17","144.61499999742955","","","","Images/WhiteBeadChoiceCorrectMM.png","39"
"image-keyboard-response","748","639519","0.0-7.0-0.40","17","0.20500001846812665","","","","Images/NewTrialWCMM.png","39"
"image-keyboard-response","749","639775","0.0-7.0-1.40","17","null","","","","Images/WhiteBeadChoiceMM.png","null"
"image-keyboard-response","750","640281","0.0-7.0-2.40","17","174.1500000061933","","","","Images/WhiteBeadChoiceCorrectMM.png","39"
"image-keyboard-response","751","640346","0.0-7.0-0.41","17","63.46000000485219","","","","Images/NewTrialWCMM.png","39"
"image-keyboard-response","752","640602","0.0-7.0-1.41","17","null","","","","Images/WhiteBeadChoiceMM.png","null"
"image-keyboard-response","753","641103","0.0-7.0-2.41","17","92.51000001677312","","","","Images/WhiteBeadChoiceCorrectMM.png","39"
"image-keyboard-response","754","641538","0.0-7.0-0.42","17","432.9550000256859","","","","Images/NewTrialWCMM.png","39"
"image-keyboard-response","755","641789","0.0-7.0-1.42","17","null","","","","Images/WhiteBeadChoiceMM.png","null"
"image-keyboard-response","756","642296","0.0-7.0-2.42","17","168.5799999977462","","","","Images/WhiteBeadChoiceCorrectMM.png","39"
"image-keyboard-response","757","642332","0.0-7.0-0.43","17","34.8400000075344","","","","Images/NewTrialWCMM.png","39"
"image-keyboard-response","758","642588","0.0-7.0-1.43","17","null","","","","Images/WhiteBeadChoiceMM.png","null"
"image-keyboard-response","759","643091","0.0-7.0-2.43","17","120.63499999931082","","","","Images/WhiteBeadChoiceCorrectMM.png","39"
"image-keyboard-response","760","643536","0.0-7.0-0.44","17","443.9600000041537","","","","Images/NewTrialWCMM.png","39"
"image-keyboard-response","761","643790","0.0-7.0-1.44","17","null","","","","Images/WhiteBeadChoiceMM.png","null"
"image-keyboard-response","762","644296","0.0-7.0-2.44","17","308.73499999870546","","","","Images/WhiteBeadChoiceWrongMM.png","39"
"image-keyboard-response","763","644872","0.0-7.0-0.45","17","574.2299999983516","","","","Images/NewTrialBCMM.png","37"
"image-keyboard-response","764","645128","0.0-7.0-1.45","17","null","","","","Images/BlackBeadChoiceMM.png","null"
"image-keyboard-response","765","645634","0.0-7.0-2.45","17","null","","","","Images/BlackBeadChoiceCorrectMM.png","null"
"image-keyboard-response","766","660085","0.0-7.0-0.46","17","14448.86000000406","","","","Images/NewTrialBCMM.png","37"
"image-keyboard-response","767","660337","0.0-7.0-1.46","17","null","","","","Images/BlackBeadChoiceMM.png","null"
"image-keyboard-response","768","660842","0.0-7.0-2.46","17","358.38000001967885","","","","Images/BlackBeadChoiceCorrectMM.png","37"
"image-keyboard-response","769","660993","0.0-7.0-0.47","17","150.10500000789762","","","","Images/NewTrialBCMM.png","37"
"image-keyboard-response","770","661249","0.0-7.0-1.47","17","null","","","","Images/BlackBeadChoiceMM.png","null"
"image-keyboard-response","771","661751","0.0-7.0-2.47","17","275.7300000230316","","","","Images/BlackBeadChoiceCorrectMM.png","37"
"image-keyboard-response","772","662011","0.0-7.0-0.48","17","258.7749999947846","","","","Images/NewTrialBCMM.png","37"
"image-keyboard-response","773","662264","0.0-7.0-1.48","17","null","","","","Images/BlackBeadChoiceMM.png","null"
"image-keyboard-response","774","662768","0.0-7.0-2.48","17","null","","","","Images/BlackBeadChoiceCorrectMM.png","null"
"image-keyboard-response","775","663467","0.0-7.0-0.49","17","697.1049999992829","","","","Images/NewTrialBCMM.png","37"
"image-keyboard-response","776","663724","0.0-7.0-1.49","17","null","","","","Images/BlackBeadChoiceMM.png","null"
"image-keyboard-response","777","664230","0.0-7.0-2.49","17","235.53500001435168","","","","Images/BlackBeadChoiceCorrectMM.png","37"
"image-keyboard-response","778","664382","0.0-7.0-0.50","17","150.9700000169687","","","","Images/NewTrialBCMM.png","37"
"image-keyboard-response","779","664639","0.0-7.0-1.50","17","null","","","","Images/BlackBeadChoiceMM.png","null"
"image-keyboard-response","780","665141","0.0-7.0-2.50","17","275.64500001608394","","","","Images/BlackBeadChoiceCorrectMM.png","37"
"image-keyboard-response","781","673735","0.0-7.0-0.51","17","8592.28000001167","","","","Images/NewTrialBCMM.png","37"
"image-keyboard-response","782","673992","0.0-7.0-1.51","17","null","","","","Images/BlackBeadChoiceMM.png","null"
"image-keyboard-response","783","674494","0.0-7.0-2.51","17","368.0500000191387","","","","Images/BlackBeadChoiceCorrectMM.png","37"
"image-keyboard-response","784","675358","0.0-7.0-0.52","17","861.8799999821931","","","","Images/NewTrialBCMM.png","37"
"image-keyboard-response","785","675614","0.0-7.0-1.52","17","null","","","","Images/BlackBeadChoiceMM.png","null"
"image-keyboard-response","786","676120","0.0-7.0-2.52","17","null","","","","Images/BlackBeadChoiceCorrectMM.png","null"
"image-keyboard-response","787","676665","0.0-7.0-0.53","17","543.5450000222772","","","","Images/NewTrialBCMM.png","37"
"image-keyboard-response","788","676922","0.0-7.0-1.53","17","null","","","","Images/BlackBeadChoiceMM.png","null"
"image-keyboard-response","789","677427","0.0-7.0-2.53","17","484.3899999978021","","","","Images/BlackBeadChoiceCorrectMM.png","37"
"image-keyboard-response","790","677977","0.0-7.0-0.54","17","549.1599999950267","","","","Images/NewTrialBCMM.png","37"
"image-keyboard-response","791","678230","0.0-7.0-1.54","17","null","","","","Images/BlackBeadChoiceMM.png","null"
