"trial_type","trial_index","time_elapsed","internal_node_id","Script_Picker","Block_Type","rt","url","responses","question_order","stimulus","key_press"
"pavlovia","0","3","0.0-0.0","2","High_HMMActual","","","","","",""
"external-html","1","37016","0.0-1.0-0.0","2","High_HMMActual","36883.709999998246","consent.html","","","",""
"survey-multi-choice","2","56075","0.0-1.0-1.0","2","High_HMMActual","19055.88500000158","","{""Q0"":""Male"",""Q1"":""White""}","[0,1]","",""
"survey-text","3","60508","0.0-1.0-2.0","2","High_HMMActual","4424.2750000012165","","{""Q0"":""20""}","","",""
"survey-text","4","68833","0.0-1.0-3.0","2","High_HMMActual","8207.965000001423","","{""Q0"":""5ea96335f1853407044dfc36""}","","",""
"html-keyboard-response","5","97772","0.0-2.0-0.0","2","High_HMMActual","28830.18499999889","","","","<div class=""container"" style=""height:800px;width:800px;display:flex;flex-direction:column;justify-content:center;align-items:center;text-align:center;font-weight:normal;font-family:Arial;font-size:20px""><p>In this task you will see black or white beads being pulled from jars. <br><br>On each trial, a bead will be pulled from one of two jars. Once you see this bead, your goal is to predict the color of NEXT bead that will be pulled. <br> <br>Every time you correctly guess the color of the NEXT bead, you will get a point. <br><br>Press the SPACEBAR to continue.</p><div>","32"
"html-keyboard-response","6","115084","0.0-2.0-1.0","2","High_HMMActual","17309.909999999945","","","","<div class=""container"" style=""height:800px;width:800px;display:flex;flex-direction:column;justify-content:center;align-items:center;text-align:center;font-weight:normal;font-family:Arial;font-size:20px""><p>Jars are filled with 80% white or black beads and 20% of the opposite color mixed in.<br><br>Press the SPACEBAR to continue. </p><div>","32"
"image-keyboard-response","7","138893","0.0-2.0-2.0","2","High_HMMActual","23805.225000000064","","","","resources/WhiteJar_HMM.png","32"
"image-keyboard-response","8","143640","0.0-2.0-3.0","2","High_HMMActual","4745.514999998704","","","","resources/BlackJar_HMM.png","32"
"html-keyboard-response","9","156363","0.0-2.0-4.0","2","High_HMMActual","12721.129999998084","","","","<div class=""container"" style=""height:800px;width:800px;display:flex;flex-direction:column;justify-content:center;align-items:center;text-align:center;font-weight:normal;font-family:Arial;font-size:20px""><p>There will be two blocks of trials. Each block will contain 500 trials. <br><br>Here are examples of what you will see on each trial.<br><br>Press the SPACEBAR to continue. </p><div>","32"
"image-keyboard-response","10","160411","0.0-2.0-5.0","2","High_HMMActual","4046.150000001944","","","","Images/NoChoice.png","32"
"html-keyboard-response","11","201247","0.0-2.0-6.0","2","High_HMMActual","40834.25000000352","","","","<div class=""container"" style=""height:800px;width:800px;display:flex;flex-direction:column;justify-content:center;align-items:center;text-align:center;font-weight:normal;font-family:Arial;font-size:20px""><p> The jar the beads are pulled from is NOT choosen at random on each trial.<br><br>After each prediction, there will be a chance that the jars will switch, and that the next bead will be pulled from the opposite jar as the previous trial.<br><br>In each block, the chance that a jar will switch will either be LOW (the jars will not switch very often), or HIGH (the jars will switch almost all the time).<br><br>At the start of each block, you will be told the probability that the jars will switch on each trial. This switch probability will stay constant throughout the block.<br><br>We will now show you some examples of beads being drawn from jars. The bead will appear in the middle of the screen, and the jar the bead was pulled from will be indicated with a black rectangle.<br><br>Press the SPACEBAR to continue. </p><div>","32"
"image-keyboard-response","12","217338","0.0-2.0-7.0","2","High_HMMActual","16089.005000001634","","","","Images/TutorialWhiteJarDrawHMMC.png","32"
"image-keyboard-response","13","218786","0.0-2.0-8.0","2","High_HMMActual","1445.6999999965774","","","","Images/TutorialBlackJarDrawHMMC.png","32"
"image-keyboard-response","14","220662","0.0-2.0-9.0","2","High_HMMActual","1873.8700000030803","","","","Images/TutorialBlackJarDrawHMMI.png","32"
"html-keyboard-response","15","248933","0.0-2.0-10.0","2","High_HMMActual","28269.62999999523","","","","<div class=""container"" style=""height:800px;width:800px;display:flex;flex-direction:column;justify-content:center;align-items:center;text-align:center;font-weight:normal;font-family:Arial;font-size:20px""><p> As you observed, a white bead was pulled from a 80% white jar, the jars switched and a black bead was pulled from the 80% black jar, but then a low-probability white bead was pulled from the 80% black jar. <br><br>Because the jars have a mix of white and black beads, the best strategy to predict the next bead is to first figure out which jar the current bead was pulled from, then use the jar switch probability to predict which jar will be drawn from next.<br><br>Press SPACEBAR to conitnue.</p><div>","32"
"html-keyboard-response","16","252443","0.0-2.0-11.0","2","High_HMMActual","3508.0400000006193","","","","<div class=""container"" style=""height:800px;width:800px;display:flex;flex-direction:column;justify-content:center;align-items:center;text-align:center;font-weight:normal;font-family:Arial;font-size:20px""><p> You will now be given a 2 question quiz to make sure you understand the task. </p><div>","32"
"image-keyboard-response","17","264943","0.0-2.0-12.0","2","High_HMMActual","12498.42499999798","","","","Images/TutorialQuestion1.png","39"
"image-keyboard-response","18","273749","0.0-2.0-13.0","2","High_HMMActual","6651.044999998761","","","","Images/TutorialQuestion2.png","38"
"html-keyboard-response","19","294939","0.0-3.0","2","High_HMMActual","19363.319999996806","","","","<div class=""container"" style=""height:800px;width:800px;display:flex;flex-direction:column;justify-content:center;align-items:center;text-align:center;font-weight:normal;font-family:Arial;font-size:20px""><p>Loading episode&hellip;</p><div>","32"
"image-keyboard-response","20","307042","0.0-4.0-0.0","2","High_HMMActual","12099.645000002114","","","","Images/NoChoice.png","39"
"image-keyboard-response","21","307447","0.0-4.0-1.0","2","High_HMMActual","null","","","","Images/WhiteBeadChoice.png","null"
"image-keyboard-response","22","308155","0.0-4.0-2.0","2","High_HMMActual","null","","","","Images/WhiteBeadChoiceWrong.png","null"
"image-keyboard-response","23","311052","0.0-4.0-0.1","2","High_HMMActual","2895.375","","","","Images/NewTrialBC.png","37"
"image-keyboard-response","24","311470","0.0-4.0-1.1","2","High_HMMActual","null","","","","Images/BlackBeadChoice.png","null"
"image-keyboard-response","25","312174","0.0-4.0-2.1","2","High_HMMActual","null","","","","Images/BlackBeadChoiceWrong.png","null"
"image-keyboard-response","26","313934","0.0-4.0-0.2","2","High_HMMActual","1758.2750000001397","","","","Images/NewTrialWC.png","39"
"image-keyboard-response","27","314338","0.0-4.0-1.2","2","High_HMMActual","null","","","","Images/WhiteBeadChoice.png","null"
"image-keyboard-response","28","315047","0.0-4.0-2.2","2","High_HMMActual","null","","","","Images/WhiteBeadChoiceWrong.png","null"
"image-keyboard-response","29","318952","0.0-4.0-0.3","2","High_HMMActual","3902.7100000021746","","","","Images/NewTrialBC.png","37"
"image-keyboard-response","30","319363","0.0-4.0-1.3","2","High_HMMActual","null","","","","Images/BlackBeadChoice.png","null"
"image-keyboard-response","31","320077","0.0-4.0-2.3","2","High_HMMActual","null","","","","Images/BlackBeadChoiceWrong.png","null"
"image-keyboard-response","32","320259","0.0-4.0-0.4","2","High_HMMActual","179.90000000281725","","","","Images/NewTrialWC.png","39"
"image-keyboard-response","33","320675","0.0-4.0-1.4","2","High_HMMActual","null","","","","Images/WhiteBeadChoice.png","null"
"image-keyboard-response","34","321380","0.0-4.0-2.4","2","High_HMMActual","null","","","","Images/WhiteBeadChoiceWrong.png","null"
"image-keyboard-response","35","321725","0.0-4.0-0.5","2","High_HMMActual","343.28500000259373","","","","Images/NewTrialBC.png","37"
"image-keyboard-response","36","322133","0.0-4.0-1.5","2","High_HMMActual","null","","","","Images/BlackBeadChoice.png","null"
"image-keyboard-response","37","322842","0.0-4.0-2.5","2","High_HMMActual","null","","","","Images/BlackBeadChoiceWrong.png","null"
"image-keyboard-response","38","323090","0.0-4.0-0.6","2","High_HMMActual","246.41500000143424","","","","Images/NewTrialWC.png","39"
"image-keyboard-response","39","323506","0.0-4.0-1.6","2","High_HMMActual","null","","","","Images/WhiteBeadChoice.png","null"
"image-keyboard-response","40","324217","0.0-4.0-2.6","2","High_HMMActual","null","","","","Images/WhiteBeadChoiceCorrect.png","null"
"image-keyboard-response","41","325229","0.0-4.0-0.7","2","High_HMMActual","1009.9399999963352","","","","Images/NewTrialWC.png","39"
"image-keyboard-response","42","325633","0.0-4.0-1.7","2","High_HMMActual","null","","","","Images/WhiteBeadChoice.png","null"
"image-keyboard-response","43","326341","0.0-4.0-2.7","2","High_HMMActual","null","","","","Images/WhiteBeadChoiceCorrect.png","null"
"image-keyboard-response","44","327041","0.0-4.0-0.8","2","High_HMMActual","697.7550000010524","","","","Images/NewTrialWC.png","39"
"image-keyboard-response","45","327446","0.0-4.0-1.8","2","High_HMMActual","null","","","","Images/WhiteBeadChoice.png","null"
"image-keyboard-response","46","328153","0.0-4.0-2.8","2","High_HMMActual","null","","","","Images/WhiteBeadChoiceWrong.png","null"
"image-keyboard-response","47","329354","0.0-4.0-0.9","2","High_HMMActual","1198.3450000043958","","","","Images/NewTrialBC.png","39"
"image-keyboard-response","48","329757","0.0-4.0-1.9","2","High_HMMActual","null","","","","Images/WhiteBeadChoice.png","null"
"image-keyboard-response","49","330474","0.0-4.0-2.9","2","High_HMMActual","636.405000004801","","","","Images/WhiteBeadChoiceCorrect.png","39"
"image-keyboard-response","50","332274","0.0-4.0-0.10","2","High_HMMActual","1797.7250000039348","","","","Images/NewTrialWC.png","39"
"image-keyboard-response","51","332687","0.0-4.0-1.10","2","High_HMMActual","null","","","","Images/WhiteBeadChoice.png","null"
"image-keyboard-response","52","333399","0.0-4.0-2.10","2","High_HMMActual","710.0750000027474","","","","Images/WhiteBeadChoiceCorrect.png","39"
"image-keyboard-response","53","336251","0.0-4.0-0.11","2","High_HMMActual","2849.210000000312","","","","Images/NewTrialWC.png","39"
"image-keyboard-response","54","336660","0.0-4.0-1.11","2","High_HMMActual","null","","","","Images/WhiteBeadChoice.png","null"
"image-keyboard-response","55","337367","0.0-4.0-2.11","2","High_HMMActual","598.9449999979697","","","","Images/WhiteBeadChoiceCorrect.png","39"
"image-keyboard-response","56","338324","0.0-4.0-0.12","2","High_HMMActual","954.6250000057044","","","","Images/NewTrialWC.png","39"
"image-keyboard-response","57","338732","0.0-4.0-1.12","2","High_HMMActual","null","","","","Images/WhiteBeadChoice.png","null"
"image-keyboard-response","58","339448","0.0-4.0-2.12","2","High_HMMActual","597.6650000012014","","","","Images/WhiteBeadChoiceWrong.png","37"
"image-keyboard-response","59","341299","0.0-4.0-0.13","2","High_HMMActual","1848.5550000041258","","","","Images/NewTrialBC.png","37"
"image-keyboard-response","60","341720","0.0-4.0-1.13","2","High_HMMActual","null","","","","Images/BlackBeadChoice.png","null"
"image-keyboard-response","61","342426","0.0-4.0-2.13","2","High_HMMActual","null","","","","Images/BlackBeadChoiceWrong.png","null"
"image-keyboard-response","62","342741","0.0-4.0-0.14","2","High_HMMActual","313.13000000233296","","","","Images/NewTrialWC.png","39"
"image-keyboard-response","63","343143","0.0-4.0-1.14","2","High_HMMActual","null","","","","Images/WhiteBeadChoice.png","null"
"image-keyboard-response","64","343850","0.0-4.0-2.14","2","High_HMMActual","null","","","","Images/WhiteBeadChoiceWrong.png","null"
"image-keyboard-response","65","344052","0.0-4.0-0.15","2","High_HMMActual","200.5250000001397","","","","Images/NewTrialBC.png","37"
"image-keyboard-response","66","344464","0.0-4.0-1.15","2","High_HMMActual","null","","","","Images/BlackBeadChoice.png","null"
"image-keyboard-response","67","345173","0.0-4.0-2.15","2","High_HMMActual","null","","","","Images/BlackBeadChoiceWrong.png","null"
"image-keyboard-response","68","345218","0.0-4.0-0.16","2","High_HMMActual","43.125000003841706","","","","Images/NewTrialWC.png","39"
"image-keyboard-response","69","345645","0.0-4.0-1.16","2","High_HMMActual","null","","","","Images/WhiteBeadChoice.png","null"
"image-keyboard-response","70","346353","0.0-4.0-2.16","2","High_HMMActual","null","","","","Images/WhiteBeadChoiceWrong.png","null"
"image-keyboard-response","71","347899","0.0-4.0-0.17","2","High_HMMActual","1543.8999999969965","","","","Images/NewTrialBC.png","37"
"image-keyboard-response","72","348302","0.0-4.0-1.17","2","High_HMMActual","null","","","","Images/BlackBeadChoice.png","null"
"image-keyboard-response","73","349004","0.0-4.0-2.17","2","High_HMMActual","458.2799999989802","","","","Images/BlackBeadChoiceWrong.png","37"
"image-keyboard-response","74","349675","0.0-4.0-0.18","2","High_HMMActual","668.570000001695","","","","Images/NewTrialWC.png","37"
"image-keyboard-response","75","350082","0.0-4.0-1.18","2","High_HMMActual","null","","","","Images/BlackBeadChoice.png","null"
"image-keyboard-response","76","350797","0.0-4.0-2.18","2","High_HMMActual","null","","","","Images/BlackBeadChoiceCorrect.png","null"
"image-keyboard-response","77","351412","0.0-4.0-0.19","2","High_HMMActual","612.410000001546","","","","Images/NewTrialBC.png","37"
"image-keyboard-response","78","351821","0.0-4.0-1.19","2","High_HMMActual","null","","","","Images/BlackBeadChoice.png","null"
"image-keyboard-response","79","352532","0.0-4.0-2.19","2","High_HMMActual","null","","","","Images/BlackBeadChoiceCorrect.png","null"
"image-keyboard-response","80","353052","0.0-4.0-0.20","2","High_HMMActual","518.174999997369","","","","Images/NewTrialBC.png","37"
"image-keyboard-response","81","353464","0.0-4.0-1.20","2","High_HMMActual","null","","","","Images/BlackBeadChoice.png","null"
"image-keyboard-response","82","354170","0.0-4.0-2.20","2","High_HMMActual","null","","","","Images/BlackBeadChoiceCorrect.png","null"
"image-keyboard-response","83","354438","0.0-4.0-0.21","2","High_HMMActual","265.74499999696855","","","","Images/NewTrialBC.png","39"
"image-keyboard-response","84","354856","0.0-4.0-1.21","2","High_HMMActual","null","","","","Images/WhiteBeadChoice.png","null"
"image-keyboard-response","85","355574","0.0-4.0-2.21","2","High_HMMActual","680.2099999986822","","","","Images/WhiteBeadChoiceCorrect.png","39"
"image-keyboard-response","86","356447","0.0-4.0-0.22","2","High_HMMActual","870.724999993341","","","","Images/NewTrialWC.png","39"
"image-keyboard-response","87","356860","0.0-4.0-1.22","2","High_HMMActual","null","","","","Images/WhiteBeadChoice.png","null"
"image-keyboard-response","88","357572","0.0-4.0-2.22","2","High_HMMActual","null","","","","Images/WhiteBeadChoiceWrong.png","null"
"image-keyboard-response","89","370270","0.0-4.0-0.23","2","High_HMMActual","12695.579999999609","","","","Images/NewTrialBC.png","37"
"image-keyboard-response","90","370686","0.0-4.0-1.23","2","High_HMMActual","null","","","","Images/BlackBeadChoice.png","null"
"image-keyboard-response","91","371398","0.0-4.0-2.23","2","High_HMMActual","null","","","","Images/BlackBeadChoiceWrong.png","null"
"image-keyboard-response","92","371701","0.0-4.0-0.24","2","High_HMMActual","300.889999998617","","","","Images/NewTrialWC.png","39"
"image-keyboard-response","93","372105","0.0-4.0-1.24","2","High_HMMActual","null","","","","Images/WhiteBeadChoice.png","null"
"image-keyboard-response","94","372823","0.0-4.0-2.24","2","High_HMMActual","null","","","","Images/WhiteBeadChoiceWrong.png","null"
"image-keyboard-response","95","374030","0.0-4.0-0.25","2","High_HMMActual","1204.5349999971222","","","","Images/NewTrialBC.png","37"
"image-keyboard-response","96","374439","0.0-4.0-1.25","2","High_HMMActual","null","","","","Images/BlackBeadChoice.png","null"
"image-keyboard-response","97","375142","0.0-4.0-2.25","2","High_HMMActual","null","","","","Images/BlackBeadChoiceWrong.png","null"
"image-keyboard-response","98","376164","0.0-4.0-0.26","2","High_HMMActual","1019.1699999995762","","","","Images/NewTrialWC.png","39"
"image-keyboard-response","99","376579","0.0-4.0-1.26","2","High_HMMActual","null","","","","Images/WhiteBeadChoice.png","null"
"image-keyboard-response","100","377284","0.0-4.0-2.26","2","High_HMMActual","null","","","","Images/WhiteBeadChoiceWrong.png","null"
"image-keyboard-response","101","377384","0.0-4.0-0.27","2","High_HMMActual","98.29000000166707","","","","Images/NewTrialBC.png","37"
"image-keyboard-response","102","377787","0.0-4.0-1.27","2","High_HMMActual","null","","","","Images/BlackBeadChoice.png","null"
"image-keyboard-response","103","378491","0.0-4.0-2.27","2","High_HMMActual","null","","","","Images/BlackBeadChoiceWrong.png","null"
"image-keyboard-response","104","378908","0.0-4.0-0.28","2","High_HMMActual","415.6349999975646","","","","Images/NewTrialWC.png","39"
"image-keyboard-response","105","379322","0.0-4.0-1.28","2","High_HMMActual","null","","","","Images/WhiteBeadChoice.png","null"
"image-keyboard-response","106","380041","0.0-4.0-2.28","2","High_HMMActual","657.064999999362","","","","Images/WhiteBeadChoiceWrong.png","37"
"image-keyboard-response","107","380889","0.0-4.0-0.29","2","High_HMMActual","845.8600000012666","","","","Images/NewTrialBC.png","37"
"image-keyboard-response","108","381291","0.0-4.0-1.29","2","High_HMMActual","null","","","","Images/BlackBeadChoice.png","null"
"image-keyboard-response","109","382001","0.0-4.0-2.29","2","High_HMMActual","null","","","","Images/BlackBeadChoiceWrong.png","null"
"image-keyboard-response","110","382022","0.0-4.0-0.30","2","High_HMMActual","19.5750000057742","","","","Images/NewTrialWC.png","39"
"image-keyboard-response","111","382440","0.0-4.0-1.30","2","High_HMMActual","null","","","","Images/WhiteBeadChoice.png","null"
"image-keyboard-response","112","383156","0.0-4.0-2.30","2","High_HMMActual","null","","","","Images/WhiteBeadChoiceWrong.png","null"
"image-keyboard-response","113","383650","0.0-4.0-0.31","2","High_HMMActual","491.6000000012573","","","","Images/NewTrialBC.png","37"
"image-keyboard-response","114","384066","0.0-4.0-1.31","2","High_HMMActual","null","","","","Images/BlackBeadChoice.png","null"
"image-keyboard-response","115","384784","0.0-4.0-2.31","2","High_HMMActual","589.5749999982072","","","","Images/BlackBeadChoiceWrong.png","39"
"image-keyboard-response","116","385648","0.0-4.0-0.32","2","High_HMMActual","861.7900000027148","","","","Images/NewTrialWC.png","39"
"image-keyboard-response","117","386051","0.0-4.0-1.32","2","High_HMMActual","null","","","","Images/WhiteBeadChoice.png","null"
"image-keyboard-response","118","386758","0.0-4.0-2.32","2","High_HMMActual","620.6200000015087","","","","Images/WhiteBeadChoiceWrong.png","37"
"image-keyboard-response","119","387406","0.0-4.0-0.33","2","High_HMMActual","645.4949999969685","","","","Images/NewTrialBC.png","37"
"image-keyboard-response","120","387816","0.0-4.0-1.33","2","High_HMMActual","null","","","","Images/BlackBeadChoice.png","null"
"image-keyboard-response","121","388534","0.0-4.0-2.33","2","High_HMMActual","null","","","","Images/BlackBeadChoiceWrong.png","null"
"image-keyboard-response","122","388621","0.0-4.0-0.34","2","High_HMMActual","85.3449999995064","","","","Images/NewTrialWC.png","39"
"image-keyboard-response","123","389037","0.0-4.0-1.34","2","High_HMMActual","null","","","","Images/WhiteBeadChoice.png","null"
"image-keyboard-response","124","389760","0.0-4.0-2.34","2","High_HMMActual","null","","","","Images/WhiteBeadChoiceWrong.png","null"
"image-keyboard-response","125","389785","0.0-4.0-0.35","2","High_HMMActual","23.48999999964144","","","","Images/NewTrialBC.png","37"
"image-keyboard-response","126","390191","0.0-4.0-1.35","2","High_HMMActual","null","","","","Images/BlackBeadChoice.png","null"
"image-keyboard-response","127","390910","0.0-4.0-2.35","2","High_HMMActual","null","","","","Images/BlackBeadChoiceCorrect.png","null"
"image-keyboard-response","128","393024","0.0-4.0-0.36","2","High_HMMActual","2112.584999995306","","","","Images/NewTrialBC.png","39"
"image-keyboard-response","129","393432","0.0-4.0-1.36","2","High_HMMActual","null","","","","Images/WhiteBeadChoice.png","null"
"image-keyboard-response","130","394136","0.0-4.0-2.36","2","High_HMMActual","null","","","","Images/WhiteBeadChoiceWrong.png","null"
"image-keyboard-response","131","394304","0.0-4.0-0.37","2","High_HMMActual","165.49500000104308","","","","Images/NewTrialBC.png","37"
"image-keyboard-response","132","394717","0.0-4.0-1.37","2","High_HMMActual","null","","","","Images/BlackBeadChoice.png","null"
"image-keyboard-response","133","395436","0.0-4.0-2.37","2","High_HMMActual","null","","","","Images/BlackBeadChoiceWrong.png","null"
"image-keyboard-response","134","395512","0.0-4.0-0.38","2","High_HMMActual","74.19500000111293","","","","Images/NewTrialWC.png","39"
"image-keyboard-response","135","395921","0.0-4.0-1.38","2","High_HMMActual","null","","","","Images/WhiteBeadChoice.png","null"
"image-keyboard-response","136","396635","0.0-4.0-2.38","2","High_HMMActual","null","","","","Images/WhiteBeadChoiceWrong.png","null"
"image-keyboard-response","137","397201","0.0-4.0-0.39","2","High_HMMActual","564.4650000031106","","","","Images/NewTrialBC.png","37"
"image-keyboard-response","138","397615","0.0-4.0-1.39","2","High_HMMActual","null","","","","Images/BlackBeadChoice.png","null"
"image-keyboard-response","139","398327","0.0-4.0-2.39","2","High_HMMActual","null","","","","Images/BlackBeadChoiceCorrect.png","null"
"image-keyboard-response","140","400368","0.0-4.0-0.40","2","High_HMMActual","2038.9649999997346","","","","Images/NewTrialBC.png","37"
"image-keyboard-response","141","400777","0.0-4.0-1.40","2","High_HMMActual","null","","","","Images/BlackBeadChoice.png","null"
"image-keyboard-response","142","401485","0.0-4.0-2.40","2","High_HMMActual","null","","","","Images/BlackBeadChoiceCorrect.png","null"
"image-keyboard-response","143","402942","0.0-4.0-0.41","2","High_HMMActual","1454.1350000000093","","","","Images/NewTrialBC.png","37"
"image-keyboard-response","144","403350","0.0-4.0-1.41","2","High_HMMActual","null","","","","Images/BlackBeadChoice.png","null"
"image-keyboard-response","145","404054","0.0-4.0-2.41","2","High_HMMActual","null","","","","Images/BlackBeadChoiceWrong.png","null"
"image-keyboard-response","146","404189","0.0-4.0-0.42","2","High_HMMActual","132.24500000069384","","","","Images/NewTrialWC.png","39"
"image-keyboard-response","147","404601","0.0-4.0-1.42","2","High_HMMActual","null","","","","Images/WhiteBeadChoice.png","null"
"image-keyboard-response","148","405318","0.0-4.0-2.42","2","High_HMMActual","null","","","","Images/WhiteBeadChoiceCorrect.png","null"
"image-keyboard-response","149","405902","0.0-4.0-0.43","2","High_HMMActual","582.0200000016484","","","","Images/NewTrialWC.png","37"
"image-keyboard-response","150","406309","0.0-4.0-1.43","2","High_HMMActual","null","","","","Images/BlackBeadChoice.png","null"
"image-keyboard-response","151","407016","0.0-4.0-2.43","2","High_HMMActual","693.9150000034133","","","","Images/BlackBeadChoiceCorrect.png","37"
"image-keyboard-response","152","408715","0.0-4.0-0.44","2","High_HMMActual","1696.9750000062631","","","","Images/NewTrialBC.png","37"
"image-keyboard-response","153","409126","0.0-4.0-1.44","2","High_HMMActual","null","","","","Images/BlackBeadChoice.png","null"
"image-keyboard-response","154","409828","0.0-4.0-2.44","2","High_HMMActual","null","","","","Images/BlackBeadChoiceCorrect.png","null"
"image-keyboard-response","155","410660","0.0-4.0-0.45","2","High_HMMActual","829.7800000000279","","","","Images/NewTrialBC.png","37"
"image-keyboard-response","156","411078","0.0-4.0-1.45","2","High_HMMActual","null","","","","Images/BlackBeadChoice.png","null"
"image-keyboard-response","157","411781","0.0-4.0-2.45","2","High_HMMActual","null","","","","Images/BlackBeadChoiceCorrect.png","null"
"image-keyboard-response","158","412438","0.0-4.0-0.46","2","High_HMMActual","654.7699999937322","","","","Images/NewTrialBC.png","39"
"image-keyboard-response","159","412853","0.0-4.0-1.46","2","High_HMMActual","null","","","","Images/WhiteBeadChoice.png","null"
"image-keyboard-response","160","413561","0.0-4.0-2.46","2","High_HMMActual","null","","","","Images/WhiteBeadChoiceWrong.png","null"
"image-keyboard-response","161","413651","0.0-4.0-0.47","2","High_HMMActual","88.25499999511521","","","","Images/NewTrialBC.png","37"
"image-keyboard-response","162","414058","0.0-4.0-1.47","2","High_HMMActual","null","","","","Images/BlackBeadChoice.png","null"
"image-keyboard-response","163","414767","0.0-4.0-2.47","2","High_HMMActual","null","","","","Images/BlackBeadChoiceWrong.png","null"
"image-keyboard-response","164","414941","0.0-4.0-0.48","2","High_HMMActual","172.50000000058208","","","","Images/NewTrialWC.png","39"
"image-keyboard-response","165","415355","0.0-4.0-1.48","2","High_HMMActual","null","","","","Images/WhiteBeadChoice.png","null"
"image-keyboard-response","166","416062","0.0-4.0-2.48","2","High_HMMActual","null","","","","Images/WhiteBeadChoiceWrong.png","null"
"image-keyboard-response","167","416747","0.0-4.0-0.49","2","High_HMMActual","682.7200000042794","","","","Images/NewTrialBC.png","37"
"image-keyboard-response","168","417155","0.0-4.0-1.49","2","High_HMMActual","null","","","","Images/BlackBeadChoice.png","null"
"image-keyboard-response","169","417857","0.0-4.0-2.49","2","High_HMMActual","611.5250000002561","","","","Images/BlackBeadChoiceWrong.png","39"
"image-keyboard-response","170","418904","0.0-4.0-0.50","2","High_HMMActual","1045.0500000006286","","","","Images/NewTrialWC.png","39"
"image-keyboard-response","171","419306","0.0-4.0-1.50","2","High_HMMActual","null","","","","Images/WhiteBeadChoice.png","null"
"image-keyboard-response","172","420012","0.0-4.0-2.50","2","High_HMMActual","null","","","","Images/WhiteBeadChoiceWrong.png","null"
"image-keyboard-response","173","420060","0.0-4.0-0.51","2","High_HMMActual","45.45499999949243","","","","Images/NewTrialBC.png","37"
"image-keyboard-response","174","420474","0.0-4.0-1.51","2","High_HMMActual","null","","","","Images/BlackBeadChoice.png","null"
"image-keyboard-response","175","421180","0.0-4.0-2.51","2","High_HMMActual","null","","","","Images/BlackBeadChoiceCorrect.png","null"
"image-keyboard-response","176","421827","0.0-4.0-0.52","2","High_HMMActual","645.5300000016578","","","","Images/NewTrialBC.png","39"
"image-keyboard-response","177","422236","0.0-4.0-1.52","2","High_HMMActual","null","","","","Images/WhiteBeadChoice.png","null"
"image-keyboard-response","178","422941","0.0-4.0-2.52","2","High_HMMActual","null","","","","Images/WhiteBeadChoiceWrong.png","null"
"image-keyboard-response","179","423139","0.0-4.0-0.53","2","High_HMMActual","195.8100000047125","","","","Images/NewTrialBC.png","37"
"image-keyboard-response","180","423549","0.0-4.0-1.53","2","High_HMMActual","null","","","","Images/BlackBeadChoice.png","null"
"image-keyboard-response","181","424255","0.0-4.0-2.53","2","High_HMMActual","493.94000000029337","","","","Images/BlackBeadChoiceWrong.png","39"
"image-keyboard-response","182","425028","0.0-4.0-0.54","2","High_HMMActual","771.5099999987287","","","","Images/NewTrialWC.png","39"
"image-keyboard-response","183","425430","0.0-4.0-1.54","2","High_HMMActual","null","","","","Images/WhiteBeadChoice.png","null"
"image-keyboard-response","184","426141","0.0-4.0-2.54","2","High_HMMActual","671.750000001397","","","","Images/WhiteBeadChoiceWrong.png","37"
"image-keyboard-response","185","427663","0.0-4.0-0.55","2","High_HMMActual","1519.8050000035437","","","","Images/NewTrialBC.png","37"
"image-keyboard-response","186","428080","0.0-4.0-1.55","2","High_HMMActual","null","","","","Images/BlackBeadChoice.png","null"
"image-keyboard-response","187","428786","0.0-4.0-2.55","2","High_HMMActual","492.6350000023376","","","","Images/BlackBeadChoiceWrong.png","39"
"image-keyboard-response","188","429187","0.0-4.0-0.56","2","High_HMMActual","399.04500000562984","","","","Images/NewTrialWC.png","39"
"image-keyboard-response","189","429595","0.0-4.0-1.56","2","High_HMMActual","null","","","","Images/WhiteBeadChoice.png","null"
"image-keyboard-response","190","430308","0.0-4.0-2.56","2","High_HMMActual","null","","","","Images/WhiteBeadChoiceWrong.png","null"
"image-keyboard-response","191","430413","0.0-4.0-0.57","2","High_HMMActual","103.25000000011642","","","","Images/NewTrialBC.png","37"
"image-keyboard-response","192","430818","0.0-4.0-1.57","2","High_HMMActual","null","","","","Images/BlackBeadChoice.png","null"
"image-keyboard-response","193","431541","0.0-4.0-2.57","2","High_HMMActual","null","","","","Images/BlackBeadChoiceWrong.png","null"
"image-keyboard-response","194","431943","0.0-4.0-0.58","2","High_HMMActual","400.33499999844935","","","","Images/NewTrialWC.png","39"
"image-keyboard-response","195","432361","0.0-4.0-1.58","2","High_HMMActual","null","","","","Images/WhiteBeadChoice.png","null"
"image-keyboard-response","196","433063","0.0-4.0-2.58","2","High_HMMActual","629.1750000017928","","","","Images/WhiteBeadChoiceWrong.png","37"
"image-keyboard-response","197","433748","0.0-4.0-0.59","2","High_HMMActual","682.8999999997905","","","","Images/NewTrialBC.png","37"
"image-keyboard-response","198","434153","0.0-4.0-1.59","2","High_HMMActual","null","","","","Images/BlackBeadChoice.png","null"
"image-keyboard-response","199","434860","0.0-4.0-2.59","2","High_HMMActual","null","","","","Images/BlackBeadChoiceWrong.png","null"
"image-keyboard-response","200","436293","0.0-4.0-0.60","2","High_HMMActual","1430.4349999947008","","","","Images/NewTrialWC.png","39"
"image-keyboard-response","201","436709","0.0-4.0-1.60","2","High_HMMActual","null","","","","Images/WhiteBeadChoice.png","null"
"image-keyboard-response","202","437424","0.0-4.0-2.60","2","High_HMMActual","536.5000000019791","","","","Images/WhiteBeadChoiceWrong.png","37"
"image-keyboard-response","203","437809","0.0-4.0-0.61","2","High_HMMActual","382.9750000004424","","","","Images/NewTrialBC.png","37"
"image-keyboard-response","204","438218","0.0-4.0-1.61","2","High_HMMActual","null","","","","Images/BlackBeadChoice.png","null"
"image-keyboard-response","205","438921","0.0-4.0-2.61","2","High_HMMActual","null","","","","Images/BlackBeadChoiceWrong.png","null"
"image-keyboard-response","206","439419","0.0-4.0-0.62","2","High_HMMActual","495.295000000624","","","","Images/NewTrialWC.png","39"
"image-keyboard-response","207","439823","0.0-4.0-1.62","2","High_HMMActual","null","","","","Images/WhiteBeadChoice.png","null"
"image-keyboard-response","208","440530","0.0-4.0-2.62","2","High_HMMActual","null","","","","Images/WhiteBeadChoiceWrong.png","null"
"image-keyboard-response","209","443016","0.0-4.0-0.63","2","High_HMMActual","2484.5500000010943","","","","Images/NewTrialBC.png","37"
"image-keyboard-response","210","443428","0.0-4.0-1.63","2","High_HMMActual","null","","","","Images/BlackBeadChoice.png","null"
"image-keyboard-response","211","444145","0.0-4.0-2.63","2","High_HMMActual","null","","","","Images/BlackBeadChoiceCorrect.png","null"
"image-keyboard-response","212","458717","0.0-4.0-0.64","2","High_HMMActual","14570.155000001309","","","","Images/NewTrialBC.png","37"
"image-keyboard-response","213","459130","0.0-4.0-1.64","2","High_HMMActual","null","","","","Images/BlackBeadChoice.png","null"
"image-keyboard-response","214","459847","0.0-4.0-2.64","2","High_HMMActual","null","","","","Images/BlackBeadChoiceCorrect.png","null"
"image-keyboard-response","215","460978","0.0-4.0-0.65","2","High_HMMActual","1129.2350000003353","","","","Images/NewTrialBC.png","39"
"image-keyboard-response","216","461388","0.0-4.0-1.65","2","High_HMMActual","null","","","","Images/WhiteBeadChoice.png","null"
"image-keyboard-response","217","462103","0.0-4.0-2.65","2","High_HMMActual","null","","","","Images/WhiteBeadChoiceCorrect.png","null"
"image-keyboard-response","218","462504","0.0-4.0-0.66","2","High_HMMActual","398.9399999991292","","","","Images/NewTrialWC.png","39"
"image-keyboard-response","219","462920","0.0-4.0-1.66","2","High_HMMActual","null","","","","Images/WhiteBeadChoice.png","null"
"image-keyboard-response","220","463631","0.0-4.0-2.66","2","High_HMMActual","null","","","","Images/WhiteBeadChoiceWrong.png","null"
"image-keyboard-response","221","463675","0.0-4.0-0.67","2","High_HMMActual","41.43500000645872","","","","Images/NewTrialBC.png","37"
"image-keyboard-response","222","464082","0.0-4.0-1.67","2","High_HMMActual","null","","","","Images/BlackBeadChoice.png","null"
"image-keyboard-response","223","464802","0.0-4.0-2.67","2","High_HMMActual","675.8650000047637","","","","Images/BlackBeadChoiceWrong.png","39"
"image-keyboard-response","224","465423","0.0-4.0-0.68","2","High_HMMActual","619.3449999991572","","","","Images/NewTrialWC.png","39"
"image-keyboard-response","225","465838","0.0-4.0-1.68","2","High_HMMActual","null","","","","Images/WhiteBeadChoice.png","null"
"image-keyboard-response","226","466545","0.0-4.0-2.68","2","High_HMMActual","535.3850000028033","","","","Images/WhiteBeadChoiceWrong.png","37"
"image-keyboard-response","227","467272","0.0-4.0-0.69","2","High_HMMActual","724.7749999951338","","","","Images/NewTrialBC.png","37"
"image-keyboard-response","228","467680","0.0-4.0-1.69","2","High_HMMActual","null","","","","Images/BlackBeadChoice.png","null"
"image-keyboard-response","229","468391","0.0-4.0-2.69","2","High_HMMActual","495.79000000085216","","","","Images/BlackBeadChoiceWrong.png","39"
"image-keyboard-response","230","468887","0.0-4.0-0.70","2","High_HMMActual","493.19999999715947","","","","Images/NewTrialWC.png","39"
"image-keyboard-response","231","469303","0.0-4.0-1.70","2","High_HMMActual","null","","","","Images/WhiteBeadChoice.png","null"
"image-keyboard-response","232","470012","0.0-4.0-2.70","2","High_HMMActual","null","","","","Images/WhiteBeadChoiceWrong.png","null"
"image-keyboard-response","233","470282","0.0-4.0-0.71","2","High_HMMActual","268.7000000005355","","","","Images/NewTrialBC.png","37"
"image-keyboard-response","234","470700","0.0-4.0-1.71","2","High_HMMActual","null","","","","Images/BlackBeadChoice.png","null"
"image-keyboard-response","235","471412","0.0-4.0-2.71","2","High_HMMActual","null","","","","Images/BlackBeadChoiceWrong.png","null"
"image-keyboard-response","236","471467","0.0-4.0-0.72","2","High_HMMActual","52.244999998947605","","","","Images/NewTrialWC.png","39"
"image-keyboard-response","237","471883","0.0-4.0-1.72","2","High_HMMActual","null","","","","Images/WhiteBeadChoice.png","null"
"image-keyboard-response","238","472600","0.0-4.0-2.72","2","High_HMMActual","null","","","","Images/WhiteBeadChoiceWrong.png","null"
"image-keyboard-response","239","472704","0.0-4.0-0.73","2","High_HMMActual","101.17000000178814","","","","Images/NewTrialBC.png","37"
"image-keyboard-response","240","473122","0.0-4.0-1.73","2","High_HMMActual","null","","","","Images/BlackBeadChoice.png","null"
"image-keyboard-response","241","473829","0.0-4.0-2.73","2","High_HMMActual","528.5700000022771","","","","Images/BlackBeadChoiceWrong.png","39"
"image-keyboard-response","242","474213","0.0-4.0-0.74","2","High_HMMActual","382.5349999970058","","","","Images/NewTrialWC.png","39"
"image-keyboard-response","243","474615","0.0-4.0-1.74","2","High_HMMActual","null","","","","Images/WhiteBeadChoice.png","null"
"image-keyboard-response","244","475333","0.0-4.0-2.74","2","High_HMMActual","468.3050000021467","","","","Images/WhiteBeadChoiceWrong.png","37"
"image-keyboard-response","245","475822","0.0-4.0-0.75","2","High_HMMActual","487.1449999992037","","","","Images/NewTrialBC.png","37"
"image-keyboard-response","246","476226","0.0-4.0-1.75","2","High_HMMActual","null","","","","Images/BlackBeadChoice.png","null"
"image-keyboard-response","247","476941","0.0-4.0-2.75","2","High_HMMActual","500.465000004624","","","","Images/BlackBeadChoiceWrong.png","39"
"image-keyboard-response","248","477447","0.0-4.0-0.76","2","High_HMMActual","503.8849999982631","","","","Images/NewTrialWC.png","39"
"image-keyboard-response","249","477856","0.0-4.0-1.76","2","High_HMMActual","null","","","","Images/WhiteBeadChoice.png","null"
"image-keyboard-response","250","478574","0.0-4.0-2.76","2","High_HMMActual","698.1050000031246","","","","Images/WhiteBeadChoiceWrong.png","37"
"image-keyboard-response","251","479198","0.0-4.0-0.77","2","High_HMMActual","621.5299999966519","","","","Images/NewTrialBC.png","37"
"image-keyboard-response","252","479609","0.0-4.0-1.77","2","High_HMMActual","null","","","","Images/BlackBeadChoice.png","null"
"image-keyboard-response","253","480318","0.0-4.0-2.77","2","High_HMMActual","null","","","","Images/BlackBeadChoiceWrong.png","null"
"image-keyboard-response","254","480505","0.0-4.0-0.78","2","High_HMMActual","185.0300000004936","","","","Images/NewTrialWC.png","39"
"image-keyboard-response","255","480919","0.0-4.0-1.78","2","High_HMMActual","null","","","","Images/WhiteBeadChoice.png","null"
"image-keyboard-response","256","481636","0.0-4.0-2.78","2","High_HMMActual","null","","","","Images/WhiteBeadChoiceWrong.png","null"
"image-keyboard-response","257","481673","0.0-4.0-0.79","2","High_HMMActual","35.25000000081491","","","","Images/NewTrialBC.png","37"
"image-keyboard-response","258","482075","0.0-4.0-1.79","2","High_HMMActual","null","","","","Images/BlackBeadChoice.png","null"
"image-keyboard-response","259","482778","0.0-4.0-2.79","2","High_HMMActual","595.9050000018906","","","","Images/BlackBeadChoiceWrong.png","39"
"image-keyboard-response","260","483355","0.0-4.0-0.80","2","High_HMMActual","574.5049999968614","","","","Images/NewTrialWC.png","39"
"image-keyboard-response","261","483758","0.0-4.0-1.80","2","High_HMMActual","null","","","","Images/WhiteBeadChoice.png","null"
"image-keyboard-response","262","484467","0.0-4.0-2.80","2","High_HMMActual","680.6349999969825","","","","Images/WhiteBeadChoiceWrong.png","37"
"image-keyboard-response","263","485390","0.0-4.0-0.81","2","High_HMMActual","921.1400000058347","","","","Images/NewTrialBC.png","37"
"image-keyboard-response","264","485806","0.0-4.0-1.81","2","High_HMMActual","null","","","","Images/BlackBeadChoice.png","null"
"image-keyboard-response","265","486512","0.0-4.0-2.81","2","High_HMMActual","null","","","","Images/BlackBeadChoiceWrong.png","null"
"image-keyboard-response","266","486929","0.0-4.0-0.82","2","High_HMMActual","415.8250000036787","","","","Images/NewTrialWC.png","39"
"image-keyboard-response","267","487347","0.0-4.0-1.82","2","High_HMMActual","null","","","","Images/WhiteBeadChoice.png","null"
"image-keyboard-response","268","488050","0.0-4.0-2.82","2","High_HMMActual","571.3150000011083","","","","Images/WhiteBeadChoiceWrong.png","37"
"image-keyboard-response","269","488551","0.0-4.0-0.83","2","High_HMMActual","498.82000000064727","","","","Images/NewTrialBC.png","37"
"image-keyboard-response","270","488960","0.0-4.0-1.83","2","High_HMMActual","null","","","","Images/BlackBeadChoice.png","null"
"image-keyboard-response","271","489665","0.0-4.0-2.83","2","High_HMMActual","702.2400000059279","","","","Images/BlackBeadChoiceWrong.png","39"
"image-keyboard-response","272","490307","0.0-4.0-0.84","2","High_HMMActual","640.2749999979278","","","","Images/NewTrialWC.png","39"
"image-keyboard-response","273","490713","0.0-4.0-1.84","2","High_HMMActual","null","","","","Images/WhiteBeadChoice.png","null"
"image-keyboard-response","274","491419","0.0-4.0-2.84","2","High_HMMActual","null","","","","Images/WhiteBeadChoiceWrong.png","null"
"image-keyboard-response","275","491444","0.0-4.0-0.85","2","High_HMMActual","23.014999998849817","","","","Images/NewTrialBC.png","37"
"image-keyboard-response","276","491847","0.0-4.0-1.85","2","High_HMMActual","null","","","","Images/BlackBeadChoice.png","null"
"image-keyboard-response","277","492551","0.0-4.0-2.85","2","High_HMMActual","null","","","","Images/BlackBeadChoiceWrong.png","null"
"image-keyboard-response","278","492910","0.0-4.0-0.86","2","High_HMMActual","357.09499999939","","","","Images/NewTrialWC.png","39"
"image-keyboard-response","279","493322","0.0-4.0-1.86","2","High_HMMActual","null","","","","Images/WhiteBeadChoice.png","null"
"image-keyboard-response","280","494028","0.0-4.0-2.86","2","High_HMMActual","null","","","","Images/WhiteBeadChoiceCorrect.png","null"
"image-keyboard-response","281","495427","0.0-4.0-0.87","2","High_HMMActual","1396.8499999974156","","","","Images/NewTrialWC.png","37"
"image-keyboard-response","282","495834","0.0-4.0-1.87","2","High_HMMActual","null","","","","Images/BlackBeadChoice.png","null"
"image-keyboard-response","283","496552","0.0-4.0-2.87","2","High_HMMActual","null","","","","Images/BlackBeadChoiceWrong.png","null"
"image-keyboard-response","284","497212","0.0-4.0-0.88","2","High_HMMActual","657.3549999957904","","","","Images/NewTrialWC.png","39"
"image-keyboard-response","285","497624","0.0-4.0-1.88","2","High_HMMActual","null","","","","Images/WhiteBeadChoice.png","null"
"image-keyboard-response","286","498330","0.0-4.0-2.88","2","High_HMMActual","null","","","","Images/WhiteBeadChoiceWrong.png","null"
"image-keyboard-response","287","498927","0.0-4.0-0.89","2","High_HMMActual","595.5950000061421","","","","Images/NewTrialBC.png","37"
"image-keyboard-response","288","499332","0.0-4.0-1.89","2","High_HMMActual","null","","","","Images/BlackBeadChoice.png","null"
"image-keyboard-response","289","500056","0.0-4.0-2.89","2","High_HMMActual","null","","","","Images/BlackBeadChoiceCorrect.png","null"
"image-keyboard-response","290","500597","0.0-4.0-0.90","2","High_HMMActual","538.6650000000373","","","","Images/NewTrialBC.png","39"
"image-keyboard-response","291","501003","0.0-4.0-1.90","2","High_HMMActual","null","","","","Images/WhiteBeadChoice.png","null"
"image-keyboard-response","292","501719","0.0-4.0-2.90","2","High_HMMActual","null","","","","Images/WhiteBeadChoiceWrong.png","null"
"image-keyboard-response","293","501959","0.0-4.0-0.91","2","High_HMMActual","237.90500000177417","","","","Images/NewTrialBC.png","37"
"image-keyboard-response","294","502372","0.0-4.0-1.91","2","High_HMMActual","null","","","","Images/BlackBeadChoice.png","null"
"image-keyboard-response","295","503079","0.0-4.0-2.91","2","High_HMMActual","589.5400000008522","","","","Images/BlackBeadChoiceWrong.png","39"
"image-keyboard-response","296","503908","0.0-4.0-0.92","2","High_HMMActual","827.0699999993667","","","","Images/NewTrialWC.png","39"
"image-keyboard-response","297","504315","0.0-4.0-1.92","2","High_HMMActual","null","","","","Images/WhiteBeadChoice.png","null"
"image-keyboard-response","298","505020","0.0-4.0-2.92","2","High_HMMActual","412.2700000007171","","","","Images/WhiteBeadChoiceWrong.png","37"
"image-keyboard-response","299","506045","0.0-4.0-0.93","2","High_HMMActual","1023.3399999997346","","","","Images/NewTrialBC.png","37"
"image-keyboard-response","300","506462","0.0-4.0-1.93","2","High_HMMActual","null","","","","Images/BlackBeadChoice.png","null"
"image-keyboard-response","301","507177","0.0-4.0-2.93","2","High_HMMActual","486.29499999515247","","","","Images/BlackBeadChoiceWrong.png","39"
"image-keyboard-response","302","508056","0.0-4.0-0.94","2","High_HMMActual","877.3000000000466","","","","Images/NewTrialWC.png","39"
"image-keyboard-response","303","508468","0.0-4.0-1.94","2","High_HMMActual","null","","","","Images/WhiteBeadChoice.png","null"
"image-keyboard-response","304","509174","0.0-4.0-2.94","2","High_HMMActual","523.365000000922","","","","Images/WhiteBeadChoiceWrong.png","37"
"image-keyboard-response","305","510736","0.0-4.0-0.95","2","High_HMMActual","1559.9250000014435","","","","Images/NewTrialBC.png","37"
"image-keyboard-response","306","511157","0.0-4.0-1.95","2","High_HMMActual","null","","","","Images/BlackBeadChoice.png","null"
"image-keyboard-response","307","511876","0.0-4.0-2.95","2","High_HMMActual","null","","","","Images/BlackBeadChoiceCorrect.png","null"
"image-keyboard-response","308","511923","0.0-4.0-0.96","2","High_HMMActual","44.01499999943189","","","","Images/NewTrialBC.png","39"
"image-keyboard-response","309","512338","0.0-4.0-1.96","2","High_HMMActual","null","","","","Images/WhiteBeadChoice.png","null"
"image-keyboard-response","310","513040","0.0-4.0-2.96","2","High_HMMActual","645.4200000007404","","","","Images/WhiteBeadChoiceWrong.png","37"
"image-keyboard-response","311","514696","0.0-4.0-0.97","2","High_HMMActual","1655.1199999958044","","","","Images/NewTrialBC.png","37"
"image-keyboard-response","312","515105","0.0-4.0-1.97","2","High_HMMActual","null","","","","Images/BlackBeadChoice.png","null"
"image-keyboard-response","313","515825","0.0-4.0-2.97","2","High_HMMActual","678.4000000043306","","","","Images/BlackBeadChoiceCorrect.png","39"
"image-keyboard-response","314","517750","0.0-4.0-0.98","2","High_HMMActual","1923.399999999674","","","","Images/NewTrialBC.png","39"
"image-keyboard-response","315","518156","0.0-4.0-1.98","2","High_HMMActual","null","","","","Images/WhiteBeadChoice.png","null"
"image-keyboard-response","316","518871","0.0-4.0-2.98","2","High_HMMActual","null","","","","Images/WhiteBeadChoiceWrong.png","null"
"image-keyboard-response","317","519849","0.0-4.0-0.99","2","High_HMMActual","976.4199999989942","","","","Images/NewTrialBC.png","37"
"image-keyboard-response","318","520265","0.0-4.0-1.99","2","High_HMMActual","null","","","","Images/BlackBeadChoice.png","null"
"image-keyboard-response","319","520971","0.0-4.0-2.99","2","High_HMMActual","null","","","","Images/BlackBeadChoiceWrong.png","null"
"image-keyboard-response","320","521249","0.0-4.0-0.100","2","High_HMMActual","275.5249999972293","","","","Images/NewTrialWC.png","39"
"image-keyboard-response","321","521668","0.0-4.0-1.100","2","High_HMMActual","null","","","","Images/WhiteBeadChoice.png","null"
"image-keyboard-response","322","522378","0.0-4.0-2.100","2","High_HMMActual","null","","","","Images/WhiteBeadChoiceWrong.png","null"
"image-keyboard-response","323","522972","0.0-4.0-0.101","2","High_HMMActual","591.5749999985565","","","","Images/NewTrialBC.png","37"
"image-keyboard-response","324","523381","0.0-4.0-1.101","2","High_HMMActual","null","","","","Images/BlackBeadChoice.png","null"
"image-keyboard-response","325","524089","0.0-4.0-2.101","2","High_HMMActual","null","","","","Images/BlackBeadChoiceCorrect.png","null"
"image-keyboard-response","326","524261","0.0-4.0-0.102","2","High_HMMActual","170.64000000385568","","","","Images/NewTrialBC.png","39"
"image-keyboard-response","327","524670","0.0-4.0-1.102","2","High_HMMActual","null","","","","Images/WhiteBeadChoice.png","null"
"image-keyboard-response","328","525382","0.0-4.0-2.102","2","High_HMMActual","null","","","","Images/WhiteBeadChoiceWrong.png","null"
"image-keyboard-response","329","525768","0.0-4.0-0.103","2","High_HMMActual","384.38000000314787","","","","Images/NewTrialBC.png","37"
"image-keyboard-response","330","526179","0.0-4.0-1.103","2","High_HMMActual","null","","","","Images/BlackBeadChoice.png","null"
"image-keyboard-response","331","526894","0.0-4.0-2.103","2","High_HMMActual","null","","","","Images/BlackBeadChoiceWrong.png","null"
"image-keyboard-response","332","527046","0.0-4.0-0.104","2","High_HMMActual","149.32499999855645","","","","Images/NewTrialWC.png","39"
"image-keyboard-response","333","527461","0.0-4.0-1.104","2","High_HMMActual","null","","","","Images/WhiteBeadChoice.png","null"
"image-keyboard-response","334","528173","0.0-4.0-2.104","2","High_HMMActual","660.4350000051782","","","","Images/WhiteBeadChoiceWrong.png","37"
"image-keyboard-response","335","528713","0.0-4.0-0.105","2","High_HMMActual","538.7300000002142","","","","Images/NewTrialBC.png","37"
"image-keyboard-response","336","529116","0.0-4.0-1.105","2","High_HMMActual","null","","","","Images/BlackBeadChoice.png","null"
"image-keyboard-response","337","529847","0.0-4.0-2.105","2","High_HMMActual","680.5249999960652","","","","Images/BlackBeadChoiceCorrect.png","39"
"image-keyboard-response","338","531039","0.0-4.0-0.106","2","High_HMMActual","1189.1549999926938","","","","Images/NewTrialBC.png","37"
"image-keyboard-response","339","531452","0.0-4.0-1.106","2","High_HMMActual","null","","","","Images/BlackBeadChoice.png","null"
"image-keyboard-response","340","532156","0.0-4.0-2.106","2","High_HMMActual","null","","","","Images/BlackBeadChoiceCorrect.png","null"
"image-keyboard-response","341","533006","0.0-4.0-0.107","2","High_HMMActual","848.2199999998556","","","","Images/NewTrialBC.png","37"
"image-keyboard-response","342","533418","0.0-4.0-1.107","2","High_HMMActual","null","","","","Images/BlackBeadChoice.png","null"
"image-keyboard-response","343","534121","0.0-4.0-2.107","2","High_HMMActual","458.86500000045635","","","","Images/BlackBeadChoiceWrong.png","39"
"image-keyboard-response","344","534669","0.0-4.0-0.108","2","High_HMMActual","547.0550000027288","","","","Images/NewTrialWC.png","39"
"image-keyboard-response","345","535084","0.0-4.0-1.108","2","High_HMMActual","null","","","","Images/WhiteBeadChoice.png","null"
"image-keyboard-response","346","535801","0.0-4.0-2.108","2","High_HMMActual","652.5600000022678","","","","Images/WhiteBeadChoiceWrong.png","37"
"image-keyboard-response","347","536626","0.0-4.0-0.109","2","High_HMMActual","822.3050000014482","","","","Images/NewTrialBC.png","37"
"image-keyboard-response","348","537032","0.0-4.0-1.109","2","High_HMMActual","null","","","","Images/BlackBeadChoice.png","null"
"image-keyboard-response","349","537751","0.0-4.0-2.109","2","High_HMMActual","526.5999999974156","","","","Images/BlackBeadChoiceWrong.png","39"
"image-keyboard-response","350","538902","0.0-4.0-0.110","2","High_HMMActual","1149.330000000191","","","","Images/NewTrialWC.png","39"
"image-keyboard-response","351","539308","0.0-4.0-1.110","2","High_HMMActual","null","","","","Images/WhiteBeadChoice.png","null"
"image-keyboard-response","352","540011","0.0-4.0-2.110","2","High_HMMActual","513.3550000027753","","","","Images/WhiteBeadChoiceWrong.png","37"
"image-keyboard-response","353","541397","0.0-4.0-0.111","2","High_HMMActual","1384.7749999986263","","","","Images/NewTrialBC.png","37"
"image-keyboard-response","354","541816","0.0-4.0-1.111","2","High_HMMActual","null","","","","Images/BlackBeadChoice.png","null"
"image-keyboard-response","355","542525","0.0-4.0-2.111","2","High_HMMActual","null","","","","Images/BlackBeadChoiceWrong.png","null"
"image-keyboard-response","356","542646","0.0-4.0-0.112","2","High_HMMActual","118.47500000300352","","","","Images/NewTrialWC.png","39"
"image-keyboard-response","357","543054","0.0-4.0-1.112","2","High_HMMActual","null","","","","Images/WhiteBeadChoice.png","null"
"image-keyboard-response","358","543766","0.0-4.0-2.112","2","High_HMMActual","null","","","","Images/WhiteBeadChoiceWrong.png","null"
"image-keyboard-response","359","543845","0.0-4.0-0.113","2","High_HMMActual","76.50999999896158","","","","Images/NewTrialBC.png","37"
"image-keyboard-response","360","544249","0.0-4.0-1.113","2","High_HMMActual","null","","","","Images/BlackBeadChoice.png","null"
"image-keyboard-response","361","544958","0.0-4.0-2.113","2","High_HMMActual","null","","","","Images/BlackBeadChoiceWrong.png","null"
"image-keyboard-response","362","545199","0.0-4.0-0.114","2","High_HMMActual","238.85999999765772","","","","Images/NewTrialWC.png","39"
"image-keyboard-response","363","545614","0.0-4.0-1.114","2","High_HMMActual","null","","","","Images/WhiteBeadChoice.png","null"
"image-keyboard-response","364","546329","0.0-4.0-2.114","2","High_HMMActual","null","","","","Images/WhiteBeadChoiceWrong.png","null"
"image-keyboard-response","365","546558","0.0-4.0-0.115","2","High_HMMActual","226.86500000418164","","","","Images/NewTrialBC.png","37"
"image-keyboard-response","366","546960","0.0-4.0-1.115","2","High_HMMActual","null","","","","Images/BlackBeadChoice.png","null"
"image-keyboard-response","367","547676","0.0-4.0-2.115","2","High_HMMActual","null","","","","Images/BlackBeadChoiceWrong.png","null"
"image-keyboard-response","368","547964","0.0-4.0-0.116","2","High_HMMActual","285.7000000004191","","","","Images/NewTrialWC.png","39"
"image-keyboard-response","369","548368","0.0-4.0-1.116","2","High_HMMActual","null","","","","Images/WhiteBeadChoice.png","null"
"image-keyboard-response","370","549088","0.0-4.0-2.116","2","High_HMMActual","null","","","","Images/WhiteBeadChoiceCorrect.png","null"
"image-keyboard-response","371","549859","0.0-4.0-0.117","2","High_HMMActual","769.0849999998463","","","","Images/NewTrialWC.png","37"
"image-keyboard-response","372","550270","0.0-4.0-1.117","2","High_HMMActual","null","","","","Images/BlackBeadChoice.png","null"
"image-keyboard-response","373","550975","0.0-4.0-2.117","2","High_HMMActual","null","","","","Images/BlackBeadChoiceWrong.png","null"
"image-keyboard-response","374","551016","0.0-4.0-0.118","2","High_HMMActual","38.29499999852851","","","","Images/NewTrialWC.png","39"
"image-keyboard-response","375","551425","0.0-4.0-1.118","2","High_HMMActual","null","","","","Images/WhiteBeadChoice.png","null"
"image-keyboard-response","376","552133","0.0-4.0-2.118","2","High_HMMActual","null","","","","Images/WhiteBeadChoiceCorrect.png","null"
"image-keyboard-response","377","552978","0.0-4.0-0.119","2","High_HMMActual","842.7650000012945","","","","Images/NewTrialWC.png","37"
"image-keyboard-response","378","553386","0.0-4.0-1.119","2","High_HMMActual","null","","","","Images/BlackBeadChoice.png","null"
"image-keyboard-response","379","554090","0.0-4.0-2.119","2","High_HMMActual","null","","","","Images/BlackBeadChoiceCorrect.png","null"
"image-keyboard-response","380","556435","0.0-4.0-0.120","2","High_HMMActual","2342.2749999953667","","","","Images/NewTrialBC.png","39"
"image-keyboard-response","381","556855","0.0-4.0-1.120","2","High_HMMActual","null","","","","Images/WhiteBeadChoice.png","null"
"image-keyboard-response","382","557563","0.0-4.0-2.120","2","High_HMMActual","523.7650000053691","","","","Images/WhiteBeadChoiceCorrect.png","39"
"image-keyboard-response","383","558384","0.0-4.0-0.121","2","High_HMMActual","819.1549999974668","","","","Images/NewTrialWC.png","39"
"image-keyboard-response","384","558787","0.0-4.0-1.121","2","High_HMMActual","null","","","","Images/WhiteBeadChoice.png","null"
"image-keyboard-response","385","559505","0.0-4.0-2.121","2","High_HMMActual","339.76999999873806","","","","Images/WhiteBeadChoiceWrong.png","37"
"image-keyboard-response","386","560091","0.0-4.0-0.122","2","High_HMMActual","584.5600000029663","","","","Images/NewTrialBC.png","37"
"image-keyboard-response","387","560508","0.0-4.0-1.122","2","High_HMMActual","null","","","","Images/BlackBeadChoice.png","null"
"image-keyboard-response","388","561213","0.0-4.0-2.122","2","High_HMMActual","null","","","","Images/BlackBeadChoiceWrong.png","null"
"image-keyboard-response","389","561275","0.0-4.0-0.123","2","High_HMMActual","60.43000000505708","","","","Images/NewTrialWC.png","39"
"image-keyboard-response","390","561678","0.0-4.0-1.123","2","High_HMMActual","null","","","","Images/WhiteBeadChoice.png","null"
"image-keyboard-response","391","562398","0.0-4.0-2.123","2","High_HMMActual","653.8550000040559","","","","Images/WhiteBeadChoiceWrong.png","37"
"image-keyboard-response","392","562997","0.0-4.0-0.124","2","High_HMMActual","597.0900000028778","","","","Images/NewTrialBC.png","37"
"image-keyboard-response","393","563412","0.0-4.0-1.124","2","High_HMMActual","null","","","","Images/BlackBeadChoice.png","null"
"image-keyboard-response","394","564118","0.0-4.0-2.124","2","High_HMMActual","464.7949999998091","","","","Images/BlackBeadChoiceWrong.png","39"
"image-keyboard-response","395","564668","0.0-4.0-0.125","2","High_HMMActual","548.6049999962561","","","","Images/NewTrialWC.png","39"
"image-keyboard-response","396","565073","0.0-4.0-1.125","2","High_HMMActual","null","","","","Images/WhiteBeadChoice.png","null"
"image-keyboard-response","397","565792","0.0-4.0-2.125","2","High_HMMActual","632.9450000048382","","","","Images/WhiteBeadChoiceWrong.png","37"
"image-keyboard-response","398","566362","0.0-4.0-0.126","2","High_HMMActual","567.6850000018021","","","","Images/NewTrialBC.png","37"
"image-keyboard-response","399","566766","0.0-4.0-1.126","2","High_HMMActual","null","","","","Images/BlackBeadChoice.png","null"
"image-keyboard-response","400","567469","0.0-4.0-2.126","2","High_HMMActual","531.3749999987194","","","","Images/BlackBeadChoiceWrong.png","39"
"image-keyboard-response","401","568535","0.0-4.0-0.127","2","High_HMMActual","1064.6199999974342","","","","Images/NewTrialWC.png","39"
"image-keyboard-response","402","568945","0.0-4.0-1.127","2","High_HMMActual","null","","","","Images/WhiteBeadChoice.png","null"
"image-keyboard-response","403","569658","0.0-4.0-2.127","2","High_HMMActual","null","","","","Images/WhiteBeadChoiceCorrect.png","null"
"image-keyboard-response","404","570172","0.0-4.0-0.128","2","High_HMMActual","512.4349999969127","","","","Images/NewTrialWC.png","37"
"image-keyboard-response","405","570574","0.0-4.0-1.128","2","High_HMMActual","null","","","","Images/BlackBeadChoice.png","null"
"image-keyboard-response","406","571279","0.0-4.0-2.128","2","High_HMMActual","null","","","","Images/BlackBeadChoiceCorrect.png","null"
"image-keyboard-response","407","572281","0.0-4.0-0.129","2","High_HMMActual","999.5950000011362","","","","Images/NewTrialBC.png","39"
"image-keyboard-response","408","572698","0.0-4.0-1.129","2","High_HMMActual","null","","","","Images/WhiteBeadChoice.png","null"
"image-keyboard-response","409","573407","0.0-4.0-2.129","2","High_HMMActual","619.270000002929","","","","Images/WhiteBeadChoiceWrong.png","37"
"image-keyboard-response","410","574066","0.0-4.0-0.130","2","High_HMMActual","658.5049999994226","","","","Images/NewTrialBC.png","37"
"image-keyboard-response","411","574482","0.0-4.0-1.130","2","High_HMMActual","null","","","","Images/BlackBeadChoice.png","null"
"image-keyboard-response","412","575188","0.0-4.0-2.130","2","High_HMMActual","626.2950000019046","","","","Images/BlackBeadChoiceWrong.png","39"
"image-keyboard-response","413","576113","0.0-4.0-0.131","2","High_HMMActual","922.9449999984354","","","","Images/NewTrialWC.png","39"
"image-keyboard-response","414","576525","0.0-4.0-1.131","2","High_HMMActual","null","","","","Images/WhiteBeadChoice.png","null"
"image-keyboard-response","415","577236","0.0-4.0-2.131","2","High_HMMActual","null","","","","Images/WhiteBeadChoiceWrong.png","null"
"image-keyboard-response","416","577414","0.0-4.0-0.132","2","High_HMMActual","175.96499999496154","","","","Images/NewTrialBC.png","37"
"image-keyboard-response","417","577827","0.0-4.0-1.132","2","High_HMMActual","null","","","","Images/BlackBeadChoice.png","null"
"image-keyboard-response","418","578530","0.0-4.0-2.132","2","High_HMMActual","null","","","","Images/BlackBeadChoiceWrong.png","null"
"image-keyboard-response","419","578774","0.0-4.0-0.133","2","High_HMMActual","241.71999999810942","","","","Images/NewTrialWC.png","39"
"image-keyboard-response","420","579180","0.0-4.0-1.133","2","High_HMMActual","null","","","","Images/WhiteBeadChoice.png","null"
"image-keyboard-response","421","579896","0.0-4.0-2.133","2","High_HMMActual","null","","","","Images/WhiteBeadChoiceWrong.png","null"
"image-keyboard-response","422","580030","0.0-4.0-0.134","2","High_HMMActual","131.19000000006054","","","","Images/NewTrialBC.png","37"
"image-keyboard-response","423","580432","0.0-4.0-1.134","2","High_HMMActual","null","","","","Images/BlackBeadChoice.png","null"
"image-keyboard-response","424","581135","0.0-4.0-2.134","2","High_HMMActual","653.0249999995576","","","","Images/BlackBeadChoiceWrong.png","39"
"image-keyboard-response","425","581939","0.0-4.0-0.135","2","High_HMMActual","801.9349999958649","","","","Images/NewTrialWC.png","39"
"image-keyboard-response","426","582351","0.0-4.0-1.135","2","High_HMMActual","null","","","","Images/WhiteBeadChoice.png","null"
"image-keyboard-response","427","583055","0.0-4.0-2.135","2","High_HMMActual","null","","","","Images/WhiteBeadChoiceWrong.png","null"
"image-keyboard-response","428","583076","0.0-4.0-0.136","2","High_HMMActual","17.614999997080304","","","","Images/NewTrialBC.png","37"
"image-keyboard-response","429","583481","0.0-4.0-1.136","2","High_HMMActual","null","","","","Images/BlackBeadChoice.png","null"
"image-keyboard-response","430","584185","0.0-4.0-2.136","2","High_HMMActual","null","","","","Images/BlackBeadChoiceWrong.png","null"
"image-keyboard-response","431","584306","0.0-4.0-0.137","2","High_HMMActual","119.0950000018347","","","","Images/NewTrialWC.png","39"
"image-keyboard-response","432","584721","0.0-4.0-1.137","2","High_HMMActual","null","","","","Images/WhiteBeadChoice.png","null"
"image-keyboard-response","433","585448","0.0-4.0-2.137","2","High_HMMActual","null","","","","Images/WhiteBeadChoiceCorrect.png","null"
"image-keyboard-response","434","585658","0.0-4.0-0.138","2","High_HMMActual","208.2799999988638","","","","Images/NewTrialWC.png","37"
"image-keyboard-response","435","586066","0.0-4.0-1.138","2","High_HMMActual","null","","","","Images/BlackBeadChoice.png","null"
"image-keyboard-response","436","586782","0.0-4.0-2.138","2","High_HMMActual","577.9550000006566","","","","Images/BlackBeadChoiceWrong.png","39"
"image-keyboard-response","437","587367","0.0-4.0-0.139","2","High_HMMActual","582.4250000005122","","","","Images/NewTrialWC.png","39"
"image-keyboard-response","438","587783","0.0-4.0-1.139","2","High_HMMActual","null","","","","Images/WhiteBeadChoice.png","null"
"image-keyboard-response","439","588488","0.0-4.0-2.139","2","High_HMMActual","607.5399999972433","","","","Images/WhiteBeadChoiceWrong.png","37"
"image-keyboard-response","440","589106","0.0-4.0-0.140","2","High_HMMActual","615.9849999967264","","","","Images/NewTrialBC.png","37"
"image-keyboard-response","441","589517","0.0-4.0-1.140","2","High_HMMActual","null","","","","Images/BlackBeadChoice.png","null"
"image-keyboard-response","442","590219","0.0-4.0-2.140","2","High_HMMActual","null","","","","Images/BlackBeadChoiceWrong.png","null"
"image-keyboard-response","443","590301","0.0-4.0-0.141","2","High_HMMActual","80.7249999998603","","","","Images/NewTrialWC.png","39"
"image-keyboard-response","444","590713","0.0-4.0-1.141","2","High_HMMActual","null","","","","Images/WhiteBeadChoice.png","null"
"image-keyboard-response","445","591419","0.0-4.0-2.141","2","High_HMMActual","null","","","","Images/WhiteBeadChoiceWrong.png","null"
"image-keyboard-response","446","592705","0.0-4.0-0.142","2","High_HMMActual","1284.254999998724","","","","Images/NewTrialBC.png","37"
"image-keyboard-response","447","593114","0.0-4.0-1.142","2","High_HMMActual","null","","","","Images/BlackBeadChoice.png","null"
"image-keyboard-response","448","593833","0.0-4.0-2.142","2","High_HMMActual","626.1149999990594","","","","Images/BlackBeadChoiceWrong.png","39"
"image-keyboard-response","449","594705","0.0-4.0-0.143","2","High_HMMActual","870.7799999974668","","","","Images/NewTrialWC.png","39"
"image-keyboard-response","450","595122","0.0-4.0-1.143","2","High_HMMActual","null","","","","Images/WhiteBeadChoice.png","null"
"image-keyboard-response","451","595826","0.0-4.0-2.143","2","High_HMMActual","455.5049999980256","","","","Images/WhiteBeadChoiceWrong.png","37"
"image-keyboard-response","452","596251","0.0-4.0-0.144","2","High_HMMActual","423.34999999729916","","","","Images/NewTrialBC.png","37"
"image-keyboard-response","453","596660","0.0-4.0-1.144","2","High_HMMActual","null","","","","Images/BlackBeadChoice.png","null"
"image-keyboard-response","454","597374","0.0-4.0-2.144","2","High_HMMActual","null","","","","Images/BlackBeadChoiceWrong.png","null"
"image-keyboard-response","455","597453","0.0-4.0-0.145","2","High_HMMActual","77.04000000376254","","","","Images/NewTrialWC.png","39"
"image-keyboard-response","456","597862","0.0-4.0-1.145","2","High_HMMActual","null","","","","Images/WhiteBeadChoice.png","null"
"image-keyboard-response","457","598567","0.0-4.0-2.145","2","High_HMMActual","null","","","","Images/WhiteBeadChoiceCorrect.png","null"
"image-keyboard-response","458","601335","0.0-4.0-0.146","2","High_HMMActual","2766.299999995623","","","","Images/NewTrialWC.png","39"
"image-keyboard-response","459","601751","0.0-4.0-1.146","2","High_HMMActual","null","","","","Images/WhiteBeadChoice.png","null"
"image-keyboard-response","460","602454","0.0-4.0-2.146","2","High_HMMActual","null","","","","Images/WhiteBeadChoiceCorrect.png","null"
"image-keyboard-response","461","603230","0.0-4.0-0.147","2","High_HMMActual","774.4800000000978","","","","Images/NewTrialWC.png","37"
"image-keyboard-response","462","603636","0.0-4.0-1.147","2","High_HMMActual","null","","","","Images/BlackBeadChoice.png","null"
"image-keyboard-response","463","604348","0.0-4.0-2.147","2","High_HMMActual","null","","","","Images/BlackBeadChoiceWrong.png","null"
"image-keyboard-response","464","604415","0.0-4.0-0.148","2","High_HMMActual","65.29000000585802","","","","Images/NewTrialWC.png","39"
"image-keyboard-response","465","604822","0.0-4.0-1.148","2","High_HMMActual","null","","","","Images/WhiteBeadChoice.png","null"
"image-keyboard-response","466","605531","0.0-4.0-2.148","2","High_HMMActual","null","","","","Images/WhiteBeadChoiceCorrect.png","null"
"image-keyboard-response","467","605983","0.0-4.0-0.149","2","High_HMMActual","449.5099999984959","","","","Images/NewTrialWC.png","37"
"image-keyboard-response","468","606406","0.0-4.0-1.149","2","High_HMMActual","null","","","","Images/BlackBeadChoice.png","null"
"image-keyboard-response","469","607122","0.0-4.0-2.149","2","High_HMMActual","null","","","","Images/BlackBeadChoiceCorrect.png","null"
"image-keyboard-response","470","607434","0.0-4.0-0.150","2","High_HMMActual","309.1950000015786","","","","Images/NewTrialBC.png","39"
"image-keyboard-response","471","607838","0.0-4.0-1.150","2","High_HMMActual","null","","","","Images/WhiteBeadChoice.png","null"
"image-keyboard-response","472","608543","0.0-4.0-2.150","2","High_HMMActual","null","","","","Images/WhiteBeadChoiceCorrect.png","null"
"image-keyboard-response","473","609576","0.0-4.0-0.151","2","High_HMMActual","1030.0649999990128","","","","Images/NewTrialWC.png","39"
"image-keyboard-response","474","609983","0.0-4.0-1.151","2","High_HMMActual","null","","","","Images/WhiteBeadChoice.png","null"
"image-keyboard-response","475","610688","0.0-4.0-2.151","2","High_HMMActual","703.6549999975832","","","","Images/WhiteBeadChoiceWrong.png","37"
"image-keyboard-response","476","611323","0.0-4.0-0.152","2","High_HMMActual","633.0850000012433","","","","Images/NewTrialBC.png","37"
"image-keyboard-response","477","611728","0.0-4.0-1.152","2","High_HMMActual","null","","","","Images/BlackBeadChoice.png","null"
"image-keyboard-response","478","612445","0.0-4.0-2.152","2","High_HMMActual","459.6200000013923","","","","Images/BlackBeadChoiceWrong.png","39"
"image-keyboard-response","479","612705","0.0-4.0-0.153","2","High_HMMActual","257.595000002766","","","","Images/NewTrialWC.png","39"
"image-keyboard-response","480","613123","0.0-4.0-1.153","2","High_HMMActual","null","","","","Images/WhiteBeadChoice.png","null"
"image-keyboard-response","481","613830","0.0-4.0-2.153","2","High_HMMActual","null","","","","Images/WhiteBeadChoiceWrong.png","null"
"image-keyboard-response","482","613921","0.0-4.0-0.154","2","High_HMMActual","88.18500000052154","","","","Images/NewTrialBC.png","37"
"image-keyboard-response","483","614324","0.0-4.0-1.154","2","High_HMMActual","null","","","","Images/BlackBeadChoice.png","null"
"image-keyboard-response","484","615028","0.0-4.0-2.154","2","High_HMMActual","597.8000000031898","","","","Images/BlackBeadChoiceWrong.png","39"
"image-keyboard-response","485","615724","0.0-4.0-0.155","2","High_HMMActual","693.0900000006659","","","","Images/NewTrialWC.png","39"
"image-keyboard-response","486","616141","0.0-4.0-1.155","2","High_HMMActual","null","","","","Images/WhiteBeadChoice.png","null"
"image-keyboard-response","487","616851","0.0-4.0-2.155","2","High_HMMActual","null","","","","Images/WhiteBeadChoiceWrong.png","null"
"image-keyboard-response","488","617036","0.0-4.0-0.156","2","High_HMMActual","182.82000000181142","","","","Images/NewTrialBC.png","37"
"image-keyboard-response","489","617440","0.0-4.0-1.156","2","High_HMMActual","null","","","","Images/BlackBeadChoice.png","null"
"image-keyboard-response","490","618142","0.0-4.0-2.156","2","High_HMMActual","null","","","","Images/BlackBeadChoiceWrong.png","null"
"image-keyboard-response","491","618213","0.0-4.0-0.157","2","High_HMMActual","69.1949999963399","","","","Images/NewTrialWC.png","39"
"image-keyboard-response","492","618626","0.0-4.0-1.157","2","High_HMMActual","null","","","","Images/WhiteBeadChoice.png","null"
"image-keyboard-response","493","619344","0.0-4.0-2.157","2","High_HMMActual","null","","","","Images/WhiteBeadChoiceCorrect.png","null"
"image-keyboard-response","494","619760","0.0-4.0-0.158","2","High_HMMActual","413.71999999682885","","","","Images/NewTrialWC.png","37"
"image-keyboard-response","495","620185","0.0-4.0-1.158","2","High_HMMActual","null","","","","Images/BlackBeadChoice.png","null"
"image-keyboard-response","496","620905","0.0-4.0-2.158","2","High_HMMActual","null","","","","Images/BlackBeadChoiceWrong.png","null"
"image-keyboard-response","497","620925","0.0-4.0-0.159","2","High_HMMActual","17.830000004381873","","","","Images/NewTrialWC.png","39"
"image-keyboard-response","498","621340","0.0-4.0-1.159","2","High_HMMActual","null","","","","Images/WhiteBeadChoice.png","null"
"image-keyboard-response","499","622043","0.0-4.0-2.159","2","High_HMMActual","638.2549999980256","","","","Images/WhiteBeadChoiceWrong.png","37"
"image-keyboard-response","500","622633","0.0-4.0-0.160","2","High_HMMActual","587.8850000008242","","","","Images/NewTrialBC.png","37"
"image-keyboard-response","501","623035","0.0-4.0-1.160","2","High_HMMActual","null","","","","Images/BlackBeadChoice.png","null"
"image-keyboard-response","502","623748","0.0-4.0-2.160","2","High_HMMActual","null","","","","Images/BlackBeadChoiceWrong.png","null"
"image-keyboard-response","503","623848","0.0-4.0-0.161","2","High_HMMActual","97.78499999805354","","","","Images/NewTrialWC.png","39"
"image-keyboard-response","504","624253","0.0-4.0-1.161","2","High_HMMActual","null","","","","Images/WhiteBeadChoice.png","null"
"image-keyboard-response","505","624958","0.0-4.0-2.161","2","High_HMMActual","null","","","","Images/WhiteBeadChoiceWrong.png","null"
"image-keyboard-response","506","624985","0.0-4.0-0.162","2","High_HMMActual","23.240000002318993","","","","Images/NewTrialBC.png","37"
"image-keyboard-response","507","625391","0.0-4.0-1.162","2","High_HMMActual","null","","","","Images/BlackBeadChoice.png","null"
"image-keyboard-response","508","626113","0.0-4.0-2.162","2","High_HMMActual","null","","","","Images/BlackBeadChoiceCorrect.png","null"
"image-keyboard-response","509","626270","0.0-4.0-0.163","2","High_HMMActual","154.45500000356697","","","","Images/NewTrialBC.png","39"
"image-keyboard-response","510","626683","0.0-4.0-1.163","2","High_HMMActual","null","","","","Images/WhiteBeadChoice.png","null"
"image-keyboard-response","511","627391","0.0-4.0-2.163","2","High_HMMActual","null","","","","Images/WhiteBeadChoiceCorrect.png","null"
"image-keyboard-response","512","627936","0.0-4.0-0.164","2","High_HMMActual","543.3850000045495","","","","Images/NewTrialWC.png","39"
"image-keyboard-response","513","628356","0.0-4.0-1.164","2","High_HMMActual","null","","","","Images/WhiteBeadChoice.png","null"
"image-keyboard-response","514","629061","0.0-4.0-2.164","2","High_HMMActual","null","","","","Images/WhiteBeadChoiceCorrect.png","null"
"image-keyboard-response","515","629253","0.0-4.0-0.165","2","High_HMMActual","189.4800000009127","","","","Images/NewTrialWC.png","37"
"image-keyboard-response","516","629662","0.0-4.0-1.165","2","High_HMMActual","null","","","","Images/BlackBeadChoice.png","null"
"image-keyboard-response","517","630378","0.0-4.0-2.165","2","High_HMMActual","null","","","","Images/BlackBeadChoiceWrong.png","null"
"image-keyboard-response","518","630534","0.0-4.0-0.166","2","High_HMMActual","153.6049999995157","","","","Images/NewTrialWC.png","39"
"image-keyboard-response","519","630939","0.0-4.0-1.166","2","High_HMMActual","null","","","","Images/WhiteBeadChoice.png","null"
"image-keyboard-response","520","631653","0.0-4.0-2.166","2","High_HMMActual","null","","","","Images/WhiteBeadChoiceCorrect.png","null"
"image-keyboard-response","521","632169","0.0-4.0-0.167","2","High_HMMActual","514.7050000014715","","","","Images/NewTrialWC.png","37"
"image-keyboard-response","522","632575","0.0-4.0-1.167","2","High_HMMActual","null","","","","Images/BlackBeadChoice.png","null"
"image-keyboard-response","523","633281","0.0-4.0-2.167","2","High_HMMActual","null","","","","Images/BlackBeadChoiceCorrect.png","null"
"image-keyboard-response","524","633847","0.0-4.0-0.168","2","High_HMMActual","564.0049999929033","","","","Images/NewTrialBC.png","39"
"image-keyboard-response","525","634266","0.0-4.0-1.168","2","High_HMMActual","null","","","","Images/WhiteBeadChoice.png","null"
"image-keyboard-response","526","634969","0.0-4.0-2.168","2","High_HMMActual","null","","","","Images/WhiteBeadChoiceCorrect.png","null"
"image-keyboard-response","527","634983","0.0-4.0-0.169","2","High_HMMActual","11.395000001299195","","","","Images/NewTrialWC.png","39"
"image-keyboard-response","528","635386","0.0-4.0-1.169","2","High_HMMActual","null","","","","Images/WhiteBeadChoice.png","null"
"image-keyboard-response","529","636115","0.0-4.0-2.169","2","High_HMMActual","455.83999999507796","","","","Images/WhiteBeadChoiceWrong.png","37"
"image-keyboard-response","530","636982","0.0-4.0-0.170","2","High_HMMActual","865.6000000046333","","","","Images/NewTrialBC.png","37"
"image-keyboard-response","531","637398","0.0-4.0-1.170","2","High_HMMActual","null","","","","Images/BlackBeadChoice.png","null"
"image-keyboard-response","532","638105","0.0-4.0-2.170","2","High_HMMActual","null","","","","Images/BlackBeadChoiceWrong.png","null"
"image-keyboard-response","533","638317","0.0-4.0-0.171","2","High_HMMActual","210.36499999905936","","","","Images/NewTrialWC.png","39"
"image-keyboard-response","534","638733","0.0-4.0-1.171","2","High_HMMActual","null","","","","Images/WhiteBeadChoice.png","null"
"image-keyboard-response","535","639450","0.0-4.0-2.171","2","High_HMMActual","617.239999999525","","","","Images/WhiteBeadChoiceWrong.png","37"
"image-keyboard-response","536","639926","0.0-4.0-0.172","2","High_HMMActual","474.6099999974249","","","","Images/NewTrialBC.png","37"
"image-keyboard-response","537","640336","0.0-4.0-1.172","2","High_HMMActual","null","","","","Images/BlackBeadChoice.png","null"
"image-keyboard-response","538","641065","0.0-4.0-2.172","2","High_HMMActual","null","","","","Images/BlackBeadChoiceCorrect.png","null"
"image-keyboard-response","539","641354","0.0-4.0-0.173","2","High_HMMActual","287.445000001695","","","","Images/NewTrialBC.png","39"
"image-keyboard-response","540","641772","0.0-4.0-1.173","2","High_HMMActual","null","","","","Images/WhiteBeadChoice.png","null"
"image-keyboard-response","541","642476","0.0-4.0-2.173","2","High_HMMActual","null","","","","Images/WhiteBeadChoiceWrong.png","null"
"image-keyboard-response","542","642504","0.0-4.0-0.174","2","High_HMMActual","25.925000001792796","","","","Images/NewTrialBC.png","37"
"image-keyboard-response","543","642907","0.0-4.0-1.174","2","High_HMMActual","null","","","","Images/BlackBeadChoice.png","null"
"image-keyboard-response","544","643609","0.0-4.0-2.174","2","High_HMMActual","655.1699999981793","","","","Images/BlackBeadChoiceWrong.png","39"
"image-keyboard-response","545","644076","0.0-4.0-0.175","2","High_HMMActual","464.64999999443535","","","","Images/NewTrialWC.png","39"
"image-keyboard-response","546","644485","0.0-4.0-1.175","2","High_HMMActual","null","","","","Images/WhiteBeadChoice.png","null"
"image-keyboard-response","547","645206","0.0-4.0-2.175","2","High_HMMActual","397.064999997383","","","","Images/WhiteBeadChoiceWrong.png","37"
"image-keyboard-response","548","645676","0.0-4.0-0.176","2","High_HMMActual","467.35500000067987","","","","Images/NewTrialBC.png","37"
"image-keyboard-response","549","646084","0.0-4.0-1.176","2","High_HMMActual","null","","","","Images/BlackBeadChoice.png","null"
"image-keyboard-response","550","646801","0.0-4.0-2.176","2","High_HMMActual","591.1799999957439","","","","Images/BlackBeadChoiceWrong.png","39"
"image-keyboard-response","551","647540","0.0-4.0-0.177","2","High_HMMActual","737.3399999997346","","","","Images/NewTrialWC.png","39"
"image-keyboard-response","552","647947","0.0-4.0-1.177","2","High_HMMActual","null","","","","Images/WhiteBeadChoice.png","null"
"image-keyboard-response","553","648654","0.0-4.0-2.177","2","High_HMMActual","null","","","","Images/WhiteBeadChoiceWrong.png","null"
"image-keyboard-response","554","648883","0.0-4.0-0.178","2","High_HMMActual","227.16999999829568","","","","Images/NewTrialBC.png","37"
"image-keyboard-response","555","649291","0.0-4.0-1.178","2","High_HMMActual","null","","","","Images/BlackBeadChoice.png","null"
"image-keyboard-response","556","650001","0.0-4.0-2.178","2","High_HMMActual","null","","","","Images/BlackBeadChoiceCorrect.png","null"
"image-keyboard-response","557","652072","0.0-4.0-0.179","2","High_HMMActual","2069.370000004652","","","","Images/NewTrialBC.png","39"
"image-keyboard-response","558","652477","0.0-4.0-1.179","2","High_HMMActual","null","","","","Images/WhiteBeadChoice.png","null"
"image-keyboard-response","559","653189","0.0-4.0-2.179","2","High_HMMActual","null","","","","Images/WhiteBeadChoiceWrong.png","null"
"image-keyboard-response","560","653199","0.0-4.0-0.180","2","High_HMMActual","7.615000002318993","","","","Images/NewTrialBC.png","37"
"image-keyboard-response","561","653611","0.0-4.0-1.180","2","High_HMMActual","null","","","","Images/BlackBeadChoice.png","null"
"image-keyboard-response","562","654329","0.0-4.0-2.180","2","High_HMMActual","null","","","","Images/BlackBeadChoiceWrong.png","null"
"image-keyboard-response","563","654548","0.0-4.0-0.181","2","High_HMMActual","217.36999999848194","","","","Images/NewTrialWC.png","39"
"image-keyboard-response","564","654955","0.0-4.0-1.181","2","High_HMMActual","null","","","","Images/WhiteBeadChoice.png","null"
"image-keyboard-response","565","655667","0.0-4.0-2.181","2","High_HMMActual","null","","","","Images/WhiteBeadChoiceWrong.png","null"
"image-keyboard-response","566","655717","0.0-4.0-0.182","2","High_HMMActual","48.275000000954606","","","","Images/NewTrialBC.png","37"
"image-keyboard-response","567","656127","0.0-4.0-1.182","2","High_HMMActual","null","","","","Images/BlackBeadChoice.png","null"
"image-keyboard-response","568","656840","0.0-4.0-2.182","2","High_HMMActual","711.1750000040047","","","","Images/BlackBeadChoiceWrong.png","39"
"image-keyboard-response","569","657830","0.0-4.0-0.183","2","High_HMMActual","988.2149999976391","","","","Images/NewTrialWC.png","39"
"image-keyboard-response","570","658240","0.0-4.0-1.183","2","High_HMMActual","null","","","","Images/WhiteBeadChoice.png","null"
"image-keyboard-response","571","658955","0.0-4.0-2.183","2","High_HMMActual","null","","","","Images/WhiteBeadChoiceWrong.png","null"
"image-keyboard-response","572","659156","0.0-4.0-0.184","2","High_HMMActual","199.18999999936204","","","","Images/NewTrialBC.png","37"
"image-keyboard-response","573","659572","0.0-4.0-1.184","2","High_HMMActual","null","","","","Images/BlackBeadChoice.png","null"
"image-keyboard-response","574","660287","0.0-4.0-2.184","2","High_HMMActual","null","","","","Images/BlackBeadChoiceWrong.png","null"
"image-keyboard-response","575","660586","0.0-4.0-0.185","2","High_HMMActual","296.97500000474975","","","","Images/NewTrialWC.png","39"
"image-keyboard-response","576","661002","0.0-4.0-1.185","2","High_HMMActual","null","","","","Images/WhiteBeadChoice.png","null"
"image-keyboard-response","577","661724","0.0-4.0-2.185","2","High_HMMActual","null","","","","Images/WhiteBeadChoiceWrong.png","null"
"image-keyboard-response","578","661939","0.0-4.0-0.186","2","High_HMMActual","213.24499999906402","","","","Images/NewTrialBC.png","37"
"image-keyboard-response","579","662350","0.0-4.0-1.186","2","High_HMMActual","null","","","","Images/BlackBeadChoice.png","null"
"image-keyboard-response","580","663055","0.0-4.0-2.186","2","High_HMMActual","null","","","","Images/BlackBeadChoiceCorrect.png","null"
"image-keyboard-response","581","663169","0.0-4.0-0.187","2","High_HMMActual","112.24999999825377","","","","Images/NewTrialBC.png","39"
"image-keyboard-response","582","663577","0.0-4.0-1.187","2","High_HMMActual","null","","","","Images/WhiteBeadChoice.png","null"
"image-keyboard-response","583","664294","0.0-4.0-2.187","2","High_HMMActual","null","","","","Images/WhiteBeadChoiceWrong.png","null"
"image-keyboard-response","584","664409","0.0-4.0-0.188","2","High_HMMActual","112.31499999854714","","","","Images/NewTrialBC.png","37"
"image-keyboard-response","585","664815","0.0-4.0-1.188","2","High_HMMActual","null","","","","Images/BlackBeadChoice.png","null"
"image-keyboard-response","586","665525","0.0-4.0-2.188","2","High_HMMActual","null","","","","Images/BlackBeadChoiceWrong.png","null"
"image-keyboard-response","587","665703","0.0-4.0-0.189","2","High_HMMActual","175.66500000248197","","","","Images/NewTrialWC.png","39"
"image-keyboard-response","588","666107","0.0-4.0-1.189","2","High_HMMActual","null","","","","Images/WhiteBeadChoice.png","null"
"image-keyboard-response","589","666819","0.0-4.0-2.189","2","High_HMMActual","null","","","","Images/WhiteBeadChoiceWrong.png","null"
"image-keyboard-response","590","667044","0.0-4.0-0.190","2","High_HMMActual","222.88999999722","","","","Images/NewTrialBC.png","37"
"image-keyboard-response","591","667448","0.0-4.0-1.190","2","High_HMMActual","null","","","","Images/BlackBeadChoice.png","null"
"image-keyboard-response","592","668152","0.0-4.0-2.190","2","High_HMMActual","null","","","","Images/BlackBeadChoiceCorrect.png","null"
"image-keyboard-response","593","668736","0.0-4.0-0.191","2","High_HMMActual","582.1250000008149","","","","Images/NewTrialBC.png","39"
"image-keyboard-response","594","669152","0.0-4.0-1.191","2","High_HMMActual","null","","","","Images/WhiteBeadChoice.png","null"
"image-keyboard-response","595","669869","0.0-4.0-2.191","2","High_HMMActual","null","","","","Images/WhiteBeadChoiceCorrect.png","null"
"image-keyboard-response","596","670167","0.0-4.0-0.192","2","High_HMMActual","295.67999999562744","","","","Images/NewTrialWC.png","39"
"image-keyboard-response","597","670575","0.0-4.0-1.192","2","High_HMMActual","null","","","","Images/WhiteBeadChoice.png","null"
"image-keyboard-response","598","671281","0.0-4.0-2.192","2","High_HMMActual","null","","","","Images/WhiteBeadChoiceCorrect.png","null"
"image-keyboard-response","599","671663","0.0-4.0-0.193","2","High_HMMActual","379.5650000028545","","","","Images/NewTrialWC.png","37"
"image-keyboard-response","600","672084","0.0-4.0-1.193","2","High_HMMActual","null","","","","Images/BlackBeadChoice.png","null"
"image-keyboard-response","601","672799","0.0-4.0-2.193","2","High_HMMActual","null","","","","Images/BlackBeadChoiceCorrect.png","null"
"image-keyboard-response","602","672886","0.0-4.0-0.194","2","High_HMMActual","84.76500000688247","","","","Images/NewTrialBC.png","39"
"image-keyboard-response","603","673288","0.0-4.0-1.194","2","High_HMMActual","null","","","","Images/WhiteBeadChoice.png","null"
"image-keyboard-response","604","673992","0.0-4.0-2.194","2","High_HMMActual","648.4150000032969","","","","Images/WhiteBeadChoiceCorrect.png","39"
"image-keyboard-response","605","674886","0.0-4.0-0.195","2","High_HMMActual","892.3950000025798","","","","Images/NewTrialWC.png","39"
"image-keyboard-response","606","675302","0.0-4.0-1.195","2","High_HMMActual","null","","","","Images/WhiteBeadChoice.png","null"
"image-keyboard-response","607","676005","0.0-4.0-2.195","2","High_HMMActual","689.9149999953806","","","","Images/WhiteBeadChoiceWrong.png","37"
"image-keyboard-response","608","676555","0.0-4.0-0.196","2","High_HMMActual","548.9200000010896","","","","Images/NewTrialBC.png","37"
"image-keyboard-response","609","676959","0.0-4.0-1.196","2","High_HMMActual","null","","","","Images/BlackBeadChoice.png","null"
"image-keyboard-response","610","677668","0.0-4.0-2.196","2","High_HMMActual","null","","","","Images/BlackBeadChoiceCorrect.png","null"
"image-keyboard-response","611","678238","0.0-4.0-0.197","2","High_HMMActual","568.0749999956461","","","","Images/NewTrialBC.png","39"
"image-keyboard-response","612","678640","0.0-4.0-1.197","2","High_HMMActual","null","","","","Images/WhiteBeadChoice.png","null"
"image-keyboard-response","613","679357","0.0-4.0-2.197","2","High_HMMActual","null","","","","Images/WhiteBeadChoiceCorrect.png","null"
"image-keyboard-response","614","679952","0.0-4.0-0.198","2","High_HMMActual","593.6900000014575","","","","Images/NewTrialWC.png","37"
"image-keyboard-response","615","680364","0.0-4.0-1.198","2","High_HMMActual","null","","","","Images/BlackBeadChoice.png","null"
"image-keyboard-response","616","681071","0.0-4.0-2.198","2","High_HMMActual","null","","","","Images/BlackBeadChoiceWrong.png","null"
"image-keyboard-response","617","681295","0.0-4.0-0.199","2","High_HMMActual","222.52999999909662","","","","Images/NewTrialWC.png","39"
"image-keyboard-response","618","681709","0.0-4.0-1.199","2","High_HMMActual","null","","","","Images/WhiteBeadChoice.png","null"
"image-keyboard-response","619","682424","0.0-4.0-2.199","2","High_HMMActual","null","","","","Images/WhiteBeadChoiceWrong.png","null"
"image-keyboard-response","620","682432","0.0-4.0-0.200","2","High_HMMActual","5.514999997103587","","","","Images/NewTrialBC.png","37"
"image-keyboard-response","621","682840","0.0-4.0-1.200","2","High_HMMActual","null","","","","Images/BlackBeadChoice.png","null"
"image-keyboard-response","622","683548","0.0-4.0-2.200","2","High_HMMActual","null","","","","Images/BlackBeadChoiceWrong.png","null"
"image-keyboard-response","623","683630","0.0-4.0-0.201","2","High_HMMActual","80.74499999929685","","","","Images/NewTrialWC.png","39"
"image-keyboard-response","624","684047","0.0-4.0-1.201","2","High_HMMActual","null","","","","Images/WhiteBeadChoice.png","null"
"image-keyboard-response","625","684753","0.0-4.0-2.201","2","High_HMMActual","600.0750000021653","","","","Images/WhiteBeadChoiceWrong.png","37"
"image-keyboard-response","626","685502","0.0-4.0-0.202","2","High_HMMActual","747.0150000008289","","","","Images/NewTrialBC.png","37"
"image-keyboard-response","627","685904","0.0-4.0-1.202","2","High_HMMActual","null","","","","Images/BlackBeadChoice.png","null"
"image-keyboard-response","628","686622","0.0-4.0-2.202","2","High_HMMActual","null","","","","Images/BlackBeadChoiceCorrect.png","null"
"image-keyboard-response","629","687068","0.0-4.0-0.203","2","High_HMMActual","444.3600000012666","","","","Images/NewTrialBC.png","39"
"image-keyboard-response","630","687474","0.0-4.0-1.203","2","High_HMMActual","null","","","","Images/WhiteBeadChoice.png","null"
"image-keyboard-response","631","688184","0.0-4.0-2.203","2","High_HMMActual","null","","","","Images/WhiteBeadChoiceCorrect.png","null"
"image-keyboard-response","632","688424","0.0-4.0-0.204","2","High_HMMActual","237.47999999613967","","","","Images/NewTrialWC.png","39"
"image-keyboard-response","633","688841","0.0-4.0-1.204","2","High_HMMActual","null","","","","Images/WhiteBeadChoice.png","null"
"image-keyboard-response","634","689544","0.0-4.0-2.204","2","High_HMMActual","605.2399999970803","","","","Images/WhiteBeadChoiceWrong.png","37"
"image-keyboard-response","635","690312","0.0-4.0-0.205","2","High_HMMActual","765.8650000012713","","","","Images/NewTrialBC.png","37"
"image-keyboard-response","636","690718","0.0-4.0-1.205","2","High_HMMActual","null","","","","Images/BlackBeadChoice.png","null"
"image-keyboard-response","637","691441","0.0-4.0-2.205","2","High_HMMActual","495.8649999970803","","","","Images/BlackBeadChoiceWrong.png","39"
"image-keyboard-response","638","691841","0.0-4.0-0.206","2","High_HMMActual","397.5700000009965","","","","Images/NewTrialWC.png","39"
"image-keyboard-response","639","692243","0.0-4.0-1.206","2","High_HMMActual","null","","","","Images/WhiteBeadChoice.png","null"
"image-keyboard-response","640","692948","0.0-4.0-2.206","2","High_HMMActual","null","","","","Images/WhiteBeadChoiceWrong.png","null"
"image-keyboard-response","641","693010","0.0-4.0-0.207","2","High_HMMActual","60.109999998589046","","","","Images/NewTrialBC.png","37"
"image-keyboard-response","642","693427","0.0-4.0-1.207","2","High_HMMActual","null","","","","Images/BlackBeadChoice.png","null"
"image-keyboard-response","643","694131","0.0-4.0-2.207","2","High_HMMActual","null","","","","Images/BlackBeadChoiceCorrect.png","null"
"image-keyboard-response","644","694690","0.0-4.0-0.208","2","High_HMMActual","557.8850000019884","","","","Images/NewTrialBC.png","39"
"image-keyboard-response","645","695100","0.0-4.0-1.208","2","High_HMMActual","null","","","","Images/WhiteBeadChoice.png","null"
"image-keyboard-response","646","695818","0.0-4.0-2.208","2","High_HMMActual","null","","","","Images/WhiteBeadChoiceWrong.png","null"
"image-keyboard-response","647","696068","0.0-4.0-0.209","2","High_HMMActual","247.81999999692198","","","","Images/NewTrialBC.png","37"
"image-keyboard-response","648","696472","0.0-4.0-1.209","2","High_HMMActual","null","","","","Images/BlackBeadChoice.png","null"
"image-keyboard-response","649","697174","0.0-4.0-2.209","2","High_HMMActual","645.0750000003027","","","","Images/BlackBeadChoiceWrong.png","39"
"image-keyboard-response","650","697897","0.0-4.0-0.210","2","High_HMMActual","719.9899999977788","","","","Images/NewTrialWC.png","39"
"image-keyboard-response","651","698311","0.0-4.0-1.210","2","High_HMMActual","null","","","","Images/WhiteBeadChoice.png","null"
"image-keyboard-response","652","699033","0.0-4.0-2.210","2","High_HMMActual","522.6149999944028","","","","Images/WhiteBeadChoiceWrong.png","37"
"image-keyboard-response","653","700230","0.0-4.0-0.211","2","High_HMMActual","1194.550000000163","","","","Images/NewTrialBC.png","37"
"image-keyboard-response","654","700638","0.0-4.0-1.211","2","High_HMMActual","null","","","","Images/BlackBeadChoice.png","null"
"image-keyboard-response","655","701343","0.0-4.0-2.211","2","High_HMMActual","null","","","","Images/BlackBeadChoiceWrong.png","null"
"image-keyboard-response","656","701579","0.0-4.0-0.212","2","High_HMMActual","233.8099999979604","","","","Images/NewTrialWC.png","39"
"image-keyboard-response","657","701986","0.0-4.0-1.212","2","High_HMMActual","null","","","","Images/WhiteBeadChoice.png","null"
"image-keyboard-response","658","702692","0.0-4.0-2.212","2","High_HMMActual","null","","","","Images/WhiteBeadChoiceCorrect.png","null"
"image-keyboard-response","659","707862","0.0-4.0-0.213","2","High_HMMActual","5168.039999996894","","","","Images/NewTrialWC.png","39"
"image-keyboard-response","660","708270","0.0-4.0-1.213","2","High_HMMActual","null","","","","Images/WhiteBeadChoice.png","null"
"image-keyboard-response","661","708977","0.0-4.0-2.213","2","High_HMMActual","null","","","","Images/WhiteBeadChoiceWrong.png","null"
"image-keyboard-response","662","709180","0.0-4.0-0.214","2","High_HMMActual","202.31500000227243","","","","Images/NewTrialBC.png","37"
"image-keyboard-response","663","709595","0.0-4.0-1.214","2","High_HMMActual","null","","","","Images/BlackBeadChoice.png","null"
"image-keyboard-response","664","710301","0.0-4.0-2.214","2","High_HMMActual","null","","","","Images/BlackBeadChoiceCorrect.png","null"
"image-keyboard-response","665","710635","0.0-4.0-0.215","2","High_HMMActual","330.56999999820255","","","","Images/NewTrialBC.png","39"
"image-keyboard-response","666","711049","0.0-4.0-1.215","2","High_HMMActual","null","","","","Images/WhiteBeadChoice.png","null"
"image-keyboard-response","667","711759","0.0-4.0-2.215","2","High_HMMActual","null","","","","Images/WhiteBeadChoiceCorrect.png","null"
"image-keyboard-response","668","712067","0.0-4.0-0.216","2","High_HMMActual","305.8549999987008","","","","Images/NewTrialWC.png","37"
"image-keyboard-response","669","712483","0.0-4.0-1.216","2","High_HMMActual","null","","","","Images/BlackBeadChoice.png","null"
"image-keyboard-response","670","713195","0.0-4.0-2.216","2","High_HMMActual","null","","","","Images/BlackBeadChoiceCorrect.png","null"
"image-keyboard-response","671","713409","0.0-4.0-0.217","2","High_HMMActual","212.1950000000652","","","","Images/NewTrialBC.png","39"
"image-keyboard-response","672","713827","0.0-4.0-1.217","2","High_HMMActual","null","","","","Images/WhiteBeadChoice.png","null"
"image-keyboard-response","673","714533","0.0-4.0-2.217","2","High_HMMActual","null","","","","Images/WhiteBeadChoiceCorrect.png","null"
"image-keyboard-response","674","714720","0.0-4.0-0.218","2","High_HMMActual","185.36999999918044","","","","Images/NewTrialWC.png","39"
"image-keyboard-response","675","715133","0.0-4.0-1.218","2","High_HMMActual","null","","","","Images/WhiteBeadChoice.png","null"
"image-keyboard-response","676","715851","0.0-4.0-2.218","2","High_HMMActual","null","","","","Images/WhiteBeadChoiceWrong.png","null"
"image-keyboard-response","677","715912","0.0-4.0-0.219","2","High_HMMActual","59.2499999984866","","","","Images/NewTrialBC.png","37"
"image-keyboard-response","678","716316","0.0-4.0-1.219","2","High_HMMActual","null","","","","Images/BlackBeadChoice.png","null"
"image-keyboard-response","679","717023","0.0-4.0-2.219","2","High_HMMActual","null","","","","Images/BlackBeadChoiceWrong.png","null"
"image-keyboard-response","680","717186","0.0-4.0-0.220","2","High_HMMActual","160.6549999996787","","","","Images/NewTrialWC.png","39"
"image-keyboard-response","681","717589","0.0-4.0-1.220","2","High_HMMActual","null","","","","Images/WhiteBeadChoice.png","null"
"image-keyboard-response","682","718294","0.0-4.0-2.220","2","High_HMMActual","null","","","","Images/WhiteBeadChoiceWrong.png","null"
"image-keyboard-response","683","718338","0.0-4.0-0.221","2","High_HMMActual","41.54500000004191","","","","Images/NewTrialBC.png","37"
"image-keyboard-response","684","718754","0.0-4.0-1.221","2","High_HMMActual","null","","","","Images/BlackBeadChoice.png","null"
"image-keyboard-response","685","719459","0.0-4.0-2.221","2","High_HMMActual","697.599999999511","","","","Images/BlackBeadChoiceWrong.png","39"
"image-keyboard-response","686","720025","0.0-4.0-0.222","2","High_HMMActual","563.414999996894","","","","Images/NewTrialWC.png","39"
"image-keyboard-response","687","720437","0.0-4.0-1.222","2","High_HMMActual","null","","","","Images/WhiteBeadChoice.png","null"
"image-keyboard-response","688","721143","0.0-4.0-2.222","2","High_HMMActual","556.7899999951478","","","","Images/WhiteBeadChoiceWrong.png","37"
"image-keyboard-response","689","721586","0.0-4.0-0.223","2","High_HMMActual","440.6250000029104","","","","Images/NewTrialBC.png","37"
"image-keyboard-response","690","721992","0.0-4.0-1.223","2","High_HMMActual","null","","","","Images/BlackBeadChoice.png","null"
"image-keyboard-response","691","722705","0.0-4.0-2.223","2","High_HMMActual","null","","","","Images/BlackBeadChoiceWrong.png","null"
"image-keyboard-response","692","722882","0.0-4.0-0.224","2","High_HMMActual","174.6549999952549","","","","Images/NewTrialWC.png","39"
"image-keyboard-response","693","723291","0.0-4.0-1.224","2","High_HMMActual","null","","","","Images/WhiteBeadChoice.png","null"
"image-keyboard-response","694","724010","0.0-4.0-2.224","2","High_HMMActual","null","","","","Images/WhiteBeadChoiceWrong.png","null"
"image-keyboard-response","695","724266","0.0-4.0-0.225","2","High_HMMActual","253.57500000239816","","","","Images/NewTrialBC.png","37"
"image-keyboard-response","696","724669","0.0-4.0-1.225","2","High_HMMActual","null","","","","Images/BlackBeadChoice.png","null"
"image-keyboard-response","697","725382","0.0-4.0-2.225","2","High_HMMActual","null","","","","Images/BlackBeadChoiceCorrect.png","null"
"image-keyboard-response","698","725706","0.0-4.0-0.226","2","High_HMMActual","321.6150000008056","","","","Images/NewTrialBC.png","39"
"image-keyboard-response","699","726121","0.0-4.0-1.226","2","High_HMMActual","null","","","","Images/WhiteBeadChoice.png","null"
"image-keyboard-response","700","726825","0.0-4.0-2.226","2","High_HMMActual","null","","","","Images/WhiteBeadChoiceCorrect.png","null"
"image-keyboard-response","701","727377","0.0-4.0-0.227","2","High_HMMActual","549.8800000059418","","","","Images/NewTrialWC.png","37"
"image-keyboard-response","702","727785","0.0-4.0-1.227","2","High_HMMActual","null","","","","Images/BlackBeadChoice.png","null"
"image-keyboard-response","703","728498","0.0-4.0-2.227","2","High_HMMActual","null","","","","Images/BlackBeadChoiceWrong.png","null"
"image-keyboard-response","704","728747","0.0-4.0-0.228","2","High_HMMActual","246.34499999962281","","","","Images/NewTrialWC.png","39"
"image-keyboard-response","705","729152","0.0-4.0-1.228","2","High_HMMActual","null","","","","Images/WhiteBeadChoice.png","null"
"image-keyboard-response","706","729874","0.0-4.0-2.228","2","High_HMMActual","null","","","","Images/WhiteBeadChoiceCorrect.png","null"
"image-keyboard-response","707","730221","0.0-4.0-0.229","2","High_HMMActual","345.4949999941746","","","","Images/NewTrialWC.png","37"
"image-keyboard-response","708","730639","0.0-4.0-1.229","2","High_HMMActual","null","","","","Images/BlackBeadChoice.png","null"
"image-keyboard-response","709","731363","0.0-4.0-2.229","2","High_HMMActual","null","","","","Images/BlackBeadChoiceWrong.png","null"
"image-keyboard-response","710","731504","0.0-4.0-0.230","2","High_HMMActual","138.9599999965867","","","","Images/NewTrialWC.png","39"
"image-keyboard-response","711","731911","0.0-4.0-1.230","2","High_HMMActual","null","","","","Images/WhiteBeadChoice.png","null"
"image-keyboard-response","712","732622","0.0-4.0-2.230","2","High_HMMActual","null","","","","Images/WhiteBeadChoiceCorrect.png","null"
"image-keyboard-response","713","733173","0.0-4.0-0.231","2","High_HMMActual","548.5049999988405","","","","Images/NewTrialWC.png","37"
"image-keyboard-response","714","733581","0.0-4.0-1.231","2","High_HMMActual","null","","","","Images/BlackBeadChoice.png","null"
"image-keyboard-response","715","734288","0.0-4.0-2.231","2","High_HMMActual","null","","","","Images/BlackBeadChoiceWrong.png","null"
"image-keyboard-response","716","734521","0.0-4.0-0.232","2","High_HMMActual","230.78499999968335","","","","Images/NewTrialWC.png","39"
