"trial_type","trial_index","time_elapsed","internal_node_id","Script_Picker","Block_Type","rt","url","responses","question_order","stimulus","key_press"
"pavlovia","0","6","0.0-0.0","17","High_HMMActual","","","","","",""
"external-html","1","67998","0.0-1.0-0.0","17","High_HMMActual","67640","consent.html","","","",""
"survey-multi-choice","2","75315","0.0-1.0-1.0","17","High_HMMActual","7312","","{""Q0"":""Male"",""Q1"":""White""}","[0,1]","",""
"survey-text","3","78689","0.0-1.0-2.0","17","High_HMMActual","3369","","{""Q0"":""45""}","","",""
"survey-text","4","81708","0.0-1.0-3.0","17","High_HMMActual","2905","","{""Q0"":""5cf1824f1ae74d00015fbd39""}","","",""
"html-keyboard-response","5","98008","0.0-2.0-0.0","17","High_HMMActual","16186","","","","<div class=""container"" style=""height:800px;width:800px;display:flex;flex-direction:column;justify-content:center;align-items:center;text-align:center;font-weight:normal;font-family:Arial;font-size:20px""><p>In this task you will see black or white beads being pulled from jars. <br><br>On each trial, a bead will be pulled from one of two jars. Once you see this bead, your goal is to predict the color of NEXT bead that will be pulled. <br> <br>Every time you correctly guess the color of the NEXT bead, you will get a point. <br><br>Press the SPACEBAR to continue.</p><div>","32"
"html-keyboard-response","6","112644","0.0-2.0-1.0","17","High_HMMActual","14635","","","","<div class=""container"" style=""height:800px;width:800px;display:flex;flex-direction:column;justify-content:center;align-items:center;text-align:center;font-weight:normal;font-family:Arial;font-size:20px""><p>Jars are filled with 80% white or black beads and 20% of the opposite color mixed in.<br><br>Press the SPACEBAR to continue. </p><div>","32"
"image-keyboard-response","7","120865","0.0-2.0-2.0","17","High_HMMActual","8218","","","","resources/WhiteJar_HMM.png","32"
"image-keyboard-response","8","123818","0.0-2.0-3.0","17","High_HMMActual","2951","","","","resources/BlackJar_HMM.png","32"
"html-keyboard-response","9","128821","0.0-2.0-4.0","17","High_HMMActual","5002","","","","<div class=""container"" style=""height:800px;width:800px;display:flex;flex-direction:column;justify-content:center;align-items:center;text-align:center;font-weight:normal;font-family:Arial;font-size:20px""><p>There will be two blocks of trials. Each block will contain 500 trials. <br><br>Here are examples of what you will see on each trial.<br><br>Press the SPACEBAR to continue. </p><div>","32"
"image-keyboard-response","10","134644","0.0-2.0-5.0","17","High_HMMActual","5821","","","","Images/NoChoice.png","32"
"html-keyboard-response","11","162393","0.0-2.0-6.0","17","High_HMMActual","27747","","","","<div class=""container"" style=""height:800px;width:800px;display:flex;flex-direction:column;justify-content:center;align-items:center;text-align:center;font-weight:normal;font-family:Arial;font-size:20px""><p> The jar the beads are pulled from is NOT choosen at random on each trial.<br><br>After each prediction, there will be a chance that the jars will switch, and that the next bead will be pulled from the opposite jar as the previous trial.<br><br>In each block, the chance that a jar will switch will either be LOW (the jars will not switch very often), or HIGH (the jars will switch almost all the time).<br><br>At the start of each block, you will be told the probability that the jars will switch on each trial. This switch probability will stay constant throughout the block.<br><br>We will now show you some examples of beads being drawn from jars. The bead will appear in the middle of the screen, and the jar the bead was pulled from will be indicated with a black rectangle.<br><br>Press the SPACEBAR to continue. </p><div>","32"
"image-keyboard-response","12","168512","0.0-2.0-7.0","17","High_HMMActual","6118","","","","Images/TutorialWhiteJarDrawHMMC.png","32"
"image-keyboard-response","13","173490","0.0-2.0-8.0","17","High_HMMActual","4979","","","","Images/TutorialBlackJarDrawHMMC.png","32"
"image-keyboard-response","14","177323","0.0-2.0-9.0","17","High_HMMActual","3832","","","","Images/TutorialBlackJarDrawHMMI.png","32"
"html-keyboard-response","15","186416","0.0-2.0-10.0","17","High_HMMActual","9091","","","","<div class=""container"" style=""height:800px;width:800px;display:flex;flex-direction:column;justify-content:center;align-items:center;text-align:center;font-weight:normal;font-family:Arial;font-size:20px""><p> As you observed, a white bead was pulled from a 80% white jar, the jars switched and a black bead was pulled from the 80% black jar, but then a low-probability white bead was pulled from the 80% black jar. <br><br>This means that the color of the bead will not always match to the color of the jar it was pulled from.<br><br>Press SPACEBAR to conitnue.</p><div>","32"
"html-keyboard-response","16","190790","0.0-2.0-11.0","17","High_HMMActual","4374","","","","<div class=""container"" style=""height:800px;width:800px;display:flex;flex-direction:column;justify-content:center;align-items:center;text-align:center;font-weight:normal;font-family:Arial;font-size:20px""><p> You will now be given a 2 question quiz to make sure you understand the task. </p><div>","32"
"image-keyboard-response","17","204516","0.0-2.0-12.0","17","High_HMMActual","13723","","","","Images/TutorialQuestion1.png","39"
"image-keyboard-response","18","216519","0.0-2.0-13.0","17","High_HMMActual","9397","","","","Images/TutorialQuestion2.png","38"
"html-keyboard-response","19","240599","0.0-3.0","17","High_HMMActual","21838","","","","<div class=""container"" style=""height:800px;width:800px;display:flex;flex-direction:column;justify-content:center;align-items:center;text-align:center;font-weight:normal;font-family:Arial;font-size:20px""><p>Loading episode&hellip;</p><div>","32"
"image-keyboard-response","20","264250","0.0-4.0-0.0","17","High_HMMActual","23649","","","","Images/NoChoice.png","39"
"image-keyboard-response","21","264668","0.0-4.0-1.0","17","High_HMMActual","null","","","","Images/WhiteBeadChoice.png","null"
"image-keyboard-response","22","265371","0.0-4.0-2.0","17","High_HMMActual","null","","","","Images/WhiteBeadChoiceCorrect.png","null"
"image-keyboard-response","23","268678","0.0-4.0-0.1","17","High_HMMActual","3305","","","","Images/NewTrialWC.png","37"
"image-keyboard-response","24","269090","0.0-4.0-1.1","17","High_HMMActual","null","","","","Images/BlackBeadChoice.png","null"
"image-keyboard-response","25","269847","0.0-4.0-2.1","17","High_HMMActual","null","","","","Images/BlackBeadChoiceWrong.png","null"
"image-keyboard-response","26","273213","0.0-4.0-0.2","17","High_HMMActual","3364","","","","Images/NewTrialWC.png","37"
"image-keyboard-response","27","273614","0.0-4.0-1.2","17","High_HMMActual","null","","","","Images/BlackBeadChoice.png","null"
"image-keyboard-response","28","274317","0.0-4.0-2.2","17","High_HMMActual","null","","","","Images/BlackBeadChoiceCorrect.png","null"
"image-keyboard-response","29","277384","0.0-4.0-0.3","17","High_HMMActual","3065","","","","Images/NewTrialBC.png","39"
"image-keyboard-response","30","277786","0.0-4.0-1.3","17","High_HMMActual","null","","","","Images/WhiteBeadChoice.png","null"
"image-keyboard-response","31","278489","0.0-4.0-2.3","17","High_HMMActual","null","","","","Images/WhiteBeadChoiceWrong.png","null"
"image-keyboard-response","32","280059","0.0-4.0-0.4","17","High_HMMActual","1569","","","","Images/NewTrialBC.png","37"
"image-keyboard-response","33","280474","0.0-4.0-1.4","17","High_HMMActual","null","","","","Images/BlackBeadChoice.png","null"
"image-keyboard-response","34","281177","0.0-4.0-2.4","17","High_HMMActual","null","","","","Images/BlackBeadChoiceWrong.png","null"
"image-keyboard-response","35","282805","0.0-4.0-0.5","17","High_HMMActual","1627","","","","Images/NewTrialWC.png","37"
"image-keyboard-response","36","283208","0.0-4.0-1.5","17","High_HMMActual","null","","","","Images/BlackBeadChoice.png","null"
"image-keyboard-response","37","283912","0.0-4.0-2.5","17","High_HMMActual","null","","","","Images/BlackBeadChoiceCorrect.png","null"
"image-keyboard-response","38","285153","0.0-4.0-0.6","17","High_HMMActual","1240","","","","Images/NewTrialBC.png","39"
"image-keyboard-response","39","285566","0.0-4.0-1.6","17","High_HMMActual","null","","","","Images/WhiteBeadChoice.png","null"
"image-keyboard-response","40","286274","0.0-4.0-2.6","17","High_HMMActual","null","","","","Images/WhiteBeadChoiceCorrect.png","null"
"image-keyboard-response","41","287758","0.0-4.0-0.7","17","High_HMMActual","1484","","","","Images/NewTrialWC.png","37"
"image-keyboard-response","42","288166","0.0-4.0-1.7","17","High_HMMActual","null","","","","Images/BlackBeadChoice.png","null"
"image-keyboard-response","43","288868","0.0-4.0-2.7","17","High_HMMActual","null","","","","Images/BlackBeadChoiceWrong.png","null"
"image-keyboard-response","44","290073","0.0-4.0-0.8","17","High_HMMActual","1203","","","","Images/NewTrialWC.png","37"
"image-keyboard-response","45","290478","0.0-4.0-1.8","17","High_HMMActual","null","","","","Images/BlackBeadChoice.png","null"
"image-keyboard-response","46","291181","0.0-4.0-2.8","17","High_HMMActual","null","","","","Images/BlackBeadChoiceCorrect.png","null"
"image-keyboard-response","47","292959","0.0-4.0-0.9","17","High_HMMActual","1778","","","","Images/NewTrialBC.png","39"
"image-keyboard-response","48","293369","0.0-4.0-1.9","17","High_HMMActual","null","","","","Images/WhiteBeadChoice.png","null"
"image-keyboard-response","49","294072","0.0-4.0-2.9","17","High_HMMActual","null","","","","Images/WhiteBeadChoiceWrong.png","null"
"image-keyboard-response","50","295512","0.0-4.0-0.10","17","High_HMMActual","1440","","","","Images/NewTrialBC.png","39"
"image-keyboard-response","51","295915","0.0-4.0-1.10","17","High_HMMActual","null","","","","Images/WhiteBeadChoice.png","null"
"image-keyboard-response","52","296619","0.0-4.0-2.10","17","High_HMMActual","null","","","","Images/WhiteBeadChoiceWrong.png","null"
"image-keyboard-response","53","298343","0.0-4.0-0.11","17","High_HMMActual","1724","","","","Images/NewTrialBC.png","39"
"image-keyboard-response","54","298759","0.0-4.0-1.11","17","High_HMMActual","null","","","","Images/WhiteBeadChoice.png","null"
"image-keyboard-response","55","299462","0.0-4.0-2.11","17","High_HMMActual","null","","","","Images/WhiteBeadChoiceWrong.png","null"
"image-keyboard-response","56","300284","0.0-4.0-0.12","17","High_HMMActual","821","","","","Images/NewTrialBC.png","39"
"image-keyboard-response","57","300697","0.0-4.0-1.12","17","High_HMMActual","null","","","","Images/WhiteBeadChoice.png","null"
"image-keyboard-response","58","301400","0.0-4.0-2.12","17","High_HMMActual","null","","","","Images/WhiteBeadChoiceCorrect.png","null"
"image-keyboard-response","59","303388","0.0-4.0-0.13","17","High_HMMActual","1987","","","","Images/NewTrialWC.png","39"
"image-keyboard-response","60","303790","0.0-4.0-1.13","17","High_HMMActual","null","","","","Images/WhiteBeadChoice.png","null"
"image-keyboard-response","61","304494","0.0-4.0-2.13","17","High_HMMActual","null","","","","Images/WhiteBeadChoiceWrong.png","null"
"image-keyboard-response","62","305577","0.0-4.0-0.14","17","High_HMMActual","1081","","","","Images/NewTrialBC.png","39"
"image-keyboard-response","63","305979","0.0-4.0-1.14","17","High_HMMActual","null","","","","Images/WhiteBeadChoice.png","null"
"image-keyboard-response","64","306681","0.0-4.0-2.14","17","High_HMMActual","null","","","","Images/WhiteBeadChoiceWrong.png","null"
"image-keyboard-response","65","307200","0.0-4.0-0.15","17","High_HMMActual","517","","","","Images/NewTrialBC.png","39"
"image-keyboard-response","66","307604","0.0-4.0-1.15","17","High_HMMActual","null","","","","Images/WhiteBeadChoice.png","null"
"image-keyboard-response","67","308306","0.0-4.0-2.15","17","High_HMMActual","null","","","","Images/WhiteBeadChoiceWrong.png","null"
"image-keyboard-response","68","308878","0.0-4.0-0.16","17","High_HMMActual","570","","","","Images/NewTrialBC.png","39"
"image-keyboard-response","69","309291","0.0-4.0-1.16","17","High_HMMActual","null","","","","Images/WhiteBeadChoice.png","null"
"image-keyboard-response","70","309994","0.0-4.0-2.16","17","High_HMMActual","null","","","","Images/WhiteBeadChoiceCorrect.png","null"
"image-keyboard-response","71","312211","0.0-4.0-0.17","17","High_HMMActual","2216","","","","Images/NewTrialWC.png","37"
"image-keyboard-response","72","312619","0.0-4.0-1.17","17","High_HMMActual","null","","","","Images/BlackBeadChoice.png","null"
"image-keyboard-response","73","313322","0.0-4.0-2.17","17","High_HMMActual","null","","","","Images/BlackBeadChoiceWrong.png","null"
"image-keyboard-response","74","315712","0.0-4.0-0.18","17","High_HMMActual","2388","","","","Images/NewTrialWC.png","37"
"image-keyboard-response","75","316120","0.0-4.0-1.18","17","High_HMMActual","null","","","","Images/BlackBeadChoice.png","null"
"image-keyboard-response","76","316822","0.0-4.0-2.18","17","High_HMMActual","null","","","","Images/BlackBeadChoiceWrong.png","null"
"image-keyboard-response","77","317141","0.0-4.0-0.19","17","High_HMMActual","318","","","","Images/NewTrialWC.png","37"
"image-keyboard-response","78","317557","0.0-4.0-1.19","17","High_HMMActual","null","","","","Images/BlackBeadChoice.png","null"
"image-keyboard-response","79","318261","0.0-4.0-2.19","17","High_HMMActual","null","","","","Images/BlackBeadChoiceWrong.png","null"
"image-keyboard-response","80","319045","0.0-4.0-0.20","17","High_HMMActual","782","","","","Images/NewTrialWC.png","37"
"image-keyboard-response","81","319448","0.0-4.0-1.20","17","High_HMMActual","null","","","","Images/BlackBeadChoice.png","null"
"image-keyboard-response","82","320151","0.0-4.0-2.20","17","High_HMMActual","null","","","","Images/BlackBeadChoiceWrong.png","null"
"image-keyboard-response","83","321187","0.0-4.0-0.21","17","High_HMMActual","1035","","","","Images/NewTrialWC.png","37"
"image-keyboard-response","84","321588","0.0-4.0-1.21","17","High_HMMActual","null","","","","Images/BlackBeadChoice.png","null"
"image-keyboard-response","85","322292","0.0-4.0-2.21","17","High_HMMActual","null","","","","Images/BlackBeadChoiceWrong.png","null"
"image-keyboard-response","86","323607","0.0-4.0-0.22","17","High_HMMActual","1314","","","","Images/NewTrialWC.png","37"
"image-keyboard-response","87","324011","0.0-4.0-1.22","17","High_HMMActual","null","","","","Images/BlackBeadChoice.png","null"
"image-keyboard-response","88","324714","0.0-4.0-2.22","17","High_HMMActual","null","","","","Images/BlackBeadChoiceWrong.png","null"
"image-keyboard-response","89","325229","0.0-4.0-0.23","17","High_HMMActual","515","","","","Images/NewTrialWC.png","39"
"image-keyboard-response","90","325636","0.0-4.0-1.23","17","High_HMMActual","null","","","","Images/WhiteBeadChoice.png","null"
"image-keyboard-response","91","326340","0.0-4.0-2.23","17","High_HMMActual","null","","","","Images/WhiteBeadChoiceWrong.png","null"
"image-keyboard-response","92","327757","0.0-4.0-0.24","17","High_HMMActual","1417","","","","Images/NewTrialBC.png","39"
"image-keyboard-response","93","328167","0.0-4.0-1.24","17","High_HMMActual","null","","","","Images/WhiteBeadChoice.png","null"
"image-keyboard-response","94","328870","0.0-4.0-2.24","17","High_HMMActual","null","","","","Images/WhiteBeadChoiceCorrect.png","null"
"image-keyboard-response","95","329416","0.0-4.0-0.25","17","High_HMMActual","544","","","","Images/NewTrialWC.png","37"
"image-keyboard-response","96","329823","0.0-4.0-1.25","17","High_HMMActual","null","","","","Images/BlackBeadChoice.png","null"
"image-keyboard-response","97","330527","0.0-4.0-2.25","17","High_HMMActual","null","","","","Images/BlackBeadChoiceWrong.png","null"
"image-keyboard-response","98","330778","0.0-4.0-0.26","17","High_HMMActual","251","","","","Images/NewTrialWC.png","37"
"image-keyboard-response","99","331183","0.0-4.0-1.26","17","High_HMMActual","null","","","","Images/BlackBeadChoice.png","null"
"image-keyboard-response","100","331887","0.0-4.0-2.26","17","High_HMMActual","null","","","","Images/BlackBeadChoiceCorrect.png","null"
"image-keyboard-response","101","332407","0.0-4.0-0.27","17","High_HMMActual","520","","","","Images/NewTrialBC.png","39"
"image-keyboard-response","102","332823","0.0-4.0-1.27","17","High_HMMActual","null","","","","Images/WhiteBeadChoice.png","null"
"image-keyboard-response","103","333527","0.0-4.0-2.27","17","High_HMMActual","null","","","","Images/WhiteBeadChoiceWrong.png","null"
"image-keyboard-response","104","334753","0.0-4.0-0.28","17","High_HMMActual","1225","","","","Images/NewTrialBC.png","39"
"image-keyboard-response","105","335167","0.0-4.0-1.28","17","High_HMMActual","null","","","","Images/WhiteBeadChoice.png","null"
"image-keyboard-response","106","335871","0.0-4.0-2.28","17","High_HMMActual","null","","","","Images/WhiteBeadChoiceCorrect.png","null"
"image-keyboard-response","107","336332","0.0-4.0-0.29","17","High_HMMActual","461","","","","Images/NewTrialWC.png","37"
"image-keyboard-response","108","336746","0.0-4.0-1.29","17","High_HMMActual","null","","","","Images/BlackBeadChoice.png","null"
"image-keyboard-response","109","337448","0.0-4.0-2.29","17","High_HMMActual","null","","","","Images/BlackBeadChoiceCorrect.png","null"
"image-keyboard-response","110","337966","0.0-4.0-0.30","17","High_HMMActual","517","","","","Images/NewTrialBC.png","37"
"image-keyboard-response","111","338370","0.0-4.0-1.30","17","High_HMMActual","null","","","","Images/BlackBeadChoice.png","null"
"image-keyboard-response","112","339074","0.0-4.0-2.30","17","High_HMMActual","null","","","","Images/BlackBeadChoiceWrong.png","null"
"image-keyboard-response","113","339581","0.0-4.0-0.31","17","High_HMMActual","507","","","","Images/NewTrialWC.png","39"
"image-keyboard-response","114","339995","0.0-4.0-1.31","17","High_HMMActual","null","","","","Images/WhiteBeadChoice.png","null"
"image-keyboard-response","115","340699","0.0-4.0-2.31","17","High_HMMActual","null","","","","Images/WhiteBeadChoiceWrong.png","null"
"image-keyboard-response","116","340729","0.0-4.0-0.32","17","High_HMMActual","29","","","","Images/NewTrialBC.png","37"
"image-keyboard-response","117","341136","0.0-4.0-1.32","17","High_HMMActual","null","","","","Images/BlackBeadChoice.png","null"
"image-keyboard-response","118","341840","0.0-4.0-2.32","17","High_HMMActual","null","","","","Images/BlackBeadChoiceWrong.png","null"
"image-keyboard-response","119","343075","0.0-4.0-0.33","17","High_HMMActual","1236","","","","Images/NewTrialWC.png","37"
"image-keyboard-response","120","343480","0.0-4.0-1.33","17","High_HMMActual","null","","","","Images/BlackBeadChoice.png","null"
"image-keyboard-response","121","344183","0.0-4.0-2.33","17","High_HMMActual","null","","","","Images/BlackBeadChoiceCorrect.png","null"
"image-keyboard-response","122","345080","0.0-4.0-0.34","17","High_HMMActual","896","","","","Images/NewTrialBC.png","39"
"image-keyboard-response","123","345487","0.0-4.0-1.34","17","High_HMMActual","null","","","","Images/WhiteBeadChoice.png","null"
"image-keyboard-response","124","346196","0.0-4.0-2.34","17","High_HMMActual","null","","","","Images/WhiteBeadChoiceCorrect.png","null"
"image-keyboard-response","125","346895","0.0-4.0-0.35","17","High_HMMActual","698","","","","Images/NewTrialWC.png","37"
"image-keyboard-response","126","347305","0.0-4.0-1.35","17","High_HMMActual","null","","","","Images/BlackBeadChoice.png","null"
"image-keyboard-response","127","348008","0.0-4.0-2.35","17","High_HMMActual","null","","","","Images/BlackBeadChoiceCorrect.png","null"
"image-keyboard-response","128","351370","0.0-4.0-0.36","17","High_HMMActual","3361","","","","Images/NewTrialBC.png","37"
"image-keyboard-response","129","351774","0.0-4.0-1.36","17","High_HMMActual","null","","","","Images/BlackBeadChoice.png","null"
"image-keyboard-response","130","352477","0.0-4.0-2.36","17","High_HMMActual","null","","","","Images/BlackBeadChoiceCorrect.png","null"
"image-keyboard-response","131","353560","0.0-4.0-0.37","17","High_HMMActual","1082","","","","Images/NewTrialBC.png","39"
"image-keyboard-response","132","353962","0.0-4.0-1.37","17","High_HMMActual","null","","","","Images/WhiteBeadChoice.png","null"
"image-keyboard-response","133","354664","0.0-4.0-2.37","17","High_HMMActual","null","","","","Images/WhiteBeadChoiceWrong.png","null"
"image-keyboard-response","134","355303","0.0-4.0-0.38","17","High_HMMActual","638","","","","Images/NewTrialBC.png","37"
"image-keyboard-response","135","355711","0.0-4.0-1.38","17","High_HMMActual","null","","","","Images/BlackBeadChoice.png","null"
"image-keyboard-response","136","356415","0.0-4.0-2.38","17","High_HMMActual","null","","","","Images/BlackBeadChoiceWrong.png","null"
"image-keyboard-response","137","357834","0.0-4.0-0.39","17","High_HMMActual","1419","","","","Images/NewTrialWC.png","37"
"image-keyboard-response","138","358243","0.0-4.0-1.39","17","High_HMMActual","null","","","","Images/BlackBeadChoice.png","null"
"image-keyboard-response","139","358947","0.0-4.0-2.39","17","High_HMMActual","null","","","","Images/BlackBeadChoiceCorrect.png","null"
"image-keyboard-response","140","359402","0.0-4.0-0.40","17","High_HMMActual","454","","","","Images/NewTrialBC.png","39"
"image-keyboard-response","141","359806","0.0-4.0-1.40","17","High_HMMActual","null","","","","Images/WhiteBeadChoice.png","null"
"image-keyboard-response","142","360509","0.0-4.0-2.40","17","High_HMMActual","null","","","","Images/WhiteBeadChoiceWrong.png","null"
"image-keyboard-response","143","361132","0.0-4.0-0.41","17","High_HMMActual","622","","","","Images/NewTrialBC.png","39"
"image-keyboard-response","144","361540","0.0-4.0-1.41","17","High_HMMActual","null","","","","Images/WhiteBeadChoice.png","null"
"image-keyboard-response","145","362244","0.0-4.0-2.41","17","High_HMMActual","null","","","","Images/WhiteBeadChoiceCorrect.png","null"
"image-keyboard-response","146","362686","0.0-4.0-0.42","17","High_HMMActual","442","","","","Images/NewTrialWC.png","37"
"image-keyboard-response","147","363088","0.0-4.0-1.42","17","High_HMMActual","null","","","","Images/BlackBeadChoice.png","null"
"image-keyboard-response","148","363791","0.0-4.0-2.42","17","High_HMMActual","null","","","","Images/BlackBeadChoiceWrong.png","null"
"image-keyboard-response","149","365141","0.0-4.0-0.43","17","High_HMMActual","1348","","","","Images/NewTrialWC.png","37"
"image-keyboard-response","150","365556","0.0-4.0-1.43","17","High_HMMActual","null","","","","Images/BlackBeadChoice.png","null"
"image-keyboard-response","151","366260","0.0-4.0-2.43","17","High_HMMActual","null","","","","Images/BlackBeadChoiceCorrect.png","null"
"image-keyboard-response","152","366544","0.0-4.0-0.44","17","High_HMMActual","284","","","","Images/NewTrialBC.png","39"
"image-keyboard-response","153","366947","0.0-4.0-1.44","17","High_HMMActual","null","","","","Images/WhiteBeadChoice.png","null"
"image-keyboard-response","154","367650","0.0-4.0-2.44","17","High_HMMActual","null","","","","Images/WhiteBeadChoiceCorrect.png","null"
"image-keyboard-response","155","368788","0.0-4.0-0.45","17","High_HMMActual","1138","","","","Images/NewTrialWC.png","37"
"image-keyboard-response","156","369197","0.0-4.0-1.45","17","High_HMMActual","null","","","","Images/BlackBeadChoice.png","null"
"image-keyboard-response","157","369900","0.0-4.0-2.45","17","High_HMMActual","null","","","","Images/BlackBeadChoiceCorrect.png","null"
"image-keyboard-response","158","370319","0.0-4.0-0.46","17","High_HMMActual","418","","","","Images/NewTrialBC.png","39"
"image-keyboard-response","159","370729","0.0-4.0-1.46","17","High_HMMActual","null","","","","Images/WhiteBeadChoice.png","null"
"image-keyboard-response","160","371431","0.0-4.0-2.46","17","High_HMMActual","null","","","","Images/WhiteBeadChoiceCorrect.png","null"
"image-keyboard-response","161","371749","0.0-4.0-0.47","17","High_HMMActual","316","","","","Images/NewTrialWC.png","37"
"image-keyboard-response","162","372151","0.0-4.0-1.47","17","High_HMMActual","null","","","","Images/BlackBeadChoice.png","null"
"image-keyboard-response","163","372855","0.0-4.0-2.47","17","High_HMMActual","null","","","","Images/BlackBeadChoiceWrong.png","null"
"image-keyboard-response","164","374345","0.0-4.0-0.48","17","High_HMMActual","1488","","","","Images/NewTrialWC.png","37"
"image-keyboard-response","165","374760","0.0-4.0-1.48","17","High_HMMActual","null","","","","Images/BlackBeadChoice.png","null"
"image-keyboard-response","166","375463","0.0-4.0-2.48","17","High_HMMActual","null","","","","Images/BlackBeadChoiceWrong.png","null"
"image-keyboard-response","167","375828","0.0-4.0-0.49","17","High_HMMActual","364","","","","Images/NewTrialWC.png","37"
"image-keyboard-response","168","376244","0.0-4.0-1.49","17","High_HMMActual","null","","","","Images/BlackBeadChoice.png","null"
"image-keyboard-response","169","376947","0.0-4.0-2.49","17","High_HMMActual","null","","","","Images/BlackBeadChoiceWrong.png","null"
"image-keyboard-response","170","377587","0.0-4.0-0.50","17","High_HMMActual","637","","","","Images/NewTrialWC.png","39"
"image-keyboard-response","171","377994","0.0-4.0-1.50","17","High_HMMActual","null","","","","Images/WhiteBeadChoice.png","null"
"image-keyboard-response","172","378697","0.0-4.0-2.50","17","High_HMMActual","355","","","","Images/WhiteBeadChoiceCorrect.png","37"
"image-keyboard-response","173","379473","0.0-4.0-0.51","17","High_HMMActual","773","","","","Images/NewTrialWC.png","37"
"image-keyboard-response","174","379885","0.0-4.0-1.51","17","High_HMMActual","null","","","","Images/BlackBeadChoice.png","null"
"image-keyboard-response","175","380588","0.0-4.0-2.51","17","High_HMMActual","null","","","","Images/BlackBeadChoiceCorrect.png","null"
"image-keyboard-response","176","380745","0.0-4.0-0.52","17","High_HMMActual","156","","","","Images/NewTrialBC.png","39"
"image-keyboard-response","177","381151","0.0-4.0-1.52","17","High_HMMActual","null","","","","Images/WhiteBeadChoice.png","null"
"image-keyboard-response","178","381855","0.0-4.0-2.52","17","High_HMMActual","null","","","","Images/WhiteBeadChoiceCorrect.png","null"
"image-keyboard-response","179","382247","0.0-4.0-0.53","17","High_HMMActual","391","","","","Images/NewTrialWC.png","37"
"image-keyboard-response","180","382650","0.0-4.0-1.53","17","High_HMMActual","null","","","","Images/BlackBeadChoice.png","null"
"image-keyboard-response","181","383354","0.0-4.0-2.53","17","High_HMMActual","null","","","","Images/BlackBeadChoiceWrong.png","null"
"image-keyboard-response","182","384558","0.0-4.0-0.54","17","High_HMMActual","1204","","","","Images/NewTrialWC.png","37"
"image-keyboard-response","183","384963","0.0-4.0-1.54","17","High_HMMActual","null","","","","Images/BlackBeadChoice.png","null"
"image-keyboard-response","184","385667","0.0-4.0-2.54","17","High_HMMActual","null","","","","Images/BlackBeadChoiceWrong.png","null"
"image-keyboard-response","185","385896","0.0-4.0-0.55","17","High_HMMActual","228","","","","Images/NewTrialWC.png","37"
"image-keyboard-response","186","386307","0.0-4.0-1.55","17","High_HMMActual","null","","","","Images/BlackBeadChoice.png","null"
"image-keyboard-response","187","387010","0.0-4.0-2.55","17","High_HMMActual","null","","","","Images/BlackBeadChoiceCorrect.png","null"
"image-keyboard-response","188","388695","0.0-4.0-0.56","17","High_HMMActual","1684","","","","Images/NewTrialBC.png","39"
"image-keyboard-response","189","389106","0.0-4.0-1.56","17","High_HMMActual","null","","","","Images/WhiteBeadChoice.png","null"
"image-keyboard-response","190","389808","0.0-4.0-2.56","17","High_HMMActual","null","","","","Images/WhiteBeadChoiceCorrect.png","null"
"image-keyboard-response","191","391768","0.0-4.0-0.57","17","High_HMMActual","1961","","","","Images/NewTrialWC.png","39"
"image-keyboard-response","192","392183","0.0-4.0-1.57","17","High_HMMActual","null","","","","Images/WhiteBeadChoice.png","null"
"image-keyboard-response","193","392886","0.0-4.0-2.57","17","High_HMMActual","505","","","","Images/WhiteBeadChoiceWrong.png","39"
"image-keyboard-response","194","393858","0.0-4.0-0.58","17","High_HMMActual","971","","","","Images/NewTrialBC.png","37"
"image-keyboard-response","195","394261","0.0-4.0-1.58","17","High_HMMActual","null","","","","Images/BlackBeadChoice.png","null"
"image-keyboard-response","196","394963","0.0-4.0-2.58","17","High_HMMActual","null","","","","Images/BlackBeadChoiceWrong.png","null"
"image-keyboard-response","197","396201","0.0-4.0-0.59","17","High_HMMActual","1237","","","","Images/NewTrialWC.png","37"
"image-keyboard-response","198","396605","0.0-4.0-1.59","17","High_HMMActual","null","","","","Images/BlackBeadChoice.png","null"
"image-keyboard-response","199","397307","0.0-4.0-2.59","17","High_HMMActual","null","","","","Images/BlackBeadChoiceCorrect.png","null"
"image-keyboard-response","200","401468","0.0-4.0-0.60","17","High_HMMActual","4159","","","","Images/NewTrialBC.png","39"
"image-keyboard-response","201","401871","0.0-4.0-1.60","17","High_HMMActual","null","","","","Images/WhiteBeadChoice.png","null"
"image-keyboard-response","202","402574","0.0-4.0-2.60","17","High_HMMActual","null","","","","Images/WhiteBeadChoiceCorrect.png","null"
"image-keyboard-response","203","403754","0.0-4.0-0.61","17","High_HMMActual","1181","","","","Images/NewTrialWC.png","37"
"image-keyboard-response","204","404168","0.0-4.0-1.61","17","High_HMMActual","null","","","","Images/BlackBeadChoice.png","null"
"image-keyboard-response","205","404874","0.0-4.0-2.61","17","High_HMMActual","null","","","","Images/BlackBeadChoiceCorrect.png","null"
"image-keyboard-response","206","404989","0.0-4.0-0.62","17","High_HMMActual","116","","","","Images/NewTrialBC.png","39"
"image-keyboard-response","207","405393","0.0-4.0-1.62","17","High_HMMActual","null","","","","Images/WhiteBeadChoice.png","null"
"image-keyboard-response","208","406104","0.0-4.0-2.62","17","High_HMMActual","null","","","","Images/WhiteBeadChoiceCorrect.png","null"
"image-keyboard-response","209","408329","0.0-4.0-0.63","17","High_HMMActual","2225","","","","Images/NewTrialWC.png","37"
"image-keyboard-response","210","408744","0.0-4.0-1.63","17","High_HMMActual","null","","","","Images/BlackBeadChoice.png","null"
"image-keyboard-response","211","409447","0.0-4.0-2.63","17","High_HMMActual","null","","","","Images/BlackBeadChoiceCorrect.png","null"
"image-keyboard-response","212","409673","0.0-4.0-0.64","17","High_HMMActual","225","","","","Images/NewTrialBC.png","37"
"image-keyboard-response","213","410089","0.0-4.0-1.64","17","High_HMMActual","null","","","","Images/BlackBeadChoice.png","null"
"image-keyboard-response","214","410790","0.0-4.0-2.64","17","High_HMMActual","null","","","","Images/BlackBeadChoiceWrong.png","null"
"image-keyboard-response","215","410960","0.0-4.0-0.65","17","High_HMMActual","169","","","","Images/NewTrialWC.png","39"
"image-keyboard-response","216","411369","0.0-4.0-1.65","17","High_HMMActual","null","","","","Images/WhiteBeadChoice.png","null"
"image-keyboard-response","217","412072","0.0-4.0-2.65","17","High_HMMActual","null","","","","Images/WhiteBeadChoiceCorrect.png","null"
"image-keyboard-response","218","413830","0.0-4.0-0.66","17","High_HMMActual","1758","","","","Images/NewTrialWC.png","37"
"image-keyboard-response","219","414245","0.0-4.0-1.66","17","High_HMMActual","null","","","","Images/BlackBeadChoice.png","null"
"image-keyboard-response","220","414947","0.0-4.0-2.66","17","High_HMMActual","null","","","","Images/BlackBeadChoiceWrong.png","null"
"image-keyboard-response","221","415150","0.0-4.0-0.67","17","High_HMMActual","201","","","","Images/NewTrialWC.png","37"
"image-keyboard-response","222","415557","0.0-4.0-1.67","17","High_HMMActual","null","","","","Images/BlackBeadChoice.png","null"
"image-keyboard-response","223","416260","0.0-4.0-2.67","17","High_HMMActual","null","","","","Images/BlackBeadChoiceCorrect.png","null"
"image-keyboard-response","224","416445","0.0-4.0-0.68","17","High_HMMActual","184","","","","Images/NewTrialBC.png","39"
"image-keyboard-response","225","416854","0.0-4.0-1.68","17","High_HMMActual","null","","","","Images/WhiteBeadChoice.png","null"
"image-keyboard-response","226","417556","0.0-4.0-2.68","17","High_HMMActual","null","","","","Images/WhiteBeadChoiceCorrect.png","null"
"image-keyboard-response","227","418707","0.0-4.0-0.69","17","High_HMMActual","1149","","","","Images/NewTrialWC.png","37"
"image-keyboard-response","228","419120","0.0-4.0-1.69","17","High_HMMActual","null","","","","Images/BlackBeadChoice.png","null"
"image-keyboard-response","229","419823","0.0-4.0-2.69","17","High_HMMActual","null","","","","Images/BlackBeadChoiceCorrect.png","null"
"image-keyboard-response","230","420107","0.0-4.0-0.70","17","High_HMMActual","283","","","","Images/NewTrialBC.png","39"
"image-keyboard-response","231","420510","0.0-4.0-1.70","17","High_HMMActual","null","","","","Images/WhiteBeadChoice.png","null"
"image-keyboard-response","232","421213","0.0-4.0-2.70","17","High_HMMActual","null","","","","Images/WhiteBeadChoiceWrong.png","null"
"image-keyboard-response","233","421984","0.0-4.0-0.71","17","High_HMMActual","771","","","","Images/NewTrialBC.png","39"
"image-keyboard-response","234","422400","0.0-4.0-1.71","17","High_HMMActual","null","","","","Images/WhiteBeadChoice.png","null"
"image-keyboard-response","235","423104","0.0-4.0-2.71","17","High_HMMActual","null","","","","Images/WhiteBeadChoiceWrong.png","null"
"image-keyboard-response","236","424060","0.0-4.0-0.72","17","High_HMMActual","957","","","","Images/NewTrialBC.png","39"
"image-keyboard-response","237","424463","0.0-4.0-1.72","17","High_HMMActual","null","","","","Images/WhiteBeadChoice.png","null"
"image-keyboard-response","238","425167","0.0-4.0-2.72","17","High_HMMActual","null","","","","Images/WhiteBeadChoiceCorrect.png","null"
"image-keyboard-response","239","426577","0.0-4.0-0.73","17","High_HMMActual","1410","","","","Images/NewTrialWC.png","37"
"image-keyboard-response","240","426979","0.0-4.0-1.73","17","High_HMMActual","null","","","","Images/BlackBeadChoice.png","null"
"image-keyboard-response","241","427683","0.0-4.0-2.73","17","High_HMMActual","null","","","","Images/BlackBeadChoiceCorrect.png","null"
"image-keyboard-response","242","427971","0.0-4.0-0.74","17","High_HMMActual","287","","","","Images/NewTrialBC.png","37"
"image-keyboard-response","243","428386","0.0-4.0-1.74","17","High_HMMActual","null","","","","Images/BlackBeadChoice.png","null"
"image-keyboard-response","244","429088","0.0-4.0-2.74","17","High_HMMActual","null","","","","Images/BlackBeadChoiceWrong.png","null"
"image-keyboard-response","245","430171","0.0-4.0-0.75","17","High_HMMActual","1081","","","","Images/NewTrialWC.png","37"
"image-keyboard-response","246","430573","0.0-4.0-1.75","17","High_HMMActual","null","","","","Images/BlackBeadChoice.png","null"
"image-keyboard-response","247","431276","0.0-4.0-2.75","17","High_HMMActual","null","","","","Images/BlackBeadChoiceCorrect.png","null"
"image-keyboard-response","248","431881","0.0-4.0-0.76","17","High_HMMActual","604","","","","Images/NewTrialBC.png","39"
"image-keyboard-response","249","432292","0.0-4.0-1.76","17","High_HMMActual","null","","","","Images/WhiteBeadChoice.png","null"
"image-keyboard-response","250","432996","0.0-4.0-2.76","17","High_HMMActual","null","","","","Images/WhiteBeadChoiceCorrect.png","null"
"image-keyboard-response","251","433534","0.0-4.0-0.77","17","High_HMMActual","537","","","","Images/NewTrialWC.png","37"
"image-keyboard-response","252","433948","0.0-4.0-1.77","17","High_HMMActual","null","","","","Images/BlackBeadChoice.png","null"
"image-keyboard-response","253","434652","0.0-4.0-2.77","17","High_HMMActual","null","","","","Images/BlackBeadChoiceCorrect.png","null"
"image-keyboard-response","254","434975","0.0-4.0-0.78","17","High_HMMActual","322","","","","Images/NewTrialBC.png","39"
"image-keyboard-response","255","435386","0.0-4.0-1.78","17","High_HMMActual","null","","","","Images/WhiteBeadChoice.png","null"
"image-keyboard-response","256","436089","0.0-4.0-2.78","17","High_HMMActual","null","","","","Images/WhiteBeadChoiceCorrect.png","null"
"image-keyboard-response","257","436345","0.0-4.0-0.79","17","High_HMMActual","256","","","","Images/NewTrialWC.png","37"
"image-keyboard-response","258","436761","0.0-4.0-1.79","17","High_HMMActual","null","","","","Images/BlackBeadChoice.png","null"
"image-keyboard-response","259","437464","0.0-4.0-2.79","17","High_HMMActual","null","","","","Images/BlackBeadChoiceCorrect.png","null"
"image-keyboard-response","260","437704","0.0-4.0-0.80","17","High_HMMActual","240","","","","Images/NewTrialBC.png","39"
"image-keyboard-response","261","438105","0.0-4.0-1.80","17","High_HMMActual","null","","","","Images/WhiteBeadChoice.png","null"
"image-keyboard-response","262","438808","0.0-4.0-2.80","17","High_HMMActual","null","","","","Images/WhiteBeadChoiceCorrect.png","null"
"image-keyboard-response","263","439314","0.0-4.0-0.81","17","High_HMMActual","504","","","","Images/NewTrialWC.png","37"
"image-keyboard-response","264","439714","0.0-4.0-1.81","17","High_HMMActual","null","","","","Images/BlackBeadChoice.png","null"
"image-keyboard-response","265","440418","0.0-4.0-2.81","17","High_HMMActual","null","","","","Images/BlackBeadChoiceCorrect.png","null"
"image-keyboard-response","266","440628","0.0-4.0-0.82","17","High_HMMActual","209","","","","Images/NewTrialBC.png","39"
"image-keyboard-response","267","441042","0.0-4.0-1.82","17","High_HMMActual","null","","","","Images/WhiteBeadChoice.png","null"
"image-keyboard-response","268","441746","0.0-4.0-2.82","17","High_HMMActual","null","","","","Images/WhiteBeadChoiceCorrect.png","null"
"image-keyboard-response","269","442162","0.0-4.0-0.83","17","High_HMMActual","415","","","","Images/NewTrialWC.png","39"
"image-keyboard-response","270","442575","0.0-4.0-1.83","17","High_HMMActual","null","","","","Images/WhiteBeadChoice.png","null"
"image-keyboard-response","271","443277","0.0-4.0-2.83","17","High_HMMActual","649","","","","Images/WhiteBeadChoiceWrong.png","39"
"image-keyboard-response","272","444148","0.0-4.0-0.84","17","High_HMMActual","870","","","","Images/NewTrialBC.png","39"
"image-keyboard-response","273","444558","0.0-4.0-1.84","17","High_HMMActual","null","","","","Images/WhiteBeadChoice.png","null"
"image-keyboard-response","274","445273","0.0-4.0-2.84","17","High_HMMActual","null","","","","Images/WhiteBeadChoiceCorrect.png","null"
"image-keyboard-response","275","445799","0.0-4.0-0.85","17","High_HMMActual","525","","","","Images/NewTrialWC.png","37"
"image-keyboard-response","276","446212","0.0-4.0-1.85","17","High_HMMActual","null","","","","Images/BlackBeadChoice.png","null"
"image-keyboard-response","277","446914","0.0-4.0-2.85","17","High_HMMActual","null","","","","Images/BlackBeadChoiceCorrect.png","null"
"image-keyboard-response","278","446920","0.0-4.0-0.86","17","High_HMMActual","5","","","","Images/NewTrialBC.png","39"
"image-keyboard-response","279","447336","0.0-4.0-1.86","17","High_HMMActual","null","","","","Images/WhiteBeadChoice.png","null"
"image-keyboard-response","280","448039","0.0-4.0-2.86","17","High_HMMActual","null","","","","Images/WhiteBeadChoiceCorrect.png","null"
"image-keyboard-response","281","448407","0.0-4.0-0.87","17","High_HMMActual","367","","","","Images/NewTrialWC.png","37"
"image-keyboard-response","282","448820","0.0-4.0-1.87","17","High_HMMActual","null","","","","Images/BlackBeadChoice.png","null"
"image-keyboard-response","283","449524","0.0-4.0-2.87","17","High_HMMActual","null","","","","Images/BlackBeadChoiceCorrect.png","null"
"image-keyboard-response","284","449815","0.0-4.0-0.88","17","High_HMMActual","290","","","","Images/NewTrialBC.png","37"
"image-keyboard-response","285","450227","0.0-4.0-1.88","17","High_HMMActual","null","","","","Images/BlackBeadChoice.png","null"
"image-keyboard-response","286","450930","0.0-4.0-2.88","17","High_HMMActual","null","","","","Images/BlackBeadChoiceWrong.png","null"
"image-keyboard-response","287","451876","0.0-4.0-0.89","17","High_HMMActual","945","","","","Images/NewTrialWC.png","37"
"image-keyboard-response","288","452289","0.0-4.0-1.89","17","High_HMMActual","null","","","","Images/BlackBeadChoice.png","null"
"image-keyboard-response","289","452993","0.0-4.0-2.89","17","High_HMMActual","null","","","","Images/BlackBeadChoiceCorrect.png","null"
"image-keyboard-response","290","453936","0.0-4.0-0.90","17","High_HMMActual","943","","","","Images/NewTrialBC.png","39"
"image-keyboard-response","291","454352","0.0-4.0-1.90","17","High_HMMActual","null","","","","Images/WhiteBeadChoice.png","null"
"image-keyboard-response","292","455055","0.0-4.0-2.90","17","High_HMMActual","null","","","","Images/WhiteBeadChoiceCorrect.png","null"
"image-keyboard-response","293","455352","0.0-4.0-0.91","17","High_HMMActual","296","","","","Images/NewTrialWC.png","39"
"image-keyboard-response","294","455758","0.0-4.0-1.91","17","High_HMMActual","null","","","","Images/WhiteBeadChoice.png","null"
"image-keyboard-response","295","456462","0.0-4.0-2.91","17","High_HMMActual","null","","","","Images/WhiteBeadChoiceWrong.png","null"
"image-keyboard-response","296","457421","0.0-4.0-0.92","17","High_HMMActual","958","","","","Images/NewTrialBC.png","39"
"image-keyboard-response","297","457836","0.0-4.0-1.92","17","High_HMMActual","null","","","","Images/WhiteBeadChoice.png","null"
"image-keyboard-response","298","458539","0.0-4.0-2.92","17","High_HMMActual","null","","","","Images/WhiteBeadChoiceCorrect.png","null"
"image-keyboard-response","299","458775","0.0-4.0-0.93","17","High_HMMActual","234","","","","Images/NewTrialWC.png","37"
"image-keyboard-response","300","459181","0.0-4.0-1.93","17","High_HMMActual","null","","","","Images/BlackBeadChoice.png","null"
"image-keyboard-response","301","459883","0.0-4.0-2.93","17","High_HMMActual","null","","","","Images/BlackBeadChoiceCorrect.png","null"
"image-keyboard-response","302","459959","0.0-4.0-0.94","17","High_HMMActual","76","","","","Images/NewTrialBC.png","39"
"image-keyboard-response","303","460367","0.0-4.0-1.94","17","High_HMMActual","null","","","","Images/WhiteBeadChoice.png","null"
"image-keyboard-response","304","461070","0.0-4.0-2.94","17","High_HMMActual","null","","","","Images/WhiteBeadChoiceCorrect.png","null"
"image-keyboard-response","305","461282","0.0-4.0-0.95","17","High_HMMActual","209","","","","Images/NewTrialWC.png","37"
"image-keyboard-response","306","461696","0.0-4.0-1.95","17","High_HMMActual","null","","","","Images/BlackBeadChoice.png","null"
"image-keyboard-response","307","462400","0.0-4.0-2.95","17","High_HMMActual","null","","","","Images/BlackBeadChoiceCorrect.png","null"
"image-keyboard-response","308","462864","0.0-4.0-0.96","17","High_HMMActual","463","","","","Images/NewTrialBC.png","39"
"image-keyboard-response","309","463274","0.0-4.0-1.96","17","High_HMMActual","null","","","","Images/WhiteBeadChoice.png","null"
"image-keyboard-response","310","463977","0.0-4.0-2.96","17","High_HMMActual","null","","","","Images/WhiteBeadChoiceCorrect.png","null"
"image-keyboard-response","311","465254","0.0-4.0-0.97","17","High_HMMActual","1275","","","","Images/NewTrialWC.png","37"
"image-keyboard-response","312","465660","0.0-4.0-1.97","17","High_HMMActual","null","","","","Images/BlackBeadChoice.png","null"
"image-keyboard-response","313","466368","0.0-4.0-2.97","17","High_HMMActual","null","","","","Images/BlackBeadChoiceCorrect.png","null"
"image-keyboard-response","314","467115","0.0-4.0-0.98","17","High_HMMActual","746","","","","Images/NewTrialBC.png","37"
"image-keyboard-response","315","467524","0.0-4.0-1.98","17","High_HMMActual","null","","","","Images/BlackBeadChoice.png","null"
"image-keyboard-response","316","468227","0.0-4.0-2.98","17","High_HMMActual","null","","","","Images/BlackBeadChoiceWrong.png","null"
"image-keyboard-response","317","470684","0.0-4.0-0.99","17","High_HMMActual","2455","","","","Images/NewTrialWC.png","39"
"image-keyboard-response","318","471087","0.0-4.0-1.99","17","High_HMMActual","null","","","","Images/WhiteBeadChoice.png","null"
"image-keyboard-response","319","471789","0.0-4.0-2.99","17","High_HMMActual","null","","","","Images/WhiteBeadChoiceCorrect.png","null"
"image-keyboard-response","320","472055","0.0-4.0-0.100","17","High_HMMActual","265","","","","Images/NewTrialWC.png","37"
"image-keyboard-response","321","472461","0.0-4.0-1.100","17","High_HMMActual","null","","","","Images/BlackBeadChoice.png","null"
"image-keyboard-response","322","473165","0.0-4.0-2.100","17","High_HMMActual","null","","","","Images/BlackBeadChoiceWrong.png","null"
"image-keyboard-response","323","473624","0.0-4.0-0.101","17","High_HMMActual","459","","","","Images/NewTrialWC.png","37"
"image-keyboard-response","324","474040","0.0-4.0-1.101","17","High_HMMActual","null","","","","Images/BlackBeadChoice.png","null"
"image-keyboard-response","325","474743","0.0-4.0-2.101","17","High_HMMActual","null","","","","Images/BlackBeadChoiceCorrect.png","null"
"image-keyboard-response","326","475470","0.0-4.0-0.102","17","High_HMMActual","727","","","","Images/NewTrialBC.png","39"
"image-keyboard-response","327","475884","0.0-4.0-1.102","17","High_HMMActual","null","","","","Images/WhiteBeadChoice.png","null"
"image-keyboard-response","328","476586","0.0-4.0-2.102","17","High_HMMActual","null","","","","Images/WhiteBeadChoiceCorrect.png","null"
"image-keyboard-response","329","476869","0.0-4.0-0.103","17","High_HMMActual","280","","","","Images/NewTrialWC.png","37"
"image-keyboard-response","330","477274","0.0-4.0-1.103","17","High_HMMActual","null","","","","Images/BlackBeadChoice.png","null"
"image-keyboard-response","331","477978","0.0-4.0-2.103","17","High_HMMActual","null","","","","Images/BlackBeadChoiceCorrect.png","null"
"image-keyboard-response","332","478076","0.0-4.0-0.104","17","High_HMMActual","98","","","","Images/NewTrialBC.png","39"
"image-keyboard-response","333","478478","0.0-4.0-1.104","17","High_HMMActual","null","","","","Images/WhiteBeadChoice.png","null"
"image-keyboard-response","334","479181","0.0-4.0-2.104","17","High_HMMActual","null","","","","Images/WhiteBeadChoiceCorrect.png","null"
"image-keyboard-response","335","479479","0.0-4.0-0.105","17","High_HMMActual","297","","","","Images/NewTrialWC.png","37"
"image-keyboard-response","336","479884","0.0-4.0-1.105","17","High_HMMActual","null","","","","Images/BlackBeadChoice.png","null"
"image-keyboard-response","337","480587","0.0-4.0-2.105","17","High_HMMActual","null","","","","Images/BlackBeadChoiceCorrect.png","null"
"image-keyboard-response","338","480602","0.0-4.0-0.106","17","High_HMMActual","13","","","","Images/NewTrialBC.png","39"
"image-keyboard-response","339","481008","0.0-4.0-1.106","17","High_HMMActual","null","","","","Images/WhiteBeadChoice.png","null"
"image-keyboard-response","340","481712","0.0-4.0-2.106","17","High_HMMActual","null","","","","Images/WhiteBeadChoiceCorrect.png","null"
"image-keyboard-response","341","482371","0.0-4.0-0.107","17","High_HMMActual","658","","","","Images/NewTrialWC.png","37"
"image-keyboard-response","342","482775","0.0-4.0-1.107","17","High_HMMActual","null","","","","Images/BlackBeadChoice.png","null"
"image-keyboard-response","343","483477","0.0-4.0-2.107","17","High_HMMActual","null","","","","Images/BlackBeadChoiceCorrect.png","null"
"image-keyboard-response","344","483754","0.0-4.0-0.108","17","High_HMMActual","275","","","","Images/NewTrialBC.png","39"
"image-keyboard-response","345","484166","0.0-4.0-1.108","17","High_HMMActual","null","","","","Images/WhiteBeadChoice.png","null"
"image-keyboard-response","346","484868","0.0-4.0-2.108","17","High_HMMActual","null","","","","Images/WhiteBeadChoiceCorrect.png","null"
"image-keyboard-response","347","485388","0.0-4.0-0.109","17","High_HMMActual","517","","","","Images/NewTrialWC.png","39"
"image-keyboard-response","348","485790","0.0-4.0-1.109","17","High_HMMActual","null","","","","Images/WhiteBeadChoice.png","null"
"image-keyboard-response","349","486493","0.0-4.0-2.109","17","High_HMMActual","null","","","","Images/WhiteBeadChoiceWrong.png","null"
"image-keyboard-response","350","486972","0.0-4.0-0.110","17","High_HMMActual","477","","","","Images/NewTrialBC.png","37"
"image-keyboard-response","351","487384","0.0-4.0-1.110","17","High_HMMActual","null","","","","Images/BlackBeadChoice.png","null"
"image-keyboard-response","352","488087","0.0-4.0-2.110","17","High_HMMActual","null","","","","Images/BlackBeadChoiceCorrect.png","null"
"image-keyboard-response","353","488811","0.0-4.0-0.111","17","High_HMMActual","723","","","","Images/NewTrialBC.png","39"
"image-keyboard-response","354","489213","0.0-4.0-1.111","17","High_HMMActual","31","","","","Images/WhiteBeadChoice.png","39"
"image-keyboard-response","355","489917","0.0-4.0-2.111","17","High_HMMActual","null","","","","Images/WhiteBeadChoiceWrong.png","null"
"image-keyboard-response","356","490081","0.0-4.0-0.112","17","High_HMMActual","164","","","","Images/NewTrialBC.png","39"
"image-keyboard-response","357","490494","0.0-4.0-1.112","17","High_HMMActual","null","","","","Images/WhiteBeadChoice.png","null"
"image-keyboard-response","358","491197","0.0-4.0-2.112","17","High_HMMActual","null","","","","Images/WhiteBeadChoiceCorrect.png","null"
"image-keyboard-response","359","491786","0.0-4.0-0.113","17","High_HMMActual","588","","","","Images/NewTrialWC.png","37"
"image-keyboard-response","360","492197","0.0-4.0-1.113","17","High_HMMActual","null","","","","Images/BlackBeadChoice.png","null"
"image-keyboard-response","361","492900","0.0-4.0-2.113","17","High_HMMActual","null","","","","Images/BlackBeadChoiceCorrect.png","null"
"image-keyboard-response","362","493290","0.0-4.0-0.114","17","High_HMMActual","388","","","","Images/NewTrialBC.png","39"
"image-keyboard-response","363","493698","0.0-4.0-1.114","17","High_HMMActual","null","","","","Images/WhiteBeadChoice.png","null"
"image-keyboard-response","364","494400","0.0-4.0-2.114","17","High_HMMActual","null","","","","Images/WhiteBeadChoiceCorrect.png","null"
"image-keyboard-response","365","496301","0.0-4.0-0.115","17","High_HMMActual","1901","","","","Images/NewTrialWC.png","37"
"image-keyboard-response","366","496712","0.0-4.0-1.115","17","High_HMMActual","null","","","","Images/BlackBeadChoice.png","null"
"image-keyboard-response","367","497417","0.0-4.0-2.115","17","High_HMMActual","null","","","","Images/BlackBeadChoiceCorrect.png","null"
"image-keyboard-response","368","497754","0.0-4.0-0.116","17","High_HMMActual","336","","","","Images/NewTrialBC.png","39"
"image-keyboard-response","369","498166","0.0-4.0-1.116","17","High_HMMActual","null","","","","Images/WhiteBeadChoice.png","null"
"image-keyboard-response","370","498869","0.0-4.0-2.116","17","High_HMMActual","null","","","","Images/WhiteBeadChoiceCorrect.png","null"
"image-keyboard-response","371","500721","0.0-4.0-0.117","17","High_HMMActual","1852","","","","Images/NewTrialWC.png","39"
"image-keyboard-response","372","501148","0.0-4.0-1.117","17","High_HMMActual","null","","","","Images/WhiteBeadChoice.png","null"
"image-keyboard-response","373","501854","0.0-4.0-2.117","17","High_HMMActual","null","","","","Images/WhiteBeadChoiceCorrect.png","null"
"image-keyboard-response","374","502478","0.0-4.0-0.118","17","High_HMMActual","623","","","","Images/NewTrialWC.png","37"
"image-keyboard-response","375","502886","0.0-4.0-1.118","17","High_HMMActual","null","","","","Images/BlackBeadChoice.png","null"
"image-keyboard-response","376","503588","0.0-4.0-2.118","17","High_HMMActual","null","","","","Images/BlackBeadChoiceWrong.png","null"
"image-keyboard-response","377","504622","0.0-4.0-0.119","17","High_HMMActual","1033","","","","Images/NewTrialWC.png","37"
"image-keyboard-response","378","505026","0.0-4.0-1.119","17","High_HMMActual","null","","","","Images/BlackBeadChoice.png","null"
"image-keyboard-response","379","505729","0.0-4.0-2.119","17","High_HMMActual","null","","","","Images/BlackBeadChoiceCorrect.png","null"
"image-keyboard-response","380","505838","0.0-4.0-0.120","17","High_HMMActual","108","","","","Images/NewTrialBC.png","39"
"image-keyboard-response","381","506244","0.0-4.0-1.120","17","High_HMMActual","null","","","","Images/WhiteBeadChoice.png","null"
"image-keyboard-response","382","506948","0.0-4.0-2.120","17","High_HMMActual","null","","","","Images/WhiteBeadChoiceCorrect.png","null"
"image-keyboard-response","383","507529","0.0-4.0-0.121","17","High_HMMActual","579","","","","Images/NewTrialWC.png","37"
"image-keyboard-response","384","507933","0.0-4.0-1.121","17","High_HMMActual","null","","","","Images/BlackBeadChoice.png","null"
"image-keyboard-response","385","508636","0.0-4.0-2.121","17","High_HMMActual","null","","","","Images/BlackBeadChoiceCorrect.png","null"
"image-keyboard-response","386","508795","0.0-4.0-0.122","17","High_HMMActual","158","","","","Images/NewTrialBC.png","39"
"image-keyboard-response","387","509199","0.0-4.0-1.122","17","High_HMMActual","null","","","","Images/WhiteBeadChoice.png","null"
"image-keyboard-response","388","509901","0.0-4.0-2.122","17","High_HMMActual","null","","","","Images/WhiteBeadChoiceCorrect.png","null"
"image-keyboard-response","389","509994","0.0-4.0-0.123","17","High_HMMActual","92","","","","Images/NewTrialWC.png","37"
"image-keyboard-response","390","510413","0.0-4.0-1.123","17","High_HMMActual","null","","","","Images/BlackBeadChoice.png","null"
"image-keyboard-response","391","511120","0.0-4.0-2.123","17","High_HMMActual","668","","","","Images/BlackBeadChoiceCorrect.png","39"
"image-keyboard-response","392","512084","0.0-4.0-0.124","17","High_HMMActual","964","","","","Images/NewTrialBC.png","39"
"image-keyboard-response","393","512495","0.0-4.0-1.124","17","High_HMMActual","null","","","","Images/WhiteBeadChoice.png","null"
"image-keyboard-response","394","513198","0.0-4.0-2.124","17","High_HMMActual","null","","","","Images/WhiteBeadChoiceCorrect.png","null"
"image-keyboard-response","395","513424","0.0-4.0-0.125","17","High_HMMActual","225","","","","Images/NewTrialWC.png","37"
"image-keyboard-response","396","513839","0.0-4.0-1.125","17","High_HMMActual","null","","","","Images/BlackBeadChoice.png","null"
"image-keyboard-response","397","514543","0.0-4.0-2.125","17","High_HMMActual","null","","","","Images/BlackBeadChoiceCorrect.png","null"
"image-keyboard-response","398","514681","0.0-4.0-0.126","17","High_HMMActual","137","","","","Images/NewTrialBC.png","39"
"image-keyboard-response","399","515089","0.0-4.0-1.126","17","High_HMMActual","null","","","","Images/WhiteBeadChoice.png","null"
"image-keyboard-response","400","515792","0.0-4.0-2.126","17","High_HMMActual","null","","","","Images/WhiteBeadChoiceCorrect.png","null"
"image-keyboard-response","401","516437","0.0-4.0-0.127","17","High_HMMActual","643","","","","Images/NewTrialWC.png","39"
"image-keyboard-response","402","516839","0.0-4.0-1.127","17","High_HMMActual","null","","","","Images/WhiteBeadChoice.png","null"
"image-keyboard-response","403","517544","0.0-4.0-2.127","17","High_HMMActual","null","","","","Images/WhiteBeadChoiceWrong.png","null"
"image-keyboard-response","404","520090","0.0-4.0-0.128","17","High_HMMActual","2544","","","","Images/NewTrialBC.png","39"
"image-keyboard-response","405","520495","0.0-4.0-1.128","17","High_HMMActual","null","","","","Images/WhiteBeadChoice.png","null"
"image-keyboard-response","406","521199","0.0-4.0-2.128","17","High_HMMActual","null","","","","Images/WhiteBeadChoiceWrong.png","null"
"image-keyboard-response","407","522402","0.0-4.0-0.129","17","High_HMMActual","1203","","","","Images/NewTrialBC.png","39"
"image-keyboard-response","408","522808","0.0-4.0-1.129","17","High_HMMActual","null","","","","Images/WhiteBeadChoice.png","null"
"image-keyboard-response","409","523512","0.0-4.0-2.129","17","High_HMMActual","null","","","","Images/WhiteBeadChoiceWrong.png","null"
"image-keyboard-response","410","523590","0.0-4.0-0.130","17","High_HMMActual","78","","","","Images/NewTrialBC.png","39"
"image-keyboard-response","411","523996","0.0-4.0-1.130","17","High_HMMActual","null","","","","Images/WhiteBeadChoice.png","null"
"image-keyboard-response","412","524705","0.0-4.0-2.130","17","High_HMMActual","574","","","","Images/WhiteBeadChoiceWrong.png","39"
"image-keyboard-response","413","525819","0.0-4.0-0.131","17","High_HMMActual","1113","","","","Images/NewTrialBC.png","37"
"image-keyboard-response","414","526226","0.0-4.0-1.131","17","High_HMMActual","null","","","","Images/BlackBeadChoice.png","null"
"image-keyboard-response","415","526929","0.0-4.0-2.131","17","High_HMMActual","null","","","","Images/BlackBeadChoiceCorrect.png","null"
"image-keyboard-response","416","527157","0.0-4.0-0.132","17","High_HMMActual","226","","","","Images/NewTrialBC.png","39"
"image-keyboard-response","417","527571","0.0-4.0-1.132","17","High_HMMActual","null","","","","Images/WhiteBeadChoice.png","null"
"image-keyboard-response","418","528274","0.0-4.0-2.132","17","High_HMMActual","null","","","","Images/WhiteBeadChoiceCorrect.png","null"
"image-keyboard-response","419","528496","0.0-4.0-0.133","17","High_HMMActual","221","","","","Images/NewTrialWC.png","37"
"image-keyboard-response","420","528898","0.0-4.0-1.133","17","High_HMMActual","null","","","","Images/BlackBeadChoice.png","null"
"image-keyboard-response","421","529602","0.0-4.0-2.133","17","High_HMMActual","null","","","","Images/BlackBeadChoiceWrong.png","null"
"image-keyboard-response","422","530348","0.0-4.0-0.134","17","High_HMMActual","744","","","","Images/NewTrialWC.png","37"
"image-keyboard-response","423","530758","0.0-4.0-1.134","17","High_HMMActual","null","","","","Images/BlackBeadChoice.png","null"
"image-keyboard-response","424","531462","0.0-4.0-2.134","17","High_HMMActual","686","","","","Images/BlackBeadChoiceWrong.png","37"
"image-keyboard-response","425","532140","0.0-4.0-0.135","17","High_HMMActual","678","","","","Images/NewTrialWC.png","37"
"image-keyboard-response","426","532555","0.0-4.0-1.135","17","High_HMMActual","null","","","","Images/BlackBeadChoice.png","null"
"image-keyboard-response","427","533258","0.0-4.0-2.135","17","High_HMMActual","674","","","","Images/BlackBeadChoiceWrong.png","39"
"image-keyboard-response","428","534334","0.0-4.0-0.136","17","High_HMMActual","1076","","","","Images/NewTrialWC.png","39"
"image-keyboard-response","429","534743","0.0-4.0-1.136","17","High_HMMActual","null","","","","Images/WhiteBeadChoice.png","null"
"image-keyboard-response","430","535446","0.0-4.0-2.136","17","High_HMMActual","null","","","","Images/WhiteBeadChoiceWrong.png","null"
"image-keyboard-response","431","535985","0.0-4.0-0.137","17","High_HMMActual","538","","","","Images/NewTrialBC.png","37"
"image-keyboard-response","432","536400","0.0-4.0-1.137","17","High_HMMActual","null","","","","Images/BlackBeadChoice.png","null"
"image-keyboard-response","433","537102","0.0-4.0-2.137","17","High_HMMActual","389","","","","Images/BlackBeadChoiceCorrect.png","39"
"image-keyboard-response","434","537660","0.0-4.0-0.138","17","High_HMMActual","556","","","","Images/NewTrialBC.png","39"
"image-keyboard-response","435","538071","0.0-4.0-1.138","17","High_HMMActual","null","","","","Images/WhiteBeadChoice.png","null"
"image-keyboard-response","436","538773","0.0-4.0-2.138","17","High_HMMActual","420","","","","Images/WhiteBeadChoiceWrong.png","39"
"image-keyboard-response","437","539655","0.0-4.0-0.139","17","High_HMMActual","880","","","","Images/NewTrialBC.png","39"
"image-keyboard-response","438","540056","0.0-4.0-1.139","17","High_HMMActual","null","","","","Images/WhiteBeadChoice.png","null"
"image-keyboard-response","439","540759","0.0-4.0-2.139","17","High_HMMActual","583","","","","Images/WhiteBeadChoiceWrong.png","39"
"image-keyboard-response","440","542114","0.0-4.0-0.140","17","High_HMMActual","1355","","","","Images/NewTrialBC.png","39"
"image-keyboard-response","441","542524","0.0-4.0-1.140","17","High_HMMActual","null","","","","Images/WhiteBeadChoice.png","null"
"image-keyboard-response","442","543227","0.0-4.0-2.140","17","High_HMMActual","null","","","","Images/WhiteBeadChoiceCorrect.png","null"
"image-keyboard-response","443","543643","0.0-4.0-0.141","17","High_HMMActual","414","","","","Images/NewTrialWC.png","37"
"image-keyboard-response","444","544056","0.0-4.0-1.141","17","High_HMMActual","null","","","","Images/BlackBeadChoice.png","null"
"image-keyboard-response","445","544759","0.0-4.0-2.141","17","High_HMMActual","null","","","","Images/BlackBeadChoiceWrong.png","null"
"image-keyboard-response","446","544794","0.0-4.0-0.142","17","High_HMMActual","35","","","","Images/NewTrialWC.png","37"
"image-keyboard-response","447","545196","0.0-4.0-1.142","17","High_HMMActual","null","","","","Images/BlackBeadChoice.png","null"
"image-keyboard-response","448","545899","0.0-4.0-2.142","17","High_HMMActual","null","","","","Images/BlackBeadChoiceWrong.png","null"
"image-keyboard-response","449","546406","0.0-4.0-0.143","17","High_HMMActual","506","","","","Images/NewTrialWC.png","39"
"image-keyboard-response","450","546822","0.0-4.0-1.143","17","High_HMMActual","null","","","","Images/WhiteBeadChoice.png","null"
"image-keyboard-response","451","547524","0.0-4.0-2.143","17","High_HMMActual","null","","","","Images/WhiteBeadChoiceWrong.png","null"
"image-keyboard-response","452","547579","0.0-4.0-0.144","17","High_HMMActual","54","","","","Images/NewTrialBC.png","37"
"image-keyboard-response","453","547993","0.0-4.0-1.144","17","High_HMMActual","null","","","","Images/BlackBeadChoice.png","null"
"image-keyboard-response","454","548696","0.0-4.0-2.144","17","High_HMMActual","391","","","","Images/BlackBeadChoiceWrong.png","39"
"image-keyboard-response","455","549386","0.0-4.0-0.145","17","High_HMMActual","689","","","","Images/NewTrialWC.png","39"
"image-keyboard-response","456","549790","0.0-4.0-1.145","17","High_HMMActual","null","","","","Images/WhiteBeadChoice.png","null"
"image-keyboard-response","457","550493","0.0-4.0-2.145","17","High_HMMActual","412","","","","Images/WhiteBeadChoiceWrong.png","37"
"image-keyboard-response","458","551450","0.0-4.0-0.146","17","High_HMMActual","957","","","","Images/NewTrialBC.png","39"
"image-keyboard-response","459","551853","0.0-4.0-1.146","17","High_HMMActual","null","","","","Images/WhiteBeadChoice.png","null"
"image-keyboard-response","460","552556","0.0-4.0-2.146","17","High_HMMActual","null","","","","Images/WhiteBeadChoiceWrong.png","null"
"image-keyboard-response","461","552600","0.0-4.0-0.147","17","High_HMMActual","42","","","","Images/NewTrialBC.png","37"
"image-keyboard-response","462","553009","0.0-4.0-1.147","17","High_HMMActual","null","","","","Images/BlackBeadChoice.png","null"
"image-keyboard-response","463","553712","0.0-4.0-2.147","17","High_HMMActual","585","","","","Images/BlackBeadChoiceCorrect.png","37"
"image-keyboard-response","464","554389","0.0-4.0-0.148","17","High_HMMActual","677","","","","Images/NewTrialBC.png","39"
"image-keyboard-response","465","554790","0.0-4.0-1.148","17","High_HMMActual","null","","","","Images/WhiteBeadChoice.png","null"
"image-keyboard-response","466","555491","0.0-4.0-2.148","17","High_HMMActual","454","","","","Images/WhiteBeadChoiceWrong.png","39"
"image-keyboard-response","467","556641","0.0-4.0-0.149","17","High_HMMActual","1149","","","","Images/NewTrialBC.png","37"
"image-keyboard-response","468","557053","0.0-4.0-1.149","17","High_HMMActual","null","","","","Images/BlackBeadChoice.png","null"
"image-keyboard-response","469","557757","0.0-4.0-2.149","17","High_HMMActual","null","","","","Images/BlackBeadChoiceCorrect.png","null"
"image-keyboard-response","470","557770","0.0-4.0-0.150","17","High_HMMActual","13","","","","Images/NewTrialBC.png","37"
"image-keyboard-response","471","558179","0.0-4.0-1.150","17","High_HMMActual","null","","","","Images/BlackBeadChoice.png","null"
"image-keyboard-response","472","558882","0.0-4.0-2.150","17","High_HMMActual","null","","","","Images/BlackBeadChoiceWrong.png","null"
"image-keyboard-response","473","559492","0.0-4.0-0.151","17","High_HMMActual","608","","","","Images/NewTrialWC.png","37"
"image-keyboard-response","474","559898","0.0-4.0-1.151","17","High_HMMActual","null","","","","Images/BlackBeadChoice.png","null"
"image-keyboard-response","475","560601","0.0-4.0-2.151","17","High_HMMActual","385","","","","Images/BlackBeadChoiceWrong.png","39"
"image-keyboard-response","476","561310","0.0-4.0-0.152","17","High_HMMActual","707","","","","Images/NewTrialWC.png","39"
"image-keyboard-response","477","561710","0.0-4.0-1.152","17","High_HMMActual","null","","","","Images/WhiteBeadChoice.png","null"
"image-keyboard-response","478","562414","0.0-4.0-2.152","17","High_HMMActual","632","","","","Images/WhiteBeadChoiceWrong.png","39"
"image-keyboard-response","479","563795","0.0-4.0-0.153","17","High_HMMActual","1381","","","","Images/NewTrialBC.png","37"
"image-keyboard-response","480","564211","0.0-4.0-1.153","17","High_HMMActual","null","","","","Images/BlackBeadChoice.png","null"
"image-keyboard-response","481","564914","0.0-4.0-2.153","17","High_HMMActual","null","","","","Images/BlackBeadChoiceWrong.png","null"
"image-keyboard-response","482","565620","0.0-4.0-0.154","17","High_HMMActual","706","","","","Images/NewTrialWC.png","39"
"image-keyboard-response","483","566023","0.0-4.0-1.154","17","High_HMMActual","null","","","","Images/WhiteBeadChoice.png","null"
"image-keyboard-response","484","566726","0.0-4.0-2.154","17","High_HMMActual","437","","","","Images/WhiteBeadChoiceWrong.png","37"
"image-keyboard-response","485","567750","0.0-4.0-0.155","17","High_HMMActual","1023","","","","Images/NewTrialBC.png","39"
"image-keyboard-response","486","568164","0.0-4.0-1.155","17","High_HMMActual","null","","","","Images/WhiteBeadChoice.png","null"
"image-keyboard-response","487","568867","0.0-4.0-2.155","17","High_HMMActual","null","","","","Images/WhiteBeadChoiceCorrect.png","null"
"image-keyboard-response","488","569593","0.0-4.0-0.156","17","High_HMMActual","725","","","","Images/NewTrialWC.png","37"
"image-keyboard-response","489","570008","0.0-4.0-1.156","17","High_HMMActual","null","","","","Images/BlackBeadChoice.png","null"
"image-keyboard-response","490","570711","0.0-4.0-2.156","17","High_HMMActual","null","","","","Images/BlackBeadChoiceCorrect.png","null"
"image-keyboard-response","491","571997","0.0-4.0-0.157","17","High_HMMActual","1284","","","","Images/NewTrialBC.png","39"
"image-keyboard-response","492","572399","0.0-4.0-1.157","17","High_HMMActual","null","","","","Images/WhiteBeadChoice.png","null"
"image-keyboard-response","493","573101","0.0-4.0-2.157","17","High_HMMActual","null","","","","Images/WhiteBeadChoiceCorrect.png","null"
"image-keyboard-response","494","573299","0.0-4.0-0.158","17","High_HMMActual","198","","","","Images/NewTrialWC.png","37"
"image-keyboard-response","495","573711","0.0-4.0-1.158","17","High_HMMActual","null","","","","Images/BlackBeadChoice.png","null"
"image-keyboard-response","496","574415","0.0-4.0-2.158","17","High_HMMActual","null","","","","Images/BlackBeadChoiceCorrect.png","null"
"image-keyboard-response","497","574766","0.0-4.0-0.159","17","High_HMMActual","350","","","","Images/NewTrialBC.png","39"
"image-keyboard-response","498","575180","0.0-4.0-1.159","17","High_HMMActual","null","","","","Images/WhiteBeadChoice.png","null"
"image-keyboard-response","499","575883","0.0-4.0-2.159","17","High_HMMActual","null","","","","Images/WhiteBeadChoiceWrong.png","null"
"image-keyboard-response","500","576323","0.0-4.0-0.160","17","High_HMMActual","438","","","","Images/NewTrialBC.png","39"
"image-keyboard-response","501","576727","0.0-4.0-1.160","17","High_HMMActual","null","","","","Images/WhiteBeadChoice.png","null"
"image-keyboard-response","502","577429","0.0-4.0-2.160","17","High_HMMActual","698","","","","Images/WhiteBeadChoiceWrong.png","39"
"image-keyboard-response","503","578206","0.0-4.0-0.161","17","High_HMMActual","775","","","","Images/NewTrialBC.png","39"
"image-keyboard-response","504","578617","0.0-4.0-1.161","17","High_HMMActual","null","","","","Images/WhiteBeadChoice.png","null"
"image-keyboard-response","505","579322","0.0-4.0-2.161","17","High_HMMActual","null","","","","Images/WhiteBeadChoiceCorrect.png","null"
"image-keyboard-response","506","579492","0.0-4.0-0.162","17","High_HMMActual","169","","","","Images/NewTrialWC.png","37"
"image-keyboard-response","507","579899","0.0-4.0-1.162","17","High_HMMActual","null","","","","Images/BlackBeadChoice.png","null"
"image-keyboard-response","508","580602","0.0-4.0-2.162","17","High_HMMActual","407","","","","Images/BlackBeadChoiceCorrect.png","39"
"image-keyboard-response","509","580912","0.0-4.0-0.163","17","High_HMMActual","309","","","","Images/NewTrialBC.png","39"
"image-keyboard-response","510","581321","0.0-4.0-1.163","17","High_HMMActual","null","","","","Images/WhiteBeadChoice.png","null"
"image-keyboard-response","511","582024","0.0-4.0-2.163","17","High_HMMActual","413","","","","Images/WhiteBeadChoiceCorrect.png","39"
"image-keyboard-response","512","582418","0.0-4.0-0.164","17","High_HMMActual","394","","","","Images/NewTrialWC.png","37"
"image-keyboard-response","513","582821","0.0-4.0-1.164","17","High_HMMActual","null","","","","Images/BlackBeadChoice.png","null"
"image-keyboard-response","514","583524","0.0-4.0-2.164","17","High_HMMActual","506","","","","Images/BlackBeadChoiceCorrect.png","39"
"image-keyboard-response","515","584082","0.0-4.0-0.165","17","High_HMMActual","557","","","","Images/NewTrialBC.png","39"
"image-keyboard-response","516","584492","0.0-4.0-1.165","17","High_HMMActual","null","","","","Images/WhiteBeadChoice.png","null"
"image-keyboard-response","517","585206","0.0-4.0-2.165","17","High_HMMActual","null","","","","Images/WhiteBeadChoiceCorrect.png","null"
"image-keyboard-response","518","585367","0.0-4.0-0.166","17","High_HMMActual","158","","","","Images/NewTrialWC.png","37"
"image-keyboard-response","519","585770","0.0-4.0-1.166","17","High_HMMActual","null","","","","Images/BlackBeadChoice.png","null"
"image-keyboard-response","520","586477","0.0-4.0-2.166","17","High_HMMActual","618","","","","Images/BlackBeadChoiceCorrect.png","39"
"image-keyboard-response","521","587322","0.0-4.0-0.167","17","High_HMMActual","844","","","","Images/NewTrialBC.png","39"
"image-keyboard-response","522","587727","0.0-4.0-1.167","17","High_HMMActual","null","","","","Images/WhiteBeadChoice.png","null"
"image-keyboard-response","523","588448","0.0-4.0-2.167","17","High_HMMActual","508","","","","Images/WhiteBeadChoiceWrong.png","39"
"image-keyboard-response","524","589116","0.0-4.0-0.168","17","High_HMMActual","666","","","","Images/NewTrialBC.png","39"
"image-keyboard-response","525","589523","0.0-4.0-1.168","17","High_HMMActual","null","","","","Images/WhiteBeadChoice.png","null"
"image-keyboard-response","526","590227","0.0-4.0-2.168","17","High_HMMActual","null","","","","Images/WhiteBeadChoiceCorrect.png","null"
"image-keyboard-response","527","590524","0.0-4.0-0.169","17","High_HMMActual","297","","","","Images/NewTrialWC.png","37"
"image-keyboard-response","528","590930","0.0-4.0-1.169","17","High_HMMActual","null","","","","Images/BlackBeadChoice.png","null"
"image-keyboard-response","529","591633","0.0-4.0-2.169","17","High_HMMActual","342","","","","Images/BlackBeadChoiceWrong.png","39"
"image-keyboard-response","530","591834","0.0-4.0-0.170","17","High_HMMActual","199","","","","Images/NewTrialWC.png","39"
"image-keyboard-response","531","592243","0.0-4.0-1.170","17","High_HMMActual","null","","","","Images/WhiteBeadChoice.png","null"
"image-keyboard-response","532","592945","0.0-4.0-2.170","17","High_HMMActual","414","","","","Images/WhiteBeadChoiceWrong.png","39"
"image-keyboard-response","533","593085","0.0-4.0-0.171","17","High_HMMActual","139","","","","Images/NewTrialBC.png","39"
"image-keyboard-response","534","593493","0.0-4.0-1.171","17","High_HMMActual","null","","","","Images/WhiteBeadChoice.png","null"
"image-keyboard-response","535","594197","0.0-4.0-2.171","17","High_HMMActual","null","","","","Images/WhiteBeadChoiceCorrect.png","null"
"image-keyboard-response","536","594678","0.0-4.0-0.172","17","High_HMMActual","481","","","","Images/NewTrialWC.png","39"
"image-keyboard-response","537","595086","0.0-4.0-1.172","17","High_HMMActual","null","","","","Images/WhiteBeadChoice.png","null"
"image-keyboard-response","538","595790","0.0-4.0-2.172","17","High_HMMActual","462","","","","Images/WhiteBeadChoiceCorrect.png","37"
"image-keyboard-response","539","596099","0.0-4.0-0.173","17","High_HMMActual","309","","","","Images/NewTrialWC.png","37"
"image-keyboard-response","540","596508","0.0-4.0-1.173","17","High_HMMActual","null","","","","Images/BlackBeadChoice.png","null"
"image-keyboard-response","541","597212","0.0-4.0-2.173","17","High_HMMActual","483","","","","Images/BlackBeadChoiceWrong.png","37"
"image-keyboard-response","542","597773","0.0-4.0-0.174","17","High_HMMActual","560","","","","Images/NewTrialWC.png","39"
"image-keyboard-response","543","598181","0.0-4.0-1.174","17","High_HMMActual","null","","","","Images/WhiteBeadChoice.png","null"
"image-keyboard-response","544","598884","0.0-4.0-2.174","17","High_HMMActual","null","","","","Images/WhiteBeadChoiceWrong.png","null"
"image-keyboard-response","545","599675","0.0-4.0-0.175","17","High_HMMActual","790","","","","Images/NewTrialBC.png","39"
"image-keyboard-response","546","600087","0.0-4.0-1.175","17","High_HMMActual","null","","","","Images/WhiteBeadChoice.png","null"
"image-keyboard-response","547","600790","0.0-4.0-2.175","17","High_HMMActual","null","","","","Images/WhiteBeadChoiceCorrect.png","null"
"image-keyboard-response","548","601701","0.0-4.0-0.176","17","High_HMMActual","910","","","","Images/NewTrialWC.png","39"
"image-keyboard-response","549","602103","0.0-4.0-1.176","17","High_HMMActual","null","","","","Images/WhiteBeadChoice.png","null"
"image-keyboard-response","550","602806","0.0-4.0-2.176","17","High_HMMActual","458","","","","Images/WhiteBeadChoiceWrong.png","37"
"image-keyboard-response","551","603574","0.0-4.0-0.177","17","High_HMMActual","768","","","","Images/NewTrialBC.png","37"
"image-keyboard-response","552","603978","0.0-4.0-1.177","17","High_HMMActual","null","","","","Images/BlackBeadChoice.png","null"
"image-keyboard-response","553","604681","0.0-4.0-2.177","17","High_HMMActual","422","","","","Images/BlackBeadChoiceWrong.png","39"
"image-keyboard-response","554","605320","0.0-4.0-0.178","17","High_HMMActual","638","","","","Images/NewTrialWC.png","39"
"image-keyboard-response","555","605728","0.0-4.0-1.178","17","High_HMMActual","null","","","","Images/WhiteBeadChoice.png","null"
"image-keyboard-response","556","606431","0.0-4.0-2.178","17","High_HMMActual","687","","","","Images/WhiteBeadChoiceWrong.png","39"
"image-keyboard-response","557","607256","0.0-4.0-0.179","17","High_HMMActual","824","","","","Images/NewTrialBC.png","39"
"image-keyboard-response","558","607667","0.0-4.0-1.179","17","High_HMMActual","null","","","","Images/WhiteBeadChoice.png","null"
"image-keyboard-response","559","608369","0.0-4.0-2.179","17","High_HMMActual","null","","","","Images/WhiteBeadChoiceCorrect.png","null"
"image-keyboard-response","560","609441","0.0-4.0-0.180","17","High_HMMActual","1071","","","","Images/NewTrialWC.png","37"
"image-keyboard-response","561","609853","0.0-4.0-1.180","17","High_HMMActual","null","","","","Images/BlackBeadChoice.png","null"
"image-keyboard-response","562","610556","0.0-4.0-2.180","17","High_HMMActual","385","","","","Images/BlackBeadChoiceCorrect.png","39"
"image-keyboard-response","563","610676","0.0-4.0-0.181","17","High_HMMActual","119","","","","Images/NewTrialBC.png","39"
"image-keyboard-response","564","611087","0.0-4.0-1.181","17","High_HMMActual","null","","","","Images/WhiteBeadChoice.png","null"
"image-keyboard-response","565","611791","0.0-4.0-2.181","17","High_HMMActual","449","","","","Images/WhiteBeadChoiceWrong.png","37"
"image-keyboard-response","566","612632","0.0-4.0-0.182","17","High_HMMActual","840","","","","Images/NewTrialBC.png","39"
"image-keyboard-response","567","613040","0.0-4.0-1.182","17","High_HMMActual","null","","","","Images/WhiteBeadChoice.png","null"
"image-keyboard-response","568","613744","0.0-4.0-2.182","17","High_HMMActual","null","","","","Images/WhiteBeadChoiceCorrect.png","null"
"image-keyboard-response","569","614055","0.0-4.0-0.183","17","High_HMMActual","309","","","","Images/NewTrialWC.png","37"
"image-keyboard-response","570","614462","0.0-4.0-1.183","17","High_HMMActual","null","","","","Images/BlackBeadChoice.png","null"
"image-keyboard-response","571","615166","0.0-4.0-2.183","17","High_HMMActual","null","","","","Images/BlackBeadChoiceWrong.png","null"
"image-keyboard-response","572","615182","0.0-4.0-0.184","17","High_HMMActual","15","","","","Images/NewTrialWC.png","39"
"image-keyboard-response","573","615587","0.0-4.0-1.184","17","High_HMMActual","null","","","","Images/WhiteBeadChoice.png","null"
"image-keyboard-response","574","616291","0.0-4.0-2.184","17","High_HMMActual","null","","","","Images/WhiteBeadChoiceWrong.png","null"
"image-keyboard-response","575","616297","0.0-4.0-0.185","17","High_HMMActual","5","","","","Images/NewTrialBC.png","37"
"image-keyboard-response","576","616713","0.0-4.0-1.185","17","High_HMMActual","null","","","","Images/BlackBeadChoice.png","null"
"image-keyboard-response","577","617417","0.0-4.0-2.185","17","High_HMMActual","562","","","","Images/BlackBeadChoiceCorrect.png","39"
"image-keyboard-response","578","617939","0.0-4.0-0.186","17","High_HMMActual","521","","","","Images/NewTrialBC.png","39"
"image-keyboard-response","579","618353","0.0-4.0-1.186","17","High_HMMActual","null","","","","Images/WhiteBeadChoice.png","null"
"image-keyboard-response","580","619057","0.0-4.0-2.186","17","High_HMMActual","null","","","","Images/WhiteBeadChoiceCorrect.png","null"
"image-keyboard-response","581","619596","0.0-4.0-0.187","17","High_HMMActual","540","","","","Images/NewTrialWC.png","37"
"image-keyboard-response","582","620010","0.0-4.0-1.187","17","High_HMMActual","null","","","","Images/BlackBeadChoice.png","null"
"image-keyboard-response","583","620713","0.0-4.0-2.187","17","High_HMMActual","394","","","","Images/BlackBeadChoiceWrong.png","39"
"image-keyboard-response","584","621083","0.0-4.0-0.188","17","High_HMMActual","369","","","","Images/NewTrialWC.png","39"
"image-keyboard-response","585","621495","0.0-4.0-1.188","17","High_HMMActual","null","","","","Images/WhiteBeadChoice.png","null"
"image-keyboard-response","586","622197","0.0-4.0-2.188","17","High_HMMActual","null","","","","Images/WhiteBeadChoiceCorrect.png","null"
"image-keyboard-response","587","622329","0.0-4.0-0.189","17","High_HMMActual","130","","","","Images/NewTrialWC.png","39"
"image-keyboard-response","588","622745","0.0-4.0-1.189","17","High_HMMActual","null","","","","Images/WhiteBeadChoice.png","null"
"image-keyboard-response","589","623447","0.0-4.0-2.189","17","High_HMMActual","405","","","","Images/WhiteBeadChoiceWrong.png","37"
"image-keyboard-response","590","624128","0.0-4.0-0.190","17","High_HMMActual","680","","","","Images/NewTrialBC.png","37"
"image-keyboard-response","591","624541","0.0-4.0-1.190","17","High_HMMActual","null","","","","Images/BlackBeadChoice.png","null"
"image-keyboard-response","592","625245","0.0-4.0-2.190","17","High_HMMActual","678","","","","Images/BlackBeadChoiceWrong.png","37"
"image-keyboard-response","593","625965","0.0-4.0-0.191","17","High_HMMActual","720","","","","Images/NewTrialWC.png","39"
"image-keyboard-response","594","626369","0.0-4.0-1.191","17","High_HMMActual","null","","","","Images/WhiteBeadChoice.png","null"
"image-keyboard-response","595","627073","0.0-4.0-2.191","17","High_HMMActual","406","","","","Images/WhiteBeadChoiceWrong.png","39"
"image-keyboard-response","596","627480","0.0-4.0-0.192","17","High_HMMActual","406","","","","Images/NewTrialBC.png","37"
"image-keyboard-response","597","627885","0.0-4.0-1.192","17","High_HMMActual","null","","","","Images/BlackBeadChoice.png","null"
"image-keyboard-response","598","628589","0.0-4.0-2.192","17","High_HMMActual","409","","","","Images/BlackBeadChoiceWrong.png","37"
"image-keyboard-response","599","628830","0.0-4.0-0.193","17","High_HMMActual","240","","","","Images/NewTrialWC.png","37"
"image-keyboard-response","600","629245","0.0-4.0-1.193","17","High_HMMActual","null","","","","Images/BlackBeadChoice.png","null"
"image-keyboard-response","601","629948","0.0-4.0-2.193","17","High_HMMActual","366","","","","Images/BlackBeadChoiceCorrect.png","39"
"image-keyboard-response","602","630765","0.0-4.0-0.194","17","High_HMMActual","817","","","","Images/NewTrialBC.png","39"
"image-keyboard-response","603","631167","0.0-4.0-1.194","17","High_HMMActual","null","","","","Images/WhiteBeadChoice.png","null"
"image-keyboard-response","604","631870","0.0-4.0-2.194","17","High_HMMActual","null","","","","Images/WhiteBeadChoiceCorrect.png","null"
"image-keyboard-response","605","632077","0.0-4.0-0.195","17","High_HMMActual","207","","","","Images/NewTrialWC.png","37"
"image-keyboard-response","606","632479","0.0-4.0-1.195","17","High_HMMActual","null","","","","Images/BlackBeadChoice.png","null"
"image-keyboard-response","607","633183","0.0-4.0-2.195","17","High_HMMActual","null","","","","Images/BlackBeadChoiceCorrect.png","null"
"image-keyboard-response","608","633337","0.0-4.0-0.196","17","High_HMMActual","154","","","","Images/NewTrialBC.png","39"
"image-keyboard-response","609","633745","0.0-4.0-1.196","17","High_HMMActual","null","","","","Images/WhiteBeadChoice.png","null"
"image-keyboard-response","610","634448","0.0-4.0-2.196","17","High_HMMActual","null","","","","Images/WhiteBeadChoiceCorrect.png","null"
"image-keyboard-response","611","634716","0.0-4.0-0.197","17","High_HMMActual","267","","","","Images/NewTrialWC.png","37"
"image-keyboard-response","612","635120","0.0-4.0-1.197","17","High_HMMActual","null","","","","Images/BlackBeadChoice.png","null"
"image-keyboard-response","613","635823","0.0-4.0-2.197","17","High_HMMActual","null","","","","Images/BlackBeadChoiceWrong.png","null"
"image-keyboard-response","614","636583","0.0-4.0-0.198","17","High_HMMActual","760","","","","Images/NewTrialWC.png","37"
"image-keyboard-response","615","636996","0.0-4.0-1.198","17","High_HMMActual","null","","","","Images/BlackBeadChoice.png","null"
"image-keyboard-response","616","637699","0.0-4.0-2.198","17","High_HMMActual","456","","","","Images/BlackBeadChoiceWrong.png","39"
"image-keyboard-response","617","638701","0.0-4.0-0.199","17","High_HMMActual","1002","","","","Images/NewTrialWC.png","37"
"image-keyboard-response","618","639105","0.0-4.0-1.199","17","High_HMMActual","null","","","","Images/BlackBeadChoice.png","null"
"image-keyboard-response","619","639807","0.0-4.0-2.199","17","High_HMMActual","418","","","","Images/BlackBeadChoiceCorrect.png","39"
"image-keyboard-response","620","640494","0.0-4.0-0.200","17","High_HMMActual","686","","","","Images/NewTrialBC.png","39"
"image-keyboard-response","621","640902","0.0-4.0-1.200","17","High_HMMActual","null","","","","Images/WhiteBeadChoice.png","null"
"image-keyboard-response","622","641605","0.0-4.0-2.200","17","High_HMMActual","null","","","","Images/WhiteBeadChoiceWrong.png","null"
"image-keyboard-response","623","642079","0.0-4.0-0.201","17","High_HMMActual","473","","","","Images/NewTrialBC.png","39"
"image-keyboard-response","624","642495","0.0-4.0-1.201","17","High_HMMActual","null","","","","Images/WhiteBeadChoice.png","null"
"image-keyboard-response","625","643199","0.0-4.0-2.201","17","High_HMMActual","551","","","","Images/WhiteBeadChoiceWrong.png","39"
"image-keyboard-response","626","643976","0.0-4.0-0.202","17","High_HMMActual","777","","","","Images/NewTrialBC.png","37"
"image-keyboard-response","627","644386","0.0-4.0-1.202","17","High_HMMActual","null","","","","Images/BlackBeadChoice.png","null"
"image-keyboard-response","628","645086","0.0-4.0-2.202","17","High_HMMActual","376","","","","Images/BlackBeadChoiceWrong.png","39"
"image-keyboard-response","629","645373","0.0-4.0-0.203","17","High_HMMActual","286","","","","Images/NewTrialWC.png","39"
"image-keyboard-response","630","645786","0.0-4.0-1.203","17","High_HMMActual","null","","","","Images/WhiteBeadChoice.png","null"
"image-keyboard-response","631","646494","0.0-4.0-2.203","17","High_HMMActual","336","","","","Images/WhiteBeadChoiceWrong.png","39"
"image-keyboard-response","632","646842","0.0-4.0-0.204","17","High_HMMActual","346","","","","Images/NewTrialBC.png","37"
"image-keyboard-response","633","647244","0.0-4.0-1.204","17","High_HMMActual","null","","","","Images/BlackBeadChoice.png","null"
"image-keyboard-response","634","647947","0.0-4.0-2.204","17","High_HMMActual","409","","","","Images/BlackBeadChoiceWrong.png","39"
"image-keyboard-response","635","648292","0.0-4.0-0.205","17","High_HMMActual","345","","","","Images/NewTrialWC.png","39"
"image-keyboard-response","636","648696","0.0-4.0-1.205","17","High_HMMActual","null","","","","Images/WhiteBeadChoice.png","null"
"image-keyboard-response","637","649399","0.0-4.0-2.205","17","High_HMMActual","636","","","","Images/WhiteBeadChoiceWrong.png","39"
"image-keyboard-response","638","650269","0.0-4.0-0.206","17","High_HMMActual","869","","","","Images/NewTrialBC.png","37"
"image-keyboard-response","639","650680","0.0-4.0-1.206","17","High_HMMActual","null","","","","Images/BlackBeadChoice.png","null"
"image-keyboard-response","640","651385","0.0-4.0-2.206","17","High_HMMActual","368","","","","Images/BlackBeadChoiceCorrect.png","39"
"image-keyboard-response","641","651742","0.0-4.0-0.207","17","High_HMMActual","357","","","","Images/NewTrialBC.png","39"
"image-keyboard-response","642","652149","0.0-4.0-1.207","17","High_HMMActual","null","","","","Images/WhiteBeadChoice.png","null"
"image-keyboard-response","643","652852","0.0-4.0-2.207","17","High_HMMActual","458","","","","Images/WhiteBeadChoiceWrong.png","39"
"image-keyboard-response","644","653840","0.0-4.0-0.208","17","High_HMMActual","985","","","","Images/NewTrialBC.png","37"
"image-keyboard-response","645","654245","0.0-4.0-1.208","17","High_HMMActual","null","","","","Images/BlackBeadChoice.png","null"
"image-keyboard-response","646","654947","0.0-4.0-2.208","17","High_HMMActual","null","","","","Images/BlackBeadChoiceWrong.png","null"
"image-keyboard-response","647","655781","0.0-4.0-0.209","17","High_HMMActual","832","","","","Images/NewTrialWC.png","39"
"image-keyboard-response","648","656181","0.0-4.0-1.209","17","High_HMMActual","null","","","","Images/WhiteBeadChoice.png","null"
"image-keyboard-response","649","656884","0.0-4.0-2.209","17","High_HMMActual","416","","","","Images/WhiteBeadChoiceWrong.png","37"
"image-keyboard-response","650","657552","0.0-4.0-0.210","17","High_HMMActual","667","","","","Images/NewTrialBC.png","39"
"image-keyboard-response","651","657962","0.0-4.0-1.210","17","High_HMMActual","null","","","","Images/WhiteBeadChoice.png","null"
"image-keyboard-response","652","658666","0.0-4.0-2.210","17","High_HMMActual","null","","","","Images/WhiteBeadChoiceCorrect.png","null"
"image-keyboard-response","653","658827","0.0-4.0-0.211","17","High_HMMActual","159","","","","Images/NewTrialWC.png","37"
"image-keyboard-response","654","659228","0.0-4.0-1.211","17","High_HMMActual","null","","","","Images/BlackBeadChoice.png","null"
"image-keyboard-response","655","659931","0.0-4.0-2.211","17","High_HMMActual","469","","","","Images/BlackBeadChoiceCorrect.png","39"
"image-keyboard-response","656","660559","0.0-4.0-0.212","17","High_HMMActual","626","","","","Images/NewTrialBC.png","39"
"image-keyboard-response","657","660963","0.0-4.0-1.212","17","High_HMMActual","null","","","","Images/WhiteBeadChoice.png","null"
"image-keyboard-response","658","661672","0.0-4.0-2.212","17","High_HMMActual","514","","","","Images/WhiteBeadChoiceCorrect.png","37"
"image-keyboard-response","659","662216","0.0-4.0-0.213","17","High_HMMActual","544","","","","Images/NewTrialWC.png","37"
"image-keyboard-response","660","662619","0.0-4.0-1.213","17","High_HMMActual","null","","","","Images/BlackBeadChoice.png","null"
"image-keyboard-response","661","663322","0.0-4.0-2.213","17","High_HMMActual","null","","","","Images/BlackBeadChoiceWrong.png","null"
"image-keyboard-response","662","664395","0.0-4.0-0.214","17","High_HMMActual","1073","","","","Images/NewTrialWC.png","37"
"image-keyboard-response","663","664806","0.0-4.0-1.214","17","High_HMMActual","null","","","","Images/BlackBeadChoice.png","null"
"image-keyboard-response","664","665510","0.0-4.0-2.214","17","High_HMMActual","484","","","","Images/BlackBeadChoiceWrong.png","39"
"image-keyboard-response","665","666352","0.0-4.0-0.215","17","High_HMMActual","842","","","","Images/NewTrialWC.png","37"
"image-keyboard-response","666","666760","0.0-4.0-1.215","17","High_HMMActual","null","","","","Images/BlackBeadChoice.png","null"
"image-keyboard-response","667","667463","0.0-4.0-2.215","17","High_HMMActual","null","","","","Images/BlackBeadChoiceCorrect.png","null"
"image-keyboard-response","668","667767","0.0-4.0-0.216","17","High_HMMActual","303","","","","Images/NewTrialBC.png","39"
"image-keyboard-response","669","668182","0.0-4.0-1.216","17","High_HMMActual","null","","","","Images/WhiteBeadChoice.png","null"
"image-keyboard-response","670","668885","0.0-4.0-2.216","17","High_HMMActual","465","","","","Images/WhiteBeadChoiceCorrect.png","37"
"image-keyboard-response","671","669420","0.0-4.0-0.217","17","High_HMMActual","534","","","","Images/NewTrialWC.png","37"
"image-keyboard-response","672","669822","0.0-4.0-1.217","17","High_HMMActual","null","","","","Images/BlackBeadChoice.png","null"
"image-keyboard-response","673","670526","0.0-4.0-2.217","17","High_HMMActual","507","","","","Images/BlackBeadChoiceCorrect.png","39"
"image-keyboard-response","674","670903","0.0-4.0-0.218","17","High_HMMActual","376","","","","Images/NewTrialBC.png","39"
"image-keyboard-response","675","671307","0.0-4.0-1.218","17","High_HMMActual","null","","","","Images/WhiteBeadChoice.png","null"
"image-keyboard-response","676","672010","0.0-4.0-2.218","17","High_HMMActual","null","","","","Images/WhiteBeadChoiceCorrect.png","null"
"image-keyboard-response","677","672457","0.0-4.0-0.219","17","High_HMMActual","446","","","","Images/NewTrialWC.png","37"
"image-keyboard-response","678","672870","0.0-4.0-1.219","17","High_HMMActual","null","","","","Images/BlackBeadChoice.png","null"
"image-keyboard-response","679","673573","0.0-4.0-2.219","17","High_HMMActual","509","","","","Images/BlackBeadChoiceCorrect.png","39"
"image-keyboard-response","680","673947","0.0-4.0-0.220","17","High_HMMActual","373","","","","Images/NewTrialBC.png","39"
"image-keyboard-response","681","674353","0.0-4.0-1.220","17","High_HMMActual","null","","","","Images/WhiteBeadChoice.png","null"
"image-keyboard-response","682","675057","0.0-4.0-2.220","17","High_HMMActual","515","","","","Images/WhiteBeadChoiceWrong.png","39"
"image-keyboard-response","683","675860","0.0-4.0-0.221","17","High_HMMActual","802","","","","Images/NewTrialBC.png","39"
"image-keyboard-response","684","676276","0.0-4.0-1.221","17","High_HMMActual","null","","","","Images/WhiteBeadChoice.png","null"
"image-keyboard-response","685","676979","0.0-4.0-2.221","17","High_HMMActual","null","","","","Images/WhiteBeadChoiceWrong.png","null"
"image-keyboard-response","686","677197","0.0-4.0-0.222","17","High_HMMActual","217","","","","Images/NewTrialBC.png","39"
"image-keyboard-response","687","677604","0.0-4.0-1.222","17","High_HMMActual","null","","","","Images/WhiteBeadChoice.png","null"
"image-keyboard-response","688","678307","0.0-4.0-2.222","17","High_HMMActual","367","","","","Images/WhiteBeadChoiceCorrect.png","37"
"image-keyboard-response","689","678636","0.0-4.0-0.223","17","High_HMMActual","327","","","","Images/NewTrialWC.png","37"
"image-keyboard-response","690","679042","0.0-4.0-1.223","17","High_HMMActual","null","","","","Images/BlackBeadChoice.png","null"
"image-keyboard-response","691","679747","0.0-4.0-2.223","17","High_HMMActual","null","","","","Images/BlackBeadChoiceCorrect.png","null"
"image-keyboard-response","692","679915","0.0-4.0-0.224","17","High_HMMActual","168","","","","Images/NewTrialBC.png","37"
"image-keyboard-response","693","680323","0.0-4.0-1.224","17","High_HMMActual","null","","","","Images/BlackBeadChoice.png","null"
"image-keyboard-response","694","681026","0.0-4.0-2.224","17","High_HMMActual","363","","","","Images/BlackBeadChoiceCorrect.png","39"
"image-keyboard-response","695","681551","0.0-4.0-0.225","17","High_HMMActual","524","","","","Images/NewTrialBC.png","39"
"image-keyboard-response","696","681964","0.0-4.0-1.225","17","High_HMMActual","null","","","","Images/WhiteBeadChoice.png","null"
"image-keyboard-response","697","682667","0.0-4.0-2.225","17","High_HMMActual","490","","","","Images/WhiteBeadChoiceWrong.png","39"
"image-keyboard-response","698","683899","0.0-4.0-0.226","17","High_HMMActual","1231","","","","Images/NewTrialBC.png","39"
"image-keyboard-response","699","684307","0.0-4.0-1.226","17","High_HMMActual","null","","","","Images/WhiteBeadChoice.png","null"
"image-keyboard-response","700","685011","0.0-4.0-2.226","17","High_HMMActual","null","","","","Images/WhiteBeadChoiceWrong.png","null"
"image-keyboard-response","701","685659","0.0-4.0-0.227","17","High_HMMActual","647","","","","Images/NewTrialBC.png","39"
"image-keyboard-response","702","686074","0.0-4.0-1.227","17","High_HMMActual","null","","","","Images/WhiteBeadChoice.png","null"
"image-keyboard-response","703","686777","0.0-4.0-2.227","17","High_HMMActual","null","","","","Images/WhiteBeadChoiceCorrect.png","null"
"image-keyboard-response","704","687310","0.0-4.0-0.228","17","High_HMMActual","533","","","","Images/NewTrialWC.png","37"
"image-keyboard-response","705","687714","0.0-4.0-1.228","17","High_HMMActual","null","","","","Images/BlackBeadChoice.png","null"
"image-keyboard-response","706","688417","0.0-4.0-2.228","17","High_HMMActual","371","","","","Images/BlackBeadChoiceCorrect.png","39"
"image-keyboard-response","707","688804","0.0-4.0-0.229","17","High_HMMActual","386","","","","Images/NewTrialBC.png","39"
"image-keyboard-response","708","689214","0.0-4.0-1.229","17","High_HMMActual","null","","","","Images/WhiteBeadChoice.png","null"
"image-keyboard-response","709","689917","0.0-4.0-2.229","17","High_HMMActual","null","","","","Images/WhiteBeadChoiceWrong.png","null"
"image-keyboard-response","710","690036","0.0-4.0-0.230","17","High_HMMActual","118","","","","Images/NewTrialBC.png","39"
"image-keyboard-response","711","690449","0.0-4.0-1.230","17","High_HMMActual","null","","","","Images/WhiteBeadChoice.png","null"
"image-keyboard-response","712","691152","0.0-4.0-2.230","17","High_HMMActual","null","","","","Images/WhiteBeadChoiceCorrect.png","null"
"image-keyboard-response","713","691171","0.0-4.0-0.231","17","High_HMMActual","19","","","","Images/NewTrialWC.png","39"
"image-keyboard-response","714","691574","0.0-4.0-1.231","17","High_HMMActual","null","","","","Images/WhiteBeadChoice.png","null"
"image-keyboard-response","715","692276","0.0-4.0-2.231","17","High_HMMActual","434","","","","Images/WhiteBeadChoiceWrong.png","39"
"image-keyboard-response","716","692816","0.0-4.0-0.232","17","High_HMMActual","539","","","","Images/NewTrialBC.png","37"
"image-keyboard-response","717","693230","0.0-4.0-1.232","17","High_HMMActual","null","","","","Images/BlackBeadChoice.png","null"
"image-keyboard-response","718","693933","0.0-4.0-2.232","17","High_HMMActual","347","","","","Images/BlackBeadChoiceWrong.png","39"
"image-keyboard-response","719","694048","0.0-4.0-0.233","17","High_HMMActual","113","","","","Images/NewTrialWC.png","39"
"image-keyboard-response","720","694449","0.0-4.0-1.233","17","High_HMMActual","null","","","","Images/WhiteBeadChoice.png","null"
"image-keyboard-response","721","695152","0.0-4.0-2.233","17","High_HMMActual","null","","","","Images/WhiteBeadChoiceWrong.png","null"
"image-keyboard-response","722","696023","0.0-4.0-0.234","17","High_HMMActual","869","","","","Images/NewTrialBC.png","39"
"image-keyboard-response","723","696433","0.0-4.0-1.234","17","High_HMMActual","null","","","","Images/WhiteBeadChoice.png","null"
"image-keyboard-response","724","697136","0.0-4.0-2.234","17","High_HMMActual","null","","","","Images/WhiteBeadChoiceWrong.png","null"
"image-keyboard-response","725","697360","0.0-4.0-0.235","17","High_HMMActual","223","","","","Images/NewTrialBC.png","39"
"image-keyboard-response","726","697762","0.0-4.0-1.235","17","High_HMMActual","null","","","","Images/WhiteBeadChoice.png","null"
"image-keyboard-response","727","698465","0.0-4.0-2.235","17","High_HMMActual","457","","","","Images/WhiteBeadChoiceWrong.png","39"
"image-keyboard-response","728","699560","0.0-4.0-0.236","17","High_HMMActual","1093","","","","Images/NewTrialBC.png","39"
"image-keyboard-response","729","699965","0.0-4.0-1.236","17","High_HMMActual","null","","","","Images/WhiteBeadChoice.png","null"
"image-keyboard-response","730","700668","0.0-4.0-2.236","17","High_HMMActual","343","","","","Images/WhiteBeadChoiceCorrect.png","37"
"image-keyboard-response","731","701255","0.0-4.0-0.237","17","High_HMMActual","585","","","","Images/NewTrialWC.png","37"
"image-keyboard-response","732","701669","0.0-4.0-1.237","17","High_HMMActual","null","","","","Images/BlackBeadChoice.png","null"
"image-keyboard-response","733","702371","0.0-4.0-2.237","17","High_HMMActual","null","","","","Images/BlackBeadChoiceWrong.png","null"
"image-keyboard-response","734","702789","0.0-4.0-0.238","17","High_HMMActual","417","","","","Images/NewTrialWC.png","39"
"image-keyboard-response","735","703200","0.0-4.0-1.238","17","High_HMMActual","null","","","","Images/WhiteBeadChoice.png","null"
"image-keyboard-response","736","703902","0.0-4.0-2.238","17","High_HMMActual","462","","","","Images/WhiteBeadChoiceCorrect.png","37"
"image-keyboard-response","737","704532","0.0-4.0-0.239","17","High_HMMActual","630","","","","Images/NewTrialWC.png","37"
"image-keyboard-response","738","704933","0.0-4.0-1.239","17","High_HMMActual","null","","","","Images/BlackBeadChoice.png","null"
"image-keyboard-response","739","705644","0.0-4.0-2.239","17","High_HMMActual","null","","","","Images/BlackBeadChoiceCorrect.png","null"
"image-keyboard-response","740","705851","0.0-4.0-0.240","17","High_HMMActual","205","","","","Images/NewTrialBC.png","39"
"image-keyboard-response","741","706258","0.0-4.0-1.240","17","High_HMMActual","null","","","","Images/WhiteBeadChoice.png","null"
"image-keyboard-response","742","706959","0.0-4.0-2.240","17","High_HMMActual","null","","","","Images/WhiteBeadChoiceCorrect.png","null"
"image-keyboard-response","743","709279","0.0-4.0-0.241","17","High_HMMActual","2318","","","","Images/NewTrialWC.png","37"
"image-keyboard-response","744","709682","0.0-4.0-1.241","17","High_HMMActual","null","","","","Images/BlackBeadChoice.png","null"
"image-keyboard-response","745","710385","0.0-4.0-2.241","17","High_HMMActual","null","","","","Images/BlackBeadChoiceCorrect.png","null"
