"trial_type","trial_index","time_elapsed","internal_node_id","Script_Picker","Block_Type","rt","url","responses","question_order","stimulus","key_press"
"pavlovia","0","2","0.0-0.0","11","Low_HMMActual","","","","","",""
"external-html","1","43479","0.0-1.0-0.0","11","Low_HMMActual","43423.019999987446","consent.html","","","",""
"survey-multi-choice","2","49643","0.0-1.0-1.0","11","Low_HMMActual","6161.389999993844","","{""Q0"":""Male"",""Q1"":""White""}","[0,1]","",""
"survey-text","3","52070","0.0-1.0-2.0","11","Low_HMMActual","2423.6699999892153","","{""Q0"":""22""}","","",""
"survey-text","4","56881","0.0-1.0-3.0","11","Low_HMMActual","4708.364999998594","","{""Q0"":""5ec7ff70dab57428fee5d0a2""}","","",""
"html-keyboard-response","5","93236","0.0-2.0-0.0","11","Low_HMMActual","36253.05999998818","","","","<div class=""container"" style=""height:800px;width:800px;display:flex;flex-direction:column;justify-content:center;align-items:center;text-align:center;font-weight:normal;font-family:Arial;font-size:20px""><p>In this task you will see black or white beads being pulled from jars. <br><br>On each trial, a bead will be pulled from one of two jars. Once you see this bead, your goal is to predict the color of NEXT bead that will be pulled. <br> <br>Every time you correctly guess the color of the NEXT bead, you will get a point. <br><br>Press the SPACEBAR to continue.</p><div>","32"
"html-keyboard-response","6","99755","0.0-2.0-1.0","11","Low_HMMActual","6517.999999981839","","","","<div class=""container"" style=""height:800px;width:800px;display:flex;flex-direction:column;justify-content:center;align-items:center;text-align:center;font-weight:normal;font-family:Arial;font-size:20px""><p>Jars are filled with 80% white or black beads and 20% of the opposite color mixed in.<br><br>Press the SPACEBAR to continue. </p><div>","32"
"image-keyboard-response","7","107955","0.0-2.0-2.0","11","Low_HMMActual","8198.679999972228","","","","resources/WhiteJar_HMM.png","32"
"image-keyboard-response","8","108645","0.0-2.0-3.0","11","Low_HMMActual","689.0600000042468","","","","resources/BlackJar_HMM.png","32"
"html-keyboard-response","9","114316","0.0-2.0-4.0","11","Low_HMMActual","5670.955000008689","","","","<div class=""container"" style=""height:800px;width:800px;display:flex;flex-direction:column;justify-content:center;align-items:center;text-align:center;font-weight:normal;font-family:Arial;font-size:20px""><p>There will be two blocks of trials. Each block will contain 500 trials. <br><br>Here are examples of what you will see on each trial.<br><br>Press the SPACEBAR to continue. </p><div>","32"
"image-keyboard-response","10","120726","0.0-2.0-5.0","11","Low_HMMActual","6408.46999999485","","","","Images/NoChoice.png","32"
"html-keyboard-response","11","231327","0.0-2.0-6.0","11","Low_HMMActual","110601.23000000021","","","","<div class=""container"" style=""height:800px;width:800px;display:flex;flex-direction:column;justify-content:center;align-items:center;text-align:center;font-weight:normal;font-family:Arial;font-size:20px""><p> The jar the beads are pulled from is NOT choosen at random on each trial.<br><br>After each prediction, there will be a chance that the jars will switch, and that the next bead will be pulled from the opposite jar as the previous trial.<br><br>In each block, the chance that a jar will switch will either be LOW (the jars will not switch very often), or HIGH (the jars will switch almost all the time).<br><br>At the start of each block, you will be told the probability that the jars will switch on each trial. This switch probability will stay constant throughout the block.<br><br>We will now show you some examples of beads being drawn from jars. The bead will appear in the middle of the screen, and the jar the bead was pulled from will be indicated with a black rectangle.<br><br>Press the SPACEBAR to continue. </p><div>","32"
"image-keyboard-response","12","236337","0.0-2.0-7.0","11","Low_HMMActual","5008.695000025909","","","","Images/TutorialWhiteJarDrawHMMC.png","32"
"image-keyboard-response","13","243017","0.0-2.0-8.0","11","Low_HMMActual","6679.280000011204","","","","Images/TutorialBlackJarDrawHMMC.png","32"
"image-keyboard-response","14","246218","0.0-2.0-9.0","11","Low_HMMActual","3200.4350000061095","","","","Images/TutorialBlackJarDrawHMMI.png","32"
"html-keyboard-response","15","336770","0.0-2.0-10.0","11","Low_HMMActual","90551.04500000016","","","","<div class=""container"" style=""height:800px;width:800px;display:flex;flex-direction:column;justify-content:center;align-items:center;text-align:center;font-weight:normal;font-family:Arial;font-size:20px""><p> As you observed, a white bead was pulled from a 80% white jar, the jars switched and a black bead was pulled from the 80% black jar, but then a low-probability white bead was pulled from the 80% black jar. <br><br>Because the jars have a mix of white and black beads, the best strategy to predict the next bead is to first figure out which jar the current bead was pulled from, then use the jar switch probability to predict which jar will be drawn from next.<br><br>Press SPACEBAR to conitnue.</p><div>","32"
"html-keyboard-response","16","339339","0.0-2.0-11.0","11","Low_HMMActual","2569.160000013653","","","","<div class=""container"" style=""height:800px;width:800px;display:flex;flex-direction:column;justify-content:center;align-items:center;text-align:center;font-weight:normal;font-family:Arial;font-size:20px""><p> You will now be given a 2 question quiz to make sure you understand the task. </p><div>","32"
"image-keyboard-response","17","347010","0.0-2.0-12.0","11","Low_HMMActual","7669.4100000022445","","","","Images/TutorialQuestion1.png","39"
"image-keyboard-response","18","354759","0.0-2.0-13.0","11","Low_HMMActual","5837.52000000095","","","","Images/TutorialQuestion2.png","38"
"html-keyboard-response","19","388641","0.0-3.0","11","Low_HMMActual","32066.354999988107","","","","<div class=""container"" style=""height:800px;width:800px;display:flex;flex-direction:column;justify-content:center;align-items:center;text-align:center;font-weight:normal;font-family:Arial;font-size:20px""><p>Loading episode&hellip;</p><div>","32"
"image-keyboard-response","20","390810","0.0-4.0-0.0","11","Low_HMMActual","2167.730000015581","","","","Images/NoChoice.png","37"
"image-keyboard-response","21","391212","0.0-4.0-1.0","11","Low_HMMActual","null","","","","Images/BlackBeadChoice.png","null"
"image-keyboard-response","22","391913","0.0-4.0-2.0","11","Low_HMMActual","null","","","","Images/BlackBeadChoiceWrong.png","null"
"image-keyboard-response","23","393760","0.0-4.0-0.1","11","Low_HMMActual","1846.5649999852758","","","","Images/NewTrialWC.png","37"
"image-keyboard-response","24","394162","0.0-4.0-1.1","11","Low_HMMActual","null","","","","Images/BlackBeadChoice.png","null"
"image-keyboard-response","25","394864","0.0-4.0-2.1","11","Low_HMMActual","null","","","","Images/BlackBeadChoiceWrong.png","null"
"image-keyboard-response","26","395881","0.0-4.0-0.2","11","Low_HMMActual","1015.5000000086147","","","","Images/NewTrialWC.png","39"
"image-keyboard-response","27","396282","0.0-4.0-1.2","11","Low_HMMActual","null","","","","Images/WhiteBeadChoice.png","null"
"image-keyboard-response","28","396983","0.0-4.0-2.2","11","Low_HMMActual","null","","","","Images/WhiteBeadChoiceCorrect.png","null"
"image-keyboard-response","29","400312","0.0-4.0-0.3","11","Low_HMMActual","3327.1349999995437","","","","Images/NewTrialWC.png","39"
"image-keyboard-response","30","400714","0.0-4.0-1.3","11","Low_HMMActual","null","","","","Images/WhiteBeadChoice.png","null"
"image-keyboard-response","31","401416","0.0-4.0-2.3","11","Low_HMMActual","null","","","","Images/WhiteBeadChoiceWrong.png","null"
"image-keyboard-response","32","403241","0.0-4.0-0.4","11","Low_HMMActual","1824.6799999906216","","","","Images/NewTrialBC.png","37"
"image-keyboard-response","33","403642","0.0-4.0-1.4","11","Low_HMMActual","null","","","","Images/BlackBeadChoice.png","null"
"image-keyboard-response","34","404344","0.0-4.0-2.4","11","Low_HMMActual","null","","","","Images/BlackBeadChoiceWrong.png","null"
"image-keyboard-response","35","405031","0.0-4.0-0.5","11","Low_HMMActual","685.5550000036601","","","","Images/NewTrialWC.png","39"
"image-keyboard-response","36","405432","0.0-4.0-1.5","11","Low_HMMActual","null","","","","Images/WhiteBeadChoice.png","null"
"image-keyboard-response","37","406134","0.0-4.0-2.5","11","Low_HMMActual","null","","","","Images/WhiteBeadChoiceWrong.png","null"
"image-keyboard-response","38","406251","0.0-4.0-0.6","11","Low_HMMActual","116.06000000028871","","","","Images/NewTrialBC.png","37"
"image-keyboard-response","39","406652","0.0-4.0-1.6","11","Low_HMMActual","null","","","","Images/BlackBeadChoice.png","null"
"image-keyboard-response","40","407353","0.0-4.0-2.6","11","Low_HMMActual","618.2649999973364","","","","Images/BlackBeadChoiceCorrect.png","37"
"image-keyboard-response","41","407761","0.0-4.0-0.7","11","Low_HMMActual","406.75500000361353","","","","Images/NewTrialBC.png","37"
"image-keyboard-response","42","408162","0.0-4.0-1.7","11","Low_HMMActual","null","","","","Images/BlackBeadChoice.png","null"
"image-keyboard-response","43","408863","0.0-4.0-2.7","11","Low_HMMActual","null","","","","Images/BlackBeadChoiceCorrect.png","null"
"image-keyboard-response","44","420611","0.0-4.0-0.8","11","Low_HMMActual","11747.380000015255","","","","Images/NewTrialBC.png","37"
"image-keyboard-response","45","421014","0.0-4.0-1.8","11","Low_HMMActual","null","","","","Images/BlackBeadChoice.png","null"
"image-keyboard-response","46","421715","0.0-4.0-2.8","11","Low_HMMActual","null","","","","Images/BlackBeadChoiceCorrect.png","null"
"image-keyboard-response","47","422441","0.0-4.0-0.9","11","Low_HMMActual","724.6349999913946","","","","Images/NewTrialBC.png","37"
"image-keyboard-response","48","422842","0.0-4.0-1.9","11","Low_HMMActual","null","","","","Images/BlackBeadChoice.png","null"
"image-keyboard-response","49","423543","0.0-4.0-2.9","11","Low_HMMActual","null","","","","Images/BlackBeadChoiceCorrect.png","null"
"image-keyboard-response","50","425241","0.0-4.0-0.10","11","Low_HMMActual","1696.8049999850336","","","","Images/NewTrialBC.png","37"
"image-keyboard-response","51","425642","0.0-4.0-1.10","11","Low_HMMActual","null","","","","Images/BlackBeadChoice.png","null"
"image-keyboard-response","52","426344","0.0-4.0-2.10","11","Low_HMMActual","null","","","","Images/BlackBeadChoiceWrong.png","null"
"image-keyboard-response","53","426721","0.0-4.0-0.11","11","Low_HMMActual","376.3749999925494","","","","Images/NewTrialWC.png","39"
"image-keyboard-response","54","427122","0.0-4.0-1.11","11","Low_HMMActual","null","","","","Images/WhiteBeadChoice.png","null"
"image-keyboard-response","55","427824","0.0-4.0-2.11","11","Low_HMMActual","null","","","","Images/WhiteBeadChoiceWrong.png","null"
"image-keyboard-response","56","428181","0.0-4.0-0.12","11","Low_HMMActual","355.34999999799766","","","","Images/NewTrialBC.png","37"
"image-keyboard-response","57","428582","0.0-4.0-1.12","11","Low_HMMActual","null","","","","Images/BlackBeadChoice.png","null"
"image-keyboard-response","58","429284","0.0-4.0-2.12","11","Low_HMMActual","null","","","","Images/BlackBeadChoiceCorrect.png","null"
"image-keyboard-response","59","430341","0.0-4.0-0.13","11","Low_HMMActual","1056.1499999894295","","","","Images/NewTrialBC.png","37"
"image-keyboard-response","60","430743","0.0-4.0-1.13","11","Low_HMMActual","null","","","","Images/BlackBeadChoice.png","null"
"image-keyboard-response","61","431444","0.0-4.0-2.13","11","Low_HMMActual","null","","","","Images/BlackBeadChoiceCorrect.png","null"
"image-keyboard-response","62","432561","0.0-4.0-0.14","11","Low_HMMActual","1115.7050000037998","","","","Images/NewTrialBC.png","37"
"image-keyboard-response","63","432963","0.0-4.0-1.14","11","Low_HMMActual","null","","","","Images/BlackBeadChoice.png","null"
"image-keyboard-response","64","433665","0.0-4.0-2.14","11","Low_HMMActual","null","","","","Images/BlackBeadChoiceWrong.png","null"
"image-keyboard-response","65","434151","0.0-4.0-0.15","11","Low_HMMActual","485.29000001144595","","","","Images/NewTrialWC.png","39"
"image-keyboard-response","66","434552","0.0-4.0-1.15","11","Low_HMMActual","null","","","","Images/WhiteBeadChoice.png","null"
"image-keyboard-response","67","435255","0.0-4.0-2.15","11","Low_HMMActual","null","","","","Images/WhiteBeadChoiceWrong.png","null"
"image-keyboard-response","68","435581","0.0-4.0-0.16","11","Low_HMMActual","325.11500001419336","","","","Images/NewTrialBC.png","37"
"image-keyboard-response","69","435982","0.0-4.0-1.16","11","Low_HMMActual","null","","","","Images/BlackBeadChoice.png","null"
"image-keyboard-response","70","436685","0.0-4.0-2.16","11","Low_HMMActual","null","","","","Images/BlackBeadChoiceCorrect.png","null"
"image-keyboard-response","71","438202","0.0-4.0-0.17","11","Low_HMMActual","1516.089999990072","","","","Images/NewTrialBC.png","39"
"image-keyboard-response","72","438603","0.0-4.0-1.17","11","Low_HMMActual","null","","","","Images/WhiteBeadChoice.png","null"
"image-keyboard-response","73","439305","0.0-4.0-2.17","11","Low_HMMActual","null","","","","Images/WhiteBeadChoiceWrong.png","null"
"image-keyboard-response","74","439521","0.0-4.0-0.18","11","Low_HMMActual","214.97999998973683","","","","Images/NewTrialBC.png","39"
"image-keyboard-response","75","439923","0.0-4.0-1.18","11","Low_HMMActual","null","","","","Images/WhiteBeadChoice.png","null"
"image-keyboard-response","76","440624","0.0-4.0-2.18","11","Low_HMMActual","null","","","","Images/WhiteBeadChoiceWrong.png","null"
"image-keyboard-response","77","440862","0.0-4.0-0.19","11","Low_HMMActual","236.93499999353662","","","","Images/NewTrialBC.png","39"
"image-keyboard-response","78","441263","0.0-4.0-1.19","11","Low_HMMActual","null","","","","Images/WhiteBeadChoice.png","null"
"image-keyboard-response","79","441964","0.0-4.0-2.19","11","Low_HMMActual","null","","","","Images/WhiteBeadChoiceCorrect.png","null"
"image-keyboard-response","80","445902","0.0-4.0-0.20","11","Low_HMMActual","3935.399999987567","","","","Images/NewTrialWC.png","39"
"image-keyboard-response","81","446304","0.0-4.0-1.20","11","Low_HMMActual","null","","","","Images/WhiteBeadChoice.png","null"
"image-keyboard-response","82","447007","0.0-4.0-2.20","11","Low_HMMActual","null","","","","Images/WhiteBeadChoiceWrong.png","null"
"image-keyboard-response","83","447242","0.0-4.0-0.21","11","Low_HMMActual","234.12000000826083","","","","Images/NewTrialBC.png","39"
"image-keyboard-response","84","447643","0.0-4.0-1.21","11","Low_HMMActual","null","","","","Images/WhiteBeadChoice.png","null"
"image-keyboard-response","85","448346","0.0-4.0-2.21","11","Low_HMMActual","607.9000000027008","","","","Images/WhiteBeadChoiceCorrect.png","39"
"image-keyboard-response","86","448742","0.0-4.0-0.22","11","Low_HMMActual","395.13999997870997","","","","Images/NewTrialWC.png","37"
"image-keyboard-response","87","449144","0.0-4.0-1.22","11","Low_HMMActual","null","","","","Images/BlackBeadChoice.png","null"
"image-keyboard-response","88","449846","0.0-4.0-2.22","11","Low_HMMActual","627.3599999840371","","","","Images/BlackBeadChoiceCorrect.png","39"
"image-keyboard-response","89","450182","0.0-4.0-0.23","11","Low_HMMActual","335.13500000117347","","","","Images/NewTrialBC.png","39"
"image-keyboard-response","90","450583","0.0-4.0-1.23","11","Low_HMMActual","null","","","","Images/WhiteBeadChoice.png","null"
"image-keyboard-response","91","451285","0.0-4.0-2.23","11","Low_HMMActual","null","","","","Images/WhiteBeadChoiceWrong.png","null"
"image-keyboard-response","92","451502","0.0-4.0-0.24","11","Low_HMMActual","215.80499998526648","","","","Images/NewTrialBC.png","39"
"image-keyboard-response","93","451904","0.0-4.0-1.24","11","Low_HMMActual","null","","","","Images/WhiteBeadChoice.png","null"
"image-keyboard-response","94","452606","0.0-4.0-2.24","11","Low_HMMActual","null","","","","Images/WhiteBeadChoiceWrong.png","null"
"image-keyboard-response","95","452852","0.0-4.0-0.25","11","Low_HMMActual","245.58500002603978","","","","Images/NewTrialBC.png","39"
"image-keyboard-response","96","453253","0.0-4.0-1.25","11","Low_HMMActual","null","","","","Images/WhiteBeadChoice.png","null"
"image-keyboard-response","97","453954","0.0-4.0-2.25","11","Low_HMMActual","null","","","","Images/WhiteBeadChoiceWrong.png","null"
"image-keyboard-response","98","454412","0.0-4.0-0.26","11","Low_HMMActual","456.92500000586733","","","","Images/NewTrialBC.png","39"
"image-keyboard-response","99","454814","0.0-4.0-1.26","11","Low_HMMActual","null","","","","Images/WhiteBeadChoice.png","null"
"image-keyboard-response","100","455516","0.0-4.0-2.26","11","Low_HMMActual","null","","","","Images/WhiteBeadChoiceWrong.png","null"
"image-keyboard-response","101","455812","0.0-4.0-0.27","11","Low_HMMActual","295.42000000947155","","","","Images/NewTrialBC.png","39"
"image-keyboard-response","102","456214","0.0-4.0-1.27","11","Low_HMMActual","null","","","","Images/WhiteBeadChoice.png","null"
"image-keyboard-response","103","456916","0.0-4.0-2.27","11","Low_HMMActual","null","","","","Images/WhiteBeadChoiceWrong.png","null"
"image-keyboard-response","104","457142","0.0-4.0-0.28","11","Low_HMMActual","225.44499998912215","","","","Images/NewTrialBC.png","39"
"image-keyboard-response","105","457544","0.0-4.0-1.28","11","Low_HMMActual","null","","","","Images/WhiteBeadChoice.png","null"
"image-keyboard-response","106","458245","0.0-4.0-2.28","11","Low_HMMActual","null","","","","Images/WhiteBeadChoiceWrong.png","null"
"image-keyboard-response","107","458452","0.0-4.0-0.29","11","Low_HMMActual","205.46999998623505","","","","Images/NewTrialBC.png","39"
"image-keyboard-response","108","458853","0.0-4.0-1.29","11","Low_HMMActual","null","","","","Images/WhiteBeadChoice.png","null"
"image-keyboard-response","109","459555","0.0-4.0-2.29","11","Low_HMMActual","null","","","","Images/WhiteBeadChoiceWrong.png","null"
"image-keyboard-response","110","459802","0.0-4.0-0.30","11","Low_HMMActual","245.43999999877997","","","","Images/NewTrialBC.png","39"
"image-keyboard-response","111","460203","0.0-4.0-1.30","11","Low_HMMActual","null","","","","Images/WhiteBeadChoice.png","null"
"image-keyboard-response","112","460905","0.0-4.0-2.30","11","Low_HMMActual","647.6050000055693","","","","Images/WhiteBeadChoiceCorrect.png","39"
"image-keyboard-response","113","461222","0.0-4.0-0.31","11","Low_HMMActual","316.02999998722225","","","","Images/NewTrialWC.png","37"
"image-keyboard-response","114","461623","0.0-4.0-1.31","11","Low_HMMActual","null","","","","Images/BlackBeadChoice.png","null"
"image-keyboard-response","115","462324","0.0-4.0-2.31","11","Low_HMMActual","null","","","","Images/BlackBeadChoiceWrong.png","null"
"image-keyboard-response","116","462872","0.0-4.0-0.32","11","Low_HMMActual","546.8000000109896","","","","Images/NewTrialWC.png","37"
"image-keyboard-response","117","463273","0.0-4.0-1.32","11","Low_HMMActual","null","","","","Images/BlackBeadChoice.png","null"
"image-keyboard-response","118","463975","0.0-4.0-2.32","11","Low_HMMActual","null","","","","Images/BlackBeadChoiceCorrect.png","null"
"image-keyboard-response","119","464242","0.0-4.0-0.33","11","Low_HMMActual","266.48000002023764","","","","Images/NewTrialBC.png","39"
"image-keyboard-response","120","464643","0.0-4.0-1.33","11","Low_HMMActual","null","","","","Images/WhiteBeadChoice.png","null"
"image-keyboard-response","121","465345","0.0-4.0-2.33","11","Low_HMMActual","null","","","","Images/WhiteBeadChoiceWrong.png","null"
"image-keyboard-response","122","465962","0.0-4.0-0.34","11","Low_HMMActual","615.5999999900814","","","","Images/NewTrialBC.png","39"
"image-keyboard-response","123","466364","0.0-4.0-1.34","11","Low_HMMActual","null","","","","Images/WhiteBeadChoice.png","null"
"image-keyboard-response","124","467066","0.0-4.0-2.34","11","Low_HMMActual","null","","","","Images/WhiteBeadChoiceCorrect.png","null"
"image-keyboard-response","125","467222","0.0-4.0-0.35","11","Low_HMMActual","154.53500000876375","","","","Images/NewTrialWC.png","37"
"image-keyboard-response","126","467623","0.0-4.0-1.35","11","Low_HMMActual","null","","","","Images/BlackBeadChoice.png","null"
"image-keyboard-response","127","468325","0.0-4.0-2.35","11","Low_HMMActual","null","","","","Images/BlackBeadChoiceCorrect.png","null"
"image-keyboard-response","128","469242","0.0-4.0-0.36","11","Low_HMMActual","916.1599999933969","","","","Images/NewTrialBC.png","39"
"image-keyboard-response","129","469643","0.0-4.0-1.36","11","Low_HMMActual","null","","","","Images/WhiteBeadChoice.png","null"
"image-keyboard-response","130","470345","0.0-4.0-2.36","11","Low_HMMActual","null","","","","Images/WhiteBeadChoiceWrong.png","null"
"image-keyboard-response","131","470562","0.0-4.0-0.37","11","Low_HMMActual","215.72999999625608","","","","Images/NewTrialBC.png","39"
"image-keyboard-response","132","470963","0.0-4.0-1.37","11","Low_HMMActual","null","","","","Images/WhiteBeadChoice.png","null"
"image-keyboard-response","133","471664","0.0-4.0-2.37","11","Low_HMMActual","null","","","","Images/WhiteBeadChoiceCorrect.png","null"
"image-keyboard-response","134","471932","0.0-4.0-0.38","11","Low_HMMActual","266.6299999982584","","","","Images/NewTrialWC.png","37"
"image-keyboard-response","135","472333","0.0-4.0-1.38","11","Low_HMMActual","null","","","","Images/BlackBeadChoice.png","null"
"image-keyboard-response","136","473035","0.0-4.0-2.38","11","Low_HMMActual","null","","","","Images/BlackBeadChoiceCorrect.png","null"
"image-keyboard-response","137","473342","0.0-4.0-0.39","11","Low_HMMActual","306.17500000516884","","","","Images/NewTrialBC.png","39"
"image-keyboard-response","138","473743","0.0-4.0-1.39","11","Low_HMMActual","null","","","","Images/WhiteBeadChoice.png","null"
"image-keyboard-response","139","474445","0.0-4.0-2.39","11","Low_HMMActual","null","","","","Images/WhiteBeadChoiceWrong.png","null"
"image-keyboard-response","140","474652","0.0-4.0-0.40","11","Low_HMMActual","206.22500000172295","","","","Images/NewTrialBC.png","39"
"image-keyboard-response","141","475054","0.0-4.0-1.40","11","Low_HMMActual","null","","","","Images/WhiteBeadChoice.png","null"
"image-keyboard-response","142","475756","0.0-4.0-2.40","11","Low_HMMActual","null","","","","Images/WhiteBeadChoiceWrong.png","null"
"image-keyboard-response","143","475912","0.0-4.0-0.41","11","Low_HMMActual","154.55999999539927","","","","Images/NewTrialBC.png","39"
"image-keyboard-response","144","476313","0.0-4.0-1.41","11","Low_HMMActual","null","","","","Images/WhiteBeadChoice.png","null"
"image-keyboard-response","145","477014","0.0-4.0-2.41","11","Low_HMMActual","null","","","","Images/WhiteBeadChoiceWrong.png","null"
"image-keyboard-response","146","477372","0.0-4.0-0.42","11","Low_HMMActual","357.1650000230875","","","","Images/NewTrialBC.png","39"
"image-keyboard-response","147","477773","0.0-4.0-1.42","11","Low_HMMActual","null","","","","Images/WhiteBeadChoice.png","null"
"image-keyboard-response","148","478475","0.0-4.0-2.42","11","Low_HMMActual","null","","","","Images/WhiteBeadChoiceWrong.png","null"
"image-keyboard-response","149","478722","0.0-4.0-0.43","11","Low_HMMActual","246.05000001611188","","","","Images/NewTrialBC.png","39"
"image-keyboard-response","150","479124","0.0-4.0-1.43","11","Low_HMMActual","null","","","","Images/WhiteBeadChoice.png","null"
"image-keyboard-response","151","479826","0.0-4.0-2.43","11","Low_HMMActual","null","","","","Images/WhiteBeadChoiceWrong.png","null"
"image-keyboard-response","152","479992","0.0-4.0-0.44","11","Low_HMMActual","164.954999985639","","","","Images/NewTrialBC.png","39"
"image-keyboard-response","153","480393","0.0-4.0-1.44","11","Low_HMMActual","null","","","","Images/WhiteBeadChoice.png","null"
"image-keyboard-response","154","481095","0.0-4.0-2.44","11","Low_HMMActual","418.10500001884066","","","","Images/WhiteBeadChoiceWrong.png","39"
"image-keyboard-response","155","481252","0.0-4.0-0.45","11","Low_HMMActual","155.93500001705252","","","","Images/NewTrialBC.png","39"
"image-keyboard-response","156","481653","0.0-4.0-1.45","11","Low_HMMActual","null","","","","Images/WhiteBeadChoice.png","null"
"image-keyboard-response","157","482355","0.0-4.0-2.45","11","Low_HMMActual","null","","","","Images/WhiteBeadChoiceWrong.png","null"
"image-keyboard-response","158","487752","0.0-4.0-0.46","11","Low_HMMActual","5396.609999996144","","","","Images/NewTrialBC.png","37"
"image-keyboard-response","159","488155","0.0-4.0-1.46","11","Low_HMMActual","null","","","","Images/BlackBeadChoice.png","null"
"image-keyboard-response","160","488856","0.0-4.0-2.46","11","Low_HMMActual","null","","","","Images/BlackBeadChoiceCorrect.png","null"
"image-keyboard-response","161","489672","0.0-4.0-0.47","11","Low_HMMActual","815.4199999989942","","","","Images/NewTrialBC.png","37"
"image-keyboard-response","162","490075","0.0-4.0-1.47","11","Low_HMMActual","null","","","","Images/BlackBeadChoice.png","null"
"image-keyboard-response","163","490776","0.0-4.0-2.47","11","Low_HMMActual","null","","","","Images/BlackBeadChoiceWrong.png","null"
"image-keyboard-response","164","494942","0.0-4.0-0.48","11","Low_HMMActual","4164.409999997588","","","","Images/NewTrialWC.png","39"
"image-keyboard-response","165","495344","0.0-4.0-1.48","11","Low_HMMActual","null","","","","Images/WhiteBeadChoice.png","null"
"image-keyboard-response","166","496046","0.0-4.0-2.48","11","Low_HMMActual","null","","","","Images/WhiteBeadChoiceWrong.png","null"
"image-keyboard-response","167","496472","0.0-4.0-0.49","11","Low_HMMActual","424.80999999679625","","","","Images/NewTrialBC.png","37"
"image-keyboard-response","168","496873","0.0-4.0-1.49","11","Low_HMMActual","null","","","","Images/BlackBeadChoice.png","null"
"image-keyboard-response","169","497575","0.0-4.0-2.49","11","Low_HMMActual","null","","","","Images/BlackBeadChoiceWrong.png","null"
"image-keyboard-response","170","499022","0.0-4.0-0.50","11","Low_HMMActual","1446.2650000059512","","","","Images/NewTrialWC.png","39"
"image-keyboard-response","171","499423","0.0-4.0-1.50","11","Low_HMMActual","null","","","","Images/WhiteBeadChoice.png","null"
"image-keyboard-response","172","500125","0.0-4.0-2.50","11","Low_HMMActual","null","","","","Images/WhiteBeadChoiceWrong.png","null"
"image-keyboard-response","173","500652","0.0-4.0-0.51","11","Low_HMMActual","526.1400000017602","","","","Images/NewTrialBC.png","37"
"image-keyboard-response","174","501054","0.0-4.0-1.51","11","Low_HMMActual","null","","","","Images/BlackBeadChoice.png","null"
"image-keyboard-response","175","501756","0.0-4.0-2.51","11","Low_HMMActual","null","","","","Images/BlackBeadChoiceWrong.png","null"
"image-keyboard-response","176","501832","0.0-4.0-0.52","11","Low_HMMActual","74.32499999413267","","","","Images/NewTrialWC.png","39"
"image-keyboard-response","177","502233","0.0-4.0-1.52","11","Low_HMMActual","null","","","","Images/WhiteBeadChoice.png","null"
"image-keyboard-response","178","502935","0.0-4.0-2.52","11","Low_HMMActual","null","","","","Images/WhiteBeadChoiceWrong.png","null"
"image-keyboard-response","179","504032","0.0-4.0-0.53","11","Low_HMMActual","1095.579999993788","","","","Images/NewTrialBC.png","37"
"image-keyboard-response","180","504432","0.0-4.0-1.53","11","Low_HMMActual","null","","","","Images/BlackBeadChoice.png","null"
"image-keyboard-response","181","505135","0.0-4.0-2.53","11","Low_HMMActual","null","","","","Images/BlackBeadChoiceCorrect.png","null"
"image-keyboard-response","182","505163","0.0-4.0-0.54","11","Low_HMMActual","26.94000001065433","","","","Images/NewTrialBC.png","37"
"image-keyboard-response","183","505564","0.0-4.0-1.54","11","Low_HMMActual","null","","","","Images/BlackBeadChoice.png","null"
"image-keyboard-response","184","506266","0.0-4.0-2.54","11","Low_HMMActual","null","","","","Images/BlackBeadChoiceCorrect.png","null"
"image-keyboard-response","185","509553","0.0-4.0-0.55","11","Low_HMMActual","3285.9450000105426","","","","Images/NewTrialBC.png","37"
"image-keyboard-response","186","509955","0.0-4.0-1.55","11","Low_HMMActual","null","","","","Images/BlackBeadChoice.png","null"
"image-keyboard-response","187","510656","0.0-4.0-2.55","11","Low_HMMActual","null","","","","Images/BlackBeadChoiceCorrect.png","null"
"image-keyboard-response","188","511273","0.0-4.0-0.56","11","Low_HMMActual","615.9299999999348","","","","Images/NewTrialBC.png","37"
"image-keyboard-response","189","511674","0.0-4.0-1.56","11","Low_HMMActual","null","","","","Images/BlackBeadChoice.png","null"
"image-keyboard-response","190","512376","0.0-4.0-2.56","11","Low_HMMActual","null","","","","Images/BlackBeadChoiceCorrect.png","null"
"image-keyboard-response","191","513723","0.0-4.0-0.57","11","Low_HMMActual","1346.2799999979325","","","","Images/NewTrialBC.png","37"
"image-keyboard-response","192","514124","0.0-4.0-1.57","11","Low_HMMActual","null","","","","Images/BlackBeadChoice.png","null"
"image-keyboard-response","193","514826","0.0-4.0-2.57","11","Low_HMMActual","null","","","","Images/BlackBeadChoiceCorrect.png","null"
"image-keyboard-response","194","515613","0.0-4.0-0.58","11","Low_HMMActual","785.6800000008661","","","","Images/NewTrialBC.png","37"
"image-keyboard-response","195","516014","0.0-4.0-1.58","11","Low_HMMActual","null","","","","Images/BlackBeadChoice.png","null"
"image-keyboard-response","196","516716","0.0-4.0-2.58","11","Low_HMMActual","null","","","","Images/BlackBeadChoiceCorrect.png","null"
"image-keyboard-response","197","517353","0.0-4.0-0.59","11","Low_HMMActual","635.5750000220723","","","","Images/NewTrialBC.png","37"
"image-keyboard-response","198","517754","0.0-4.0-1.59","11","Low_HMMActual","null","","","","Images/BlackBeadChoice.png","null"
"image-keyboard-response","199","518456","0.0-4.0-2.59","11","Low_HMMActual","null","","","","Images/BlackBeadChoiceCorrect.png","null"
"image-keyboard-response","200","519113","0.0-4.0-0.60","11","Low_HMMActual","656.4450000005309","","","","Images/NewTrialBC.png","37"
"image-keyboard-response","201","519515","0.0-4.0-1.60","11","Low_HMMActual","null","","","","Images/BlackBeadChoice.png","null"
"image-keyboard-response","202","520217","0.0-4.0-2.60","11","Low_HMMActual","null","","","","Images/BlackBeadChoiceCorrect.png","null"
"image-keyboard-response","203","520743","0.0-4.0-0.61","11","Low_HMMActual","525.099999998929","","","","Images/NewTrialBC.png","37"
"image-keyboard-response","204","521145","0.0-4.0-1.61","11","Low_HMMActual","null","","","","Images/BlackBeadChoice.png","null"
"image-keyboard-response","205","521847","0.0-4.0-2.61","11","Low_HMMActual","null","","","","Images/BlackBeadChoiceCorrect.png","null"
"image-keyboard-response","206","522083","0.0-4.0-0.62","11","Low_HMMActual","235.58999999659136","","","","Images/NewTrialBC.png","37"
"image-keyboard-response","207","522484","0.0-4.0-1.62","11","Low_HMMActual","null","","","","Images/BlackBeadChoice.png","null"
"image-keyboard-response","208","523186","0.0-4.0-2.62","11","Low_HMMActual","null","","","","Images/BlackBeadChoiceCorrect.png","null"
"image-keyboard-response","209","523523","0.0-4.0-0.63","11","Low_HMMActual","336.4200000069104","","","","Images/NewTrialBC.png","37"
"image-keyboard-response","210","523925","0.0-4.0-1.63","11","Low_HMMActual","null","","","","Images/BlackBeadChoice.png","null"
"image-keyboard-response","211","524626","0.0-4.0-2.63","11","Low_HMMActual","576.969999994617","","","","Images/BlackBeadChoiceCorrect.png","37"
"image-keyboard-response","212","525003","0.0-4.0-0.64","11","Low_HMMActual","375.739999988582","","","","Images/NewTrialBC.png","37"
"image-keyboard-response","213","525404","0.0-4.0-1.64","11","Low_HMMActual","null","","","","Images/BlackBeadChoice.png","null"
"image-keyboard-response","214","526106","0.0-4.0-2.64","11","Low_HMMActual","null","","","","Images/BlackBeadChoiceCorrect.png","null"
"image-keyboard-response","215","526383","0.0-4.0-0.65","11","Low_HMMActual","275.3599999996368","","","","Images/NewTrialBC.png","37"
"image-keyboard-response","216","526784","0.0-4.0-1.65","11","Low_HMMActual","null","","","","Images/BlackBeadChoice.png","null"
"image-keyboard-response","217","527486","0.0-4.0-2.65","11","Low_HMMActual","null","","","","Images/BlackBeadChoiceCorrect.png","null"
"image-keyboard-response","218","527773","0.0-4.0-0.66","11","Low_HMMActual","286.3099999958649","","","","Images/NewTrialBC.png","37"
"image-keyboard-response","219","528175","0.0-4.0-1.66","11","Low_HMMActual","null","","","","Images/BlackBeadChoice.png","null"
"image-keyboard-response","220","528876","0.0-4.0-2.66","11","Low_HMMActual","null","","","","Images/BlackBeadChoiceWrong.png","null"
"image-keyboard-response","221","529973","0.0-4.0-0.67","11","Low_HMMActual","1096.320000011474","","","","Images/NewTrialWC.png","37"
"image-keyboard-response","222","530374","0.0-4.0-1.67","11","Low_HMMActual","null","","","","Images/BlackBeadChoice.png","null"
"image-keyboard-response","223","531075","0.0-4.0-2.67","11","Low_HMMActual","null","","","","Images/BlackBeadChoiceCorrect.png","null"
"image-keyboard-response","224","531393","0.0-4.0-0.68","11","Low_HMMActual","317.4799999978859","","","","Images/NewTrialBC.png","37"
"image-keyboard-response","225","531795","0.0-4.0-1.68","11","Low_HMMActual","null","","","","Images/BlackBeadChoice.png","null"
"image-keyboard-response","226","532496","0.0-4.0-2.68","11","Low_HMMActual","null","","","","Images/BlackBeadChoiceCorrect.png","null"
"image-keyboard-response","227","532823","0.0-4.0-0.69","11","Low_HMMActual","325.66999999107793","","","","Images/NewTrialBC.png","37"
"image-keyboard-response","228","533225","0.0-4.0-1.69","11","Low_HMMActual","null","","","","Images/BlackBeadChoice.png","null"
"image-keyboard-response","229","533926","0.0-4.0-2.69","11","Low_HMMActual","null","","","","Images/BlackBeadChoiceWrong.png","null"
"image-keyboard-response","230","536383","0.0-4.0-0.70","11","Low_HMMActual","2455.855000007432","","","","Images/NewTrialWC.png","39"
"image-keyboard-response","231","536784","0.0-4.0-1.70","11","Low_HMMActual","null","","","","Images/WhiteBeadChoice.png","null"
"image-keyboard-response","232","537486","0.0-4.0-2.70","11","Low_HMMActual","null","","","","Images/WhiteBeadChoiceWrong.png","null"
"image-keyboard-response","233","538343","0.0-4.0-0.71","11","Low_HMMActual","855.8550000016112","","","","Images/NewTrialBC.png","37"
"image-keyboard-response","234","538745","0.0-4.0-1.71","11","Low_HMMActual","null","","","","Images/BlackBeadChoice.png","null"
"image-keyboard-response","235","539447","0.0-4.0-2.71","11","Low_HMMActual","null","","","","Images/BlackBeadChoiceCorrect.png","null"
"image-keyboard-response","236","539683","0.0-4.0-0.72","11","Low_HMMActual","235.09000000194646","","","","Images/NewTrialBC.png","37"
"image-keyboard-response","237","540084","0.0-4.0-1.72","11","Low_HMMActual","null","","","","Images/BlackBeadChoice.png","null"
"image-keyboard-response","238","540786","0.0-4.0-2.72","11","Low_HMMActual","267.72500001243316","","","","Images/BlackBeadChoiceCorrect.png","37"
"image-keyboard-response","239","540823","0.0-4.0-0.73","11","Low_HMMActual","36.019999999552965","","","","Images/NewTrialBC.png","37"
"image-keyboard-response","240","541225","0.0-4.0-1.73","11","Low_HMMActual","null","","","","Images/BlackBeadChoice.png","null"
"image-keyboard-response","241","541926","0.0-4.0-2.73","11","Low_HMMActual","null","","","","Images/BlackBeadChoiceCorrect.png","null"
"image-keyboard-response","242","541993","0.0-4.0-0.74","11","Low_HMMActual","65.77499999548309","","","","Images/NewTrialBC.png","37"
"image-keyboard-response","243","542395","0.0-4.0-1.74","11","Low_HMMActual","null","","","","Images/BlackBeadChoice.png","null"
"image-keyboard-response","244","543096","0.0-4.0-2.74","11","Low_HMMActual","606.7849999817554","","","","Images/BlackBeadChoiceCorrect.png","37"
"image-keyboard-response","245","543403","0.0-4.0-0.75","11","Low_HMMActual","305.9099999954924","","","","Images/NewTrialBC.png","37"
"image-keyboard-response","246","543804","0.0-4.0-1.75","11","Low_HMMActual","null","","","","Images/BlackBeadChoice.png","null"
"image-keyboard-response","247","544505","0.0-4.0-2.75","11","Low_HMMActual","668.0700000142679","","","","Images/BlackBeadChoiceCorrect.png","37"
"image-keyboard-response","248","544893","0.0-4.0-0.76","11","Low_HMMActual","387.04000000143424","","","","Images/NewTrialBC.png","37"
"image-keyboard-response","249","545294","0.0-4.0-1.76","11","Low_HMMActual","null","","","","Images/BlackBeadChoice.png","null"
"image-keyboard-response","250","545996","0.0-4.0-2.76","11","Low_HMMActual","null","","","","Images/BlackBeadChoiceCorrect.png","null"
"image-keyboard-response","251","546113","0.0-4.0-0.77","11","Low_HMMActual","115.6149999878835","","","","Images/NewTrialBC.png","37"
"image-keyboard-response","252","546514","0.0-4.0-1.77","11","Low_HMMActual","null","","","","Images/BlackBeadChoice.png","null"
"image-keyboard-response","253","547216","0.0-4.0-2.77","11","Low_HMMActual","null","","","","Images/BlackBeadChoiceCorrect.png","null"
"image-keyboard-response","254","549043","0.0-4.0-0.78","11","Low_HMMActual","1825.6550000223797","","","","Images/NewTrialBC.png","37"
"image-keyboard-response","255","549444","0.0-4.0-1.78","11","Low_HMMActual","null","","","","Images/BlackBeadChoice.png","null"
"image-keyboard-response","256","550145","0.0-4.0-2.78","11","Low_HMMActual","null","","","","Images/BlackBeadChoiceWrong.png","null"
"image-keyboard-response","257","550203","0.0-4.0-0.79","11","Low_HMMActual","57.18999999226071","","","","Images/NewTrialWC.png","37"
"image-keyboard-response","258","550604","0.0-4.0-1.79","11","Low_HMMActual","null","","","","Images/BlackBeadChoice.png","null"
"image-keyboard-response","259","551306","0.0-4.0-2.79","11","Low_HMMActual","null","","","","Images/BlackBeadChoiceWrong.png","null"
"image-keyboard-response","260","551513","0.0-4.0-0.80","11","Low_HMMActual","205.96500000101514","","","","Images/NewTrialWC.png","39"
"image-keyboard-response","261","551914","0.0-4.0-1.80","11","Low_HMMActual","null","","","","Images/WhiteBeadChoice.png","null"
"image-keyboard-response","262","552616","0.0-4.0-2.80","11","Low_HMMActual","null","","","","Images/WhiteBeadChoiceWrong.png","null"
"image-keyboard-response","263","552683","0.0-4.0-0.81","11","Low_HMMActual","66.12499998300336","","","","Images/NewTrialBC.png","37"
"image-keyboard-response","264","553084","0.0-4.0-1.81","11","Low_HMMActual","null","","","","Images/BlackBeadChoice.png","null"
"image-keyboard-response","265","553785","0.0-4.0-2.81","11","Low_HMMActual","457.85999999498017","","","","Images/BlackBeadChoiceCorrect.png","37"
"image-keyboard-response","266","554023","0.0-4.0-0.82","11","Low_HMMActual","236.73500001314096","","","","Images/NewTrialBC.png","37"
"image-keyboard-response","267","554424","0.0-4.0-1.82","11","Low_HMMActual","null","","","","Images/BlackBeadChoice.png","null"
"image-keyboard-response","268","555126","0.0-4.0-2.82","11","Low_HMMActual","null","","","","Images/BlackBeadChoiceCorrect.png","null"
"image-keyboard-response","269","555273","0.0-4.0-0.83","11","Low_HMMActual","146.1799999815412","","","","Images/NewTrialBC.png","37"
"image-keyboard-response","270","555675","0.0-4.0-1.83","11","Low_HMMActual","null","","","","Images/BlackBeadChoice.png","null"
"image-keyboard-response","271","556376","0.0-4.0-2.83","11","Low_HMMActual","null","","","","Images/BlackBeadChoiceCorrect.png","null"
"image-keyboard-response","272","556513","0.0-4.0-0.84","11","Low_HMMActual","136.20999999693595","","","","Images/NewTrialBC.png","37"
"image-keyboard-response","273","556915","0.0-4.0-1.84","11","Low_HMMActual","null","","","","Images/BlackBeadChoice.png","null"
"image-keyboard-response","274","557616","0.0-4.0-2.84","11","Low_HMMActual","null","","","","Images/BlackBeadChoiceWrong.png","null"
"image-keyboard-response","275","557653","0.0-4.0-0.85","11","Low_HMMActual","35.96500001731329","","","","Images/NewTrialWC.png","37"
"image-keyboard-response","276","558054","0.0-4.0-1.85","11","Low_HMMActual","null","","","","Images/BlackBeadChoice.png","null"
"image-keyboard-response","277","558757","0.0-4.0-2.85","11","Low_HMMActual","null","","","","Images/BlackBeadChoiceCorrect.png","null"
"image-keyboard-response","278","561723","0.0-4.0-0.86","11","Low_HMMActual","2964.8100000049453","","","","Images/NewTrialBC.png","37"
"image-keyboard-response","279","562124","0.0-4.0-1.86","11","Low_HMMActual","null","","","","Images/BlackBeadChoice.png","null"
"image-keyboard-response","280","562827","0.0-4.0-2.86","11","Low_HMMActual","567.6899999962188","","","","Images/BlackBeadChoiceWrong.png","39"
"image-keyboard-response","281","563143","0.0-4.0-0.87","11","Low_HMMActual","314.9999999732245","","","","Images/NewTrialWC.png","39"
"image-keyboard-response","282","563545","0.0-4.0-1.87","11","Low_HMMActual","null","","","","Images/WhiteBeadChoice.png","null"
"image-keyboard-response","283","564247","0.0-4.0-2.87","11","Low_HMMActual","null","","","","Images/WhiteBeadChoiceCorrect.png","null"
"image-keyboard-response","284","564453","0.0-4.0-0.88","11","Low_HMMActual","205.37499999045394","","","","Images/NewTrialWC.png","39"
"image-keyboard-response","285","564855","0.0-4.0-1.88","11","Low_HMMActual","null","","","","Images/WhiteBeadChoice.png","null"
"image-keyboard-response","286","565557","0.0-4.0-2.88","11","Low_HMMActual","null","","","","Images/WhiteBeadChoiceCorrect.png","null"
"image-keyboard-response","287","565763","0.0-4.0-0.89","11","Low_HMMActual","205.26499999687076","","","","Images/NewTrialWC.png","39"
"image-keyboard-response","288","566165","0.0-4.0-1.89","11","Low_HMMActual","null","","","","Images/WhiteBeadChoice.png","null"
"image-keyboard-response","289","566866","0.0-4.0-2.89","11","Low_HMMActual","418.01500000292435","","","","Images/WhiteBeadChoiceWrong.png","37"
"image-keyboard-response","290","567113","0.0-4.0-0.90","11","Low_HMMActual","246.370000008028","","","","Images/NewTrialBC.png","37"
"image-keyboard-response","291","567514","0.0-4.0-1.90","11","Low_HMMActual","null","","","","Images/BlackBeadChoice.png","null"
"image-keyboard-response","292","568216","0.0-4.0-2.90","11","Low_HMMActual","null","","","","Images/BlackBeadChoiceCorrect.png","null"
"image-keyboard-response","293","568343","0.0-4.0-0.91","11","Low_HMMActual","126.40000000828877","","","","Images/NewTrialBC.png","37"
"image-keyboard-response","294","568744","0.0-4.0-1.91","11","Low_HMMActual","null","","","","Images/BlackBeadChoice.png","null"
"image-keyboard-response","295","569447","0.0-4.0-2.91","11","Low_HMMActual","null","","","","Images/BlackBeadChoiceWrong.png","null"
"image-keyboard-response","296","569653","0.0-4.0-0.92","11","Low_HMMActual","205.51500000874512","","","","Images/NewTrialWC.png","37"
"image-keyboard-response","297","570055","0.0-4.0-1.92","11","Low_HMMActual","null","","","","Images/BlackBeadChoice.png","null"
"image-keyboard-response","298","570757","0.0-4.0-2.92","11","Low_HMMActual","null","","","","Images/BlackBeadChoiceWrong.png","null"
"image-keyboard-response","299","570894","0.0-4.0-0.93","11","Low_HMMActual","136.0100000165403","","","","Images/NewTrialWC.png","39"
"image-keyboard-response","300","571296","0.0-4.0-1.93","11","Low_HMMActual","null","","","","Images/WhiteBeadChoice.png","null"
"image-keyboard-response","301","571998","0.0-4.0-2.93","11","Low_HMMActual","null","","","","Images/WhiteBeadChoiceWrong.png","null"
"image-keyboard-response","302","572274","0.0-4.0-0.94","11","Low_HMMActual","274.6800000022631","","","","Images/NewTrialBC.png","37"
"image-keyboard-response","303","572675","0.0-4.0-1.94","11","Low_HMMActual","null","","","","Images/BlackBeadChoice.png","null"
"image-keyboard-response","304","573377","0.0-4.0-2.94","11","Low_HMMActual","487.69999999785796","","","","Images/BlackBeadChoiceCorrect.png","37"
"image-keyboard-response","305","573544","0.0-4.0-0.95","11","Low_HMMActual","165.68000000552274","","","","Images/NewTrialBC.png","37"
"image-keyboard-response","306","573946","0.0-4.0-1.95","11","Low_HMMActual","null","","","","Images/BlackBeadChoice.png","null"
"image-keyboard-response","307","574647","0.0-4.0-2.95","11","Low_HMMActual","567.6699999894481","","","","Images/BlackBeadChoiceCorrect.png","37"
"image-keyboard-response","308","574864","0.0-4.0-0.96","11","Low_HMMActual","215.8800000033807","","","","Images/NewTrialBC.png","37"
"image-keyboard-response","309","575267","0.0-4.0-1.96","11","Low_HMMActual","null","","","","Images/BlackBeadChoice.png","null"
"image-keyboard-response","310","575969","0.0-4.0-2.96","11","Low_HMMActual","null","","","","Images/BlackBeadChoiceCorrect.png","null"
"image-keyboard-response","311","576034","0.0-4.0-0.97","11","Low_HMMActual","64.3899999849964","","","","Images/NewTrialBC.png","37"
"image-keyboard-response","312","576435","0.0-4.0-1.97","11","Low_HMMActual","null","","","","Images/BlackBeadChoice.png","null"
"image-keyboard-response","313","577137","0.0-4.0-2.97","11","Low_HMMActual","288.509999983944","","","","Images/BlackBeadChoiceCorrect.png","37"
"image-keyboard-response","314","577404","0.0-4.0-0.98","11","Low_HMMActual","266.09499999904074","","","","Images/NewTrialBC.png","37"
"image-keyboard-response","315","577805","0.0-4.0-1.98","11","Low_HMMActual","null","","","","Images/BlackBeadChoice.png","null"
"image-keyboard-response","316","578507","0.0-4.0-2.98","11","Low_HMMActual","367.90499999187887","","","","Images/BlackBeadChoiceCorrect.png","37"
"image-keyboard-response","317","578514","0.0-4.0-0.99","11","Low_HMMActual","6.300000008195639","","","","Images/NewTrialBC.png","37"
"image-keyboard-response","318","578915","0.0-4.0-1.99","11","Low_HMMActual","null","","","","Images/BlackBeadChoice.png","null"
"image-keyboard-response","319","579616","0.0-4.0-2.99","11","Low_HMMActual","688.384999986738","","","","Images/BlackBeadChoiceCorrect.png","37"
"image-keyboard-response","320","579844","0.0-4.0-0.100","11","Low_HMMActual","226.49999998975545","","","","Images/NewTrialBC.png","37"
"image-keyboard-response","321","580245","0.0-4.0-1.100","11","Low_HMMActual","239.449999993667","","","","Images/BlackBeadChoice.png","37"
"image-keyboard-response","322","580946","0.0-4.0-2.100","11","Low_HMMActual","337.9349999886472","","","","Images/BlackBeadChoiceCorrect.png","37"
"image-keyboard-response","323","581184","0.0-4.0-0.101","11","Low_HMMActual","236.3550000009127","","","","Images/NewTrialBC.png","37"
"image-keyboard-response","324","581585","0.0-4.0-1.101","11","Low_HMMActual","null","","","","Images/BlackBeadChoice.png","null"
"image-keyboard-response","325","582288","0.0-4.0-2.101","11","Low_HMMActual","327.900000003865","","","","Images/BlackBeadChoiceCorrect.png","37"
"image-keyboard-response","326","582544","0.0-4.0-0.102","11","Low_HMMActual","255.0399999890942","","","","Images/NewTrialBC.png","37"
"image-keyboard-response","327","582946","0.0-4.0-1.102","11","Low_HMMActual","null","","","","Images/BlackBeadChoice.png","null"
"image-keyboard-response","328","583647","0.0-4.0-2.102","11","Low_HMMActual","477.0950000092853","","","","Images/BlackBeadChoiceCorrect.png","37"
"image-keyboard-response","329","583714","0.0-4.0-0.103","11","Low_HMMActual","65.65500001306646","","","","Images/NewTrialBC.png","37"
"image-keyboard-response","330","584115","0.0-4.0-1.103","11","Low_HMMActual","229.55499999807216","","","","Images/BlackBeadChoice.png","37"
"image-keyboard-response","331","584817","0.0-4.0-2.103","11","Low_HMMActual","187.7600000007078","","","","Images/BlackBeadChoiceCorrect.png","37"
"image-keyboard-response","332","584974","0.0-4.0-0.104","11","Low_HMMActual","156.36999998241663","","","","Images/NewTrialBC.png","37"
"image-keyboard-response","333","585375","0.0-4.0-1.104","11","Low_HMMActual","null","","","","Images/BlackBeadChoice.png","null"
"image-keyboard-response","334","586077","0.0-4.0-2.104","11","Low_HMMActual","197.76500001898967","","","","Images/BlackBeadChoiceCorrect.png","37"
"image-keyboard-response","335","586274","0.0-4.0-0.105","11","Low_HMMActual","195.43500000145286","","","","Images/NewTrialBC.png","37"
"image-keyboard-response","336","586675","0.0-4.0-1.105","11","Low_HMMActual","229.62500000721775","","","","Images/BlackBeadChoice.png","37"
"image-keyboard-response","337","587376","0.0-4.0-2.105","11","Low_HMMActual","388.3450000139419","","","","Images/BlackBeadChoiceCorrect.png","37"
"image-keyboard-response","338","587474","0.0-4.0-0.106","11","Low_HMMActual","96.81000001728535","","","","Images/NewTrialBC.png","37"
"image-keyboard-response","339","587875","0.0-4.0-1.106","11","Low_HMMActual","199.46500001242384","","","","Images/BlackBeadChoice.png","37"
"image-keyboard-response","340","588577","0.0-4.0-2.106","11","Low_HMMActual","448.164999979781","","","","Images/BlackBeadChoiceCorrect.png","37"
"image-keyboard-response","341","588784","0.0-4.0-0.107","11","Low_HMMActual","206.47999999346212","","","","Images/NewTrialBC.png","37"
"image-keyboard-response","342","589185","0.0-4.0-1.107","11","Low_HMMActual","179.165000008652","","","","Images/BlackBeadChoice.png","37"
"image-keyboard-response","343","589887","0.0-4.0-2.107","11","Low_HMMActual","427.7249999868218","","","","Images/BlackBeadChoiceCorrect.png","37"
"image-keyboard-response","344","590094","0.0-4.0-0.108","11","Low_HMMActual","206.0300000011921","","","","Images/NewTrialBC.png","37"
"image-keyboard-response","345","590496","0.0-4.0-1.108","11","Low_HMMActual","259.25000000279397","","","","Images/BlackBeadChoice.png","37"
"image-keyboard-response","346","591198","0.0-4.0-2.108","11","Low_HMMActual","246.56499997945502","","","","Images/BlackBeadChoiceCorrect.png","37"
"image-keyboard-response","347","591244","0.0-4.0-0.109","11","Low_HMMActual","44.81999998097308","","","","Images/NewTrialBC.png","37"
"image-keyboard-response","348","591645","0.0-4.0-1.109","11","Low_HMMActual","239.20999999972992","","","","Images/BlackBeadChoice.png","37"
"image-keyboard-response","349","592346","0.0-4.0-2.109","11","Low_HMMActual","438.2400000176858","","","","Images/BlackBeadChoiceWrong.png","37"
"image-keyboard-response","350","592364","0.0-4.0-0.110","11","Low_HMMActual","16.774999996414408","","","","Images/NewTrialWC.png","39"
"image-keyboard-response","351","592767","0.0-4.0-1.110","11","Low_HMMActual","218.5499999905005","","","","Images/WhiteBeadChoice.png","39"
"image-keyboard-response","352","593469","0.0-4.0-2.110","11","Low_HMMActual","425.7449999859091","","","","Images/WhiteBeadChoiceCorrect.png","39"
"image-keyboard-response","353","593634","0.0-4.0-0.111","11","Low_HMMActual","164.30999999283813","","","","Images/NewTrialWC.png","39"
"image-keyboard-response","354","594035","0.0-4.0-1.111","11","Low_HMMActual","209.18500001425855","","","","Images/WhiteBeadChoice.png","39"
"image-keyboard-response","355","594737","0.0-4.0-2.111","11","Low_HMMActual","357.82999999355525","","","","Images/WhiteBeadChoiceCorrect.png","39"
"image-keyboard-response","356","594794","0.0-4.0-0.112","11","Low_HMMActual","55.42499999864958","","","","Images/NewTrialWC.png","39"
"image-keyboard-response","357","595195","0.0-4.0-1.112","11","Low_HMMActual","209.47000000160187","","","","Images/WhiteBeadChoice.png","39"
"image-keyboard-response","358","595896","0.0-4.0-2.112","11","Low_HMMActual","458.13000001362525","","","","Images/WhiteBeadChoiceWrong.png","37"
"image-keyboard-response","359","596084","0.0-4.0-0.113","11","Low_HMMActual","187.01500000315718","","","","Images/NewTrialBC.png","37"
"image-keyboard-response","360","596485","0.0-4.0-1.113","11","Low_HMMActual","239.36000000685453","","","","Images/BlackBeadChoice.png","37"
"image-keyboard-response","361","597187","0.0-4.0-2.113","11","Low_HMMActual","248.13000002177432","","","","Images/BlackBeadChoiceCorrect.png","37"
"image-keyboard-response","362","597194","0.0-4.0-0.114","11","Low_HMMActual","6.475000001955777","","","","Images/NewTrialBC.png","37"
"image-keyboard-response","363","597596","0.0-4.0-1.114","11","Low_HMMActual","258.7900000216905","","","","Images/BlackBeadChoice.png","37"
"image-keyboard-response","364","598298","0.0-4.0-2.114","11","Low_HMMActual","157.6000000059139","","","","Images/BlackBeadChoiceCorrect.png","37"
"image-keyboard-response","365","598424","0.0-4.0-0.115","11","Low_HMMActual","125.54000000818633","","","","Images/NewTrialBC.png","37"
"image-keyboard-response","366","598825","0.0-4.0-1.115","11","Low_HMMActual","349.14999999455176","","","","Images/BlackBeadChoice.png","37"
"image-keyboard-response","367","599527","0.0-4.0-2.115","11","Low_HMMActual","267.98499998403713","","","","Images/BlackBeadChoiceCorrect.png","37"
"image-keyboard-response","368","599694","0.0-4.0-0.116","11","Low_HMMActual","166.22499999357387","","","","Images/NewTrialBC.png","37"
"image-keyboard-response","369","600095","0.0-4.0-1.116","11","Low_HMMActual","349.53500001574866","","","","Images/BlackBeadChoice.png","37"
"image-keyboard-response","370","600798","0.0-4.0-2.116","11","Low_HMMActual","null","","","","Images/BlackBeadChoiceWrong.png","null"
"image-keyboard-response","371","601084","0.0-4.0-0.117","11","Low_HMMActual","285.4850000003353","","","","Images/NewTrialWC.png","37"
"image-keyboard-response","372","601486","0.0-4.0-1.117","11","Low_HMMActual","null","","","","Images/BlackBeadChoice.png","null"
"image-keyboard-response","373","602187","0.0-4.0-2.117","11","Low_HMMActual","497.55000000004657","","","","Images/BlackBeadChoiceCorrect.png","37"
"image-keyboard-response","374","602284","0.0-4.0-0.118","11","Low_HMMActual","96.3200000114739","","","","Images/NewTrialBC.png","37"
"image-keyboard-response","375","602685","0.0-4.0-1.118","11","Low_HMMActual","229.51499998453073","","","","Images/BlackBeadChoice.png","37"
"image-keyboard-response","376","603387","0.0-4.0-2.118","11","Low_HMMActual","128.3349999866914","","","","Images/BlackBeadChoiceCorrect.png","37"
"image-keyboard-response","377","603464","0.0-4.0-0.119","11","Low_HMMActual","76.06500000110827","","","","Images/NewTrialBC.png","37"
"image-keyboard-response","378","603865","0.0-4.0-1.119","11","Low_HMMActual","209.2150000098627","","","","Images/BlackBeadChoice.png","37"
"image-keyboard-response","379","604567","0.0-4.0-2.119","11","Low_HMMActual","48.34000000846572","","","","Images/BlackBeadChoiceCorrect.png","37"
"image-keyboard-response","380","604594","0.0-4.0-0.120","11","Low_HMMActual","26.119999994989485","","","","Images/NewTrialBC.png","37"
"image-keyboard-response","381","604995","0.0-4.0-1.120","11","Low_HMMActual","209.3600000080187","","","","Images/BlackBeadChoice.png","37"
"image-keyboard-response","382","605697","0.0-4.0-2.120","11","Low_HMMActual","null","","","","Images/BlackBeadChoiceWrong.png","null"
"image-keyboard-response","383","605934","0.0-4.0-0.121","11","Low_HMMActual","235.84999999729916","","","","Images/NewTrialWC.png","39"
"image-keyboard-response","384","606336","0.0-4.0-1.121","11","Low_HMMActual","189.3500000005588","","","","Images/WhiteBeadChoice.png","39"
"image-keyboard-response","385","607038","0.0-4.0-2.121","11","Low_HMMActual","587.5649999943562","","","","Images/WhiteBeadChoiceWrong.png","39"
"image-keyboard-response","386","607124","0.0-4.0-0.122","11","Low_HMMActual","85.58499999344349","","","","Images/NewTrialBC.png","39"
"image-keyboard-response","387","607526","0.0-4.0-1.122","11","Low_HMMActual","229.57999998470768","","","","Images/WhiteBeadChoice.png","39"
"image-keyboard-response","388","608227","0.0-4.0-2.122","11","Low_HMMActual","177.59000000660308","","","","Images/WhiteBeadChoiceWrong.png","39"
"image-keyboard-response","389","608334","0.0-4.0-0.123","11","Low_HMMActual","106.19500000029802","","","","Images/NewTrialBC.png","37"
"image-keyboard-response","390","608735","0.0-4.0-1.123","11","Low_HMMActual","219.21999999904074","","","","Images/BlackBeadChoice.png","37"
"image-keyboard-response","391","609437","0.0-4.0-2.123","11","Low_HMMActual","157.99999999580905","","","","Images/BlackBeadChoiceCorrect.png","37"
"image-keyboard-response","392","609674","0.0-4.0-0.124","11","Low_HMMActual","235.964999999851","","","","Images/NewTrialBC.png","37"
"image-keyboard-response","393","610076","0.0-4.0-1.124","11","Low_HMMActual","249.43999998504296","","","","Images/BlackBeadChoice.png","37"
"image-keyboard-response","394","610777","0.0-4.0-2.124","11","Low_HMMActual","137.21000001532957","","","","Images/BlackBeadChoiceCorrect.png","37"
"image-keyboard-response","395","611054","0.0-4.0-0.125","11","Low_HMMActual","275.59000000474043","","","","Images/NewTrialBC.png","37"
"image-keyboard-response","396","611456","0.0-4.0-1.125","11","Low_HMMActual","249.28000001818873","","","","Images/BlackBeadChoice.png","37"
"image-keyboard-response","397","612157","0.0-4.0-2.125","11","Low_HMMActual","367.78999998932704","","","","Images/BlackBeadChoiceCorrect.png","37"
"image-keyboard-response","398","612424","0.0-4.0-0.126","11","Low_HMMActual","265.79999999376014","","","","Images/NewTrialBC.png","37"
"image-keyboard-response","399","612825","0.0-4.0-1.126","11","Low_HMMActual","269.2449999740347","","","","Images/BlackBeadChoice.png","37"
"image-keyboard-response","400","613526","0.0-4.0-2.126","11","Low_HMMActual","548.4350000042468","","","","Images/BlackBeadChoiceCorrect.png","37"
"image-keyboard-response","401","613654","0.0-4.0-0.127","11","Low_HMMActual","126.59500000881962","","","","Images/NewTrialBC.png","37"
"image-keyboard-response","402","614056","0.0-4.0-1.127","11","Low_HMMActual","219.31499999482185","","","","Images/BlackBeadChoice.png","37"
"image-keyboard-response","403","614757","0.0-4.0-2.127","11","Low_HMMActual","null","","","","Images/BlackBeadChoiceWrong.png","null"
"image-keyboard-response","404","615054","0.0-4.0-0.128","11","Low_HMMActual","295.73500002152286","","","","Images/NewTrialWC.png","39"
"image-keyboard-response","405","615455","0.0-4.0-1.128","11","Low_HMMActual","null","","","","Images/WhiteBeadChoice.png","null"
"image-keyboard-response","406","616157","0.0-4.0-2.128","11","Low_HMMActual","258.43000001623295","","","","Images/WhiteBeadChoiceWrong.png","39"
"image-keyboard-response","407","616374","0.0-4.0-0.129","11","Low_HMMActual","216.30000000004657","","","","Images/NewTrialBC.png","39"
"image-keyboard-response","408","616775","0.0-4.0-1.129","11","Low_HMMActual","null","","","","Images/WhiteBeadChoice.png","null"
"image-keyboard-response","409","617478","0.0-4.0-2.129","11","Low_HMMActual","198.10000000870787","","","","Images/WhiteBeadChoiceWrong.png","39"
"image-keyboard-response","410","617534","0.0-4.0-0.130","11","Low_HMMActual","55.5249999742955","","","","Images/NewTrialBC.png","39"
"image-keyboard-response","411","617936","0.0-4.0-1.130","11","Low_HMMActual","208.74500001082197","","","","Images/WhiteBeadChoice.png","39"
"image-keyboard-response","412","618637","0.0-4.0-2.130","11","Low_HMMActual","307.5949999911245","","","","Images/WhiteBeadChoiceWrong.png","37"
"image-keyboard-response","413","618774","0.0-4.0-0.131","11","Low_HMMActual","136.10499998321757","","","","Images/NewTrialBC.png","37"
"image-keyboard-response","414","619175","0.0-4.0-1.131","11","Low_HMMActual","219.09500000765547","","","","Images/BlackBeadChoice.png","37"
"image-keyboard-response","415","619877","0.0-4.0-2.131","11","Low_HMMActual","258.11500000418164","","","","Images/BlackBeadChoiceCorrect.png","37"
"image-keyboard-response","416","620214","0.0-4.0-0.132","11","Low_HMMActual","335.8450000232551","","","","Images/NewTrialBC.png","37"
"image-keyboard-response","417","620615","0.0-4.0-1.132","11","Low_HMMActual","309.56500000320375","","","","Images/BlackBeadChoice.png","37"
"image-keyboard-response","418","621316","0.0-4.0-2.132","11","Low_HMMActual","658.1650000007357","","","","Images/BlackBeadChoiceCorrect.png","37"
"image-keyboard-response","419","621634","0.0-4.0-0.133","11","Low_HMMActual","316.7599999869708","","","","Images/NewTrialBC.png","37"
"image-keyboard-response","420","622036","0.0-4.0-1.133","11","Low_HMMActual","249.26000001141801","","","","Images/BlackBeadChoice.png","37"
"image-keyboard-response","421","622737","0.0-4.0-2.133","11","Low_HMMActual","266.68999998946674","","","","Images/BlackBeadChoiceCorrect.png","37"
"image-keyboard-response","422","623254","0.0-4.0-0.134","11","Low_HMMActual","515.5249999952503","","","","Images/NewTrialBC.png","37"
"image-keyboard-response","423","623656","0.0-4.0-1.134","11","Low_HMMActual","null","","","","Images/BlackBeadChoice.png","null"
"image-keyboard-response","424","624358","0.0-4.0-2.134","11","Low_HMMActual","null","","","","Images/BlackBeadChoiceWrong.png","null"
"image-keyboard-response","425","624654","0.0-4.0-0.135","11","Low_HMMActual","295.36999997799285","","","","Images/NewTrialWC.png","37"
"image-keyboard-response","426","625057","0.0-4.0-1.135","11","Low_HMMActual","null","","","","Images/BlackBeadChoice.png","null"
"image-keyboard-response","427","625759","0.0-4.0-2.135","11","Low_HMMActual","null","","","","Images/BlackBeadChoiceCorrect.png","null"
"image-keyboard-response","428","626024","0.0-4.0-0.136","11","Low_HMMActual","263.73000000603497","","","","Images/NewTrialBC.png","37"
"image-keyboard-response","429","626426","0.0-4.0-1.136","11","Low_HMMActual","null","","","","Images/BlackBeadChoice.png","null"
"image-keyboard-response","430","627128","0.0-4.0-2.136","11","Low_HMMActual","437.1149999788031","","","","Images/BlackBeadChoiceWrong.png","37"
"image-keyboard-response","431","627434","0.0-4.0-0.137","11","Low_HMMActual","304.82499999925494","","","","Images/NewTrialWC.png","37"
"image-keyboard-response","432","627835","0.0-4.0-1.137","11","Low_HMMActual","null","","","","Images/BlackBeadChoice.png","null"
"image-keyboard-response","433","628537","0.0-4.0-2.137","11","Low_HMMActual","null","","","","Images/BlackBeadChoiceCorrect.png","null"
"image-keyboard-response","434","628854","0.0-4.0-0.138","11","Low_HMMActual","316.1449999897741","","","","Images/NewTrialBC.png","37"
"image-keyboard-response","435","629257","0.0-4.0-1.138","11","Low_HMMActual","189.22999998903833","","","","Images/BlackBeadChoice.png","37"
"image-keyboard-response","436","629959","0.0-4.0-2.138","11","Low_HMMActual","null","","","","Images/BlackBeadChoiceCorrect.png","null"
"image-keyboard-response","437","630194","0.0-4.0-0.139","11","Low_HMMActual","234.5400000049267","","","","Images/NewTrialBC.png","39"
"image-keyboard-response","438","630595","0.0-4.0-1.139","11","Low_HMMActual","null","","","","Images/WhiteBeadChoice.png","null"
"image-keyboard-response","439","631297","0.0-4.0-2.139","11","Low_HMMActual","null","","","","Images/WhiteBeadChoiceWrong.png","null"
"image-keyboard-response","440","631544","0.0-4.0-0.140","11","Low_HMMActual","246.63999999756925","","","","Images/NewTrialBC.png","39"
"image-keyboard-response","441","631946","0.0-4.0-1.140","11","Low_HMMActual","null","","","","Images/WhiteBeadChoice.png","null"
"image-keyboard-response","442","632647","0.0-4.0-2.140","11","Low_HMMActual","267.3149999754969","","","","Images/WhiteBeadChoiceWrong.png","37"
"image-keyboard-response","443","632674","0.0-4.0-0.141","11","Low_HMMActual","26.1400000017602","","","","Images/NewTrialBC.png","37"
"image-keyboard-response","444","633075","0.0-4.0-1.141","11","Low_HMMActual","289.4350000133272","","","","Images/BlackBeadChoice.png","37"
"image-keyboard-response","445","633777","0.0-4.0-2.141","11","Low_HMMActual","167.7849999978207","","","","Images/BlackBeadChoiceCorrect.png","37"
"image-keyboard-response","446","633824","0.0-4.0-0.142","11","Low_HMMActual","45.84499998600222","","","","Images/NewTrialBC.png","37"
"image-keyboard-response","447","634225","0.0-4.0-1.142","11","Low_HMMActual","249.53000000095926","","","","Images/BlackBeadChoice.png","37"
"image-keyboard-response","448","634927","0.0-4.0-2.142","11","Low_HMMActual","128.43499999144115","","","","Images/BlackBeadChoiceCorrect.png","37"
"image-keyboard-response","449","634935","0.0-4.0-0.143","11","Low_HMMActual","7.735000021057203","","","","Images/NewTrialBC.png","37"
"image-keyboard-response","450","635336","0.0-4.0-1.143","11","Low_HMMActual","368.24500001966953","","","","Images/BlackBeadChoice.png","37"
"image-keyboard-response","451","636037","0.0-4.0-2.143","11","Low_HMMActual","497.9000000166707","","","","Images/BlackBeadChoiceCorrect.png","37"
"image-keyboard-response","452","636044","0.0-4.0-0.144","11","Low_HMMActual","5.414999992353842","","","","Images/NewTrialBC.png","37"
"image-keyboard-response","453","636446","0.0-4.0-1.144","11","Low_HMMActual","null","","","","Images/BlackBeadChoice.png","null"
"image-keyboard-response","454","637148","0.0-4.0-2.144","11","Low_HMMActual","null","","","","Images/BlackBeadChoiceCorrect.png","null"
"image-keyboard-response","455","637335","0.0-4.0-0.145","11","Low_HMMActual","186.45499998820014","","","","Images/NewTrialBC.png","37"
"image-keyboard-response","456","637737","0.0-4.0-1.145","11","Low_HMMActual","218.12999999383464","","","","Images/BlackBeadChoice.png","37"
"image-keyboard-response","457","638439","0.0-4.0-2.145","11","Low_HMMActual","null","","","","Images/BlackBeadChoiceCorrect.png","null"
"image-keyboard-response","458","638555","0.0-4.0-0.146","11","Low_HMMActual","115.38500001188368","","","","Images/NewTrialBC.png","37"
"image-keyboard-response","459","638957","0.0-4.0-1.146","11","Low_HMMActual","239.224999997532","","","","Images/BlackBeadChoice.png","37"
"image-keyboard-response","460","639659","0.0-4.0-2.146","11","Low_HMMActual","477.73500002222136","","","","Images/BlackBeadChoiceCorrect.png","37"
"image-keyboard-response","461","639975","0.0-4.0-0.147","11","Low_HMMActual","315.4799999902025","","","","Images/NewTrialBC.png","37"
"image-keyboard-response","462","640376","0.0-4.0-1.147","11","Low_HMMActual","null","","","","Images/BlackBeadChoice.png","null"
"image-keyboard-response","463","641077","0.0-4.0-2.147","11","Low_HMMActual","118.01500001456589","","","","Images/BlackBeadChoiceWrong.png","37"
"image-keyboard-response","464","641355","0.0-4.0-0.148","11","Low_HMMActual","276.6999999876134","","","","Images/NewTrialWC.png","39"
"image-keyboard-response","465","641756","0.0-4.0-1.148","11","Low_HMMActual","null","","","","Images/WhiteBeadChoice.png","null"
"image-keyboard-response","466","642458","0.0-4.0-2.148","11","Low_HMMActual","null","","","","Images/WhiteBeadChoiceWrong.png","null"
"image-keyboard-response","467","642485","0.0-4.0-0.149","11","Low_HMMActual","26.010000001406297","","","","Images/NewTrialBC.png","37"
"image-keyboard-response","468","642887","0.0-4.0-1.149","11","Low_HMMActual","null","","","","Images/BlackBeadChoice.png","null"
"image-keyboard-response","469","643588","0.0-4.0-2.149","11","Low_HMMActual","null","","","","Images/BlackBeadChoiceCorrect.png","null"
"image-keyboard-response","470","643685","0.0-4.0-0.150","11","Low_HMMActual","96.2850000069011","","","","Images/NewTrialBC.png","37"
"image-keyboard-response","471","644086","0.0-4.0-1.150","11","Low_HMMActual","259.474999998929","","","","Images/BlackBeadChoice.png","37"
"image-keyboard-response","472","644788","0.0-4.0-2.150","11","Low_HMMActual","517.9950000019744","","","","Images/BlackBeadChoiceWrong.png","37"
"image-keyboard-response","473","644945","0.0-4.0-0.151","11","Low_HMMActual","155.78499998082407","","","","Images/NewTrialWC.png","37"
"image-keyboard-response","474","645346","0.0-4.0-1.151","11","Low_HMMActual","359.41500001354143","","","","Images/BlackBeadChoice.png","37"
"image-keyboard-response","475","646048","0.0-4.0-2.151","11","Low_HMMActual","null","","","","Images/BlackBeadChoiceCorrect.png","null"
"image-keyboard-response","476","646505","0.0-4.0-0.152","11","Low_HMMActual","456.57500001834705","","","","Images/NewTrialBC.png","37"
"image-keyboard-response","477","646906","0.0-4.0-1.152","11","Low_HMMActual","null","","","","Images/BlackBeadChoice.png","null"
"image-keyboard-response","478","647608","0.0-4.0-2.152","11","Low_HMMActual","518.1999999913387","","","","Images/BlackBeadChoiceCorrect.png","37"
"image-keyboard-response","479","647865","0.0-4.0-0.153","11","Low_HMMActual","256.6149999911431","","","","Images/NewTrialBC.png","37"
"image-keyboard-response","480","648267","0.0-4.0-1.153","11","Low_HMMActual","249.30000002495944","","","","Images/BlackBeadChoice.png","37"
"image-keyboard-response","481","648968","0.0-4.0-2.153","11","Low_HMMActual","null","","","","Images/BlackBeadChoiceCorrect.png","null"
"image-keyboard-response","482","649095","0.0-4.0-0.154","11","Low_HMMActual","126.26499999896623","","","","Images/NewTrialBC.png","37"
"image-keyboard-response","483","649497","0.0-4.0-1.154","11","Low_HMMActual","279.6400000224821","","","","Images/BlackBeadChoice.png","37"
"image-keyboard-response","484","650198","0.0-4.0-2.154","11","Low_HMMActual","398.18999997805804","","","","Images/BlackBeadChoiceWrong.png","37"
"image-keyboard-response","485","650385","0.0-4.0-0.155","11","Low_HMMActual","185.715000028722","","","","Images/NewTrialWC.png","39"
"image-keyboard-response","486","650787","0.0-4.0-1.155","11","Low_HMMActual","null","","","","Images/WhiteBeadChoice.png","null"
"image-keyboard-response","487","651488","0.0-4.0-2.155","11","Low_HMMActual","null","","","","Images/WhiteBeadChoiceWrong.png","null"
"image-keyboard-response","488","652635","0.0-4.0-0.156","11","Low_HMMActual","1145.7499999960419","","","","Images/NewTrialBC.png","37"
"image-keyboard-response","489","653036","0.0-4.0-1.156","11","Low_HMMActual","null","","","","Images/BlackBeadChoice.png","null"
"image-keyboard-response","490","653738","0.0-4.0-2.156","11","Low_HMMActual","null","","","","Images/BlackBeadChoiceCorrect.png","null"
"image-keyboard-response","491","654715","0.0-4.0-0.157","11","Low_HMMActual","976.1350000044331","","","","Images/NewTrialBC.png","37"
"image-keyboard-response","492","655116","0.0-4.0-1.157","11","Low_HMMActual","null","","","","Images/BlackBeadChoice.png","null"
"image-keyboard-response","493","655817","0.0-4.0-2.157","11","Low_HMMActual","null","","","","Images/BlackBeadChoiceCorrect.png","null"
"image-keyboard-response","494","655835","0.0-4.0-0.158","11","Low_HMMActual","16.86499998322688","","","","Images/NewTrialBC.png","37"
"image-keyboard-response","495","656236","0.0-4.0-1.158","11","Low_HMMActual","399.3800000171177","","","","Images/BlackBeadChoice.png","37"
"image-keyboard-response","496","656938","0.0-4.0-2.158","11","Low_HMMActual","null","","","","Images/BlackBeadChoiceWrong.png","null"
"image-keyboard-response","497","657525","0.0-4.0-0.159","11","Low_HMMActual","586.459999991348","","","","Images/NewTrialWC.png","37"
"image-keyboard-response","498","657927","0.0-4.0-1.159","11","Low_HMMActual","229.0400000056252","","","","Images/BlackBeadChoice.png","37"
"image-keyboard-response","499","658629","0.0-4.0-2.159","11","Low_HMMActual","null","","","","Images/BlackBeadChoiceCorrect.png","null"
"image-keyboard-response","500","658795","0.0-4.0-0.160","11","Low_HMMActual","165.29999999329448","","","","Images/NewTrialBC.png","37"
"image-keyboard-response","501","659196","0.0-4.0-1.160","11","Low_HMMActual","259.6000000194181","","","","Images/BlackBeadChoice.png","37"
"image-keyboard-response","502","659898","0.0-4.0-2.160","11","Low_HMMActual","null","","","","Images/BlackBeadChoiceCorrect.png","null"
"image-keyboard-response","503","660325","0.0-4.0-0.161","11","Low_HMMActual","426.2849999940954","","","","Images/NewTrialBC.png","37"
"image-keyboard-response","504","660727","0.0-4.0-1.161","11","Low_HMMActual","null","","","","Images/BlackBeadChoice.png","null"
"image-keyboard-response","505","661429","0.0-4.0-2.161","11","Low_HMMActual","null","","","","Images/BlackBeadChoiceCorrect.png","null"
"image-keyboard-response","506","661985","0.0-4.0-0.162","11","Low_HMMActual","555.675000010524","","","","Images/NewTrialBC.png","37"
"image-keyboard-response","507","662386","0.0-4.0-1.162","11","Low_HMMActual","null","","","","Images/BlackBeadChoice.png","null"
"image-keyboard-response","508","663089","0.0-4.0-2.162","11","Low_HMMActual","null","","","","Images/BlackBeadChoiceCorrect.png","null"
"image-keyboard-response","509","663715","0.0-4.0-0.163","11","Low_HMMActual","625.4949999856763","","","","Images/NewTrialBC.png","37"
"image-keyboard-response","510","664116","0.0-4.0-1.163","11","Low_HMMActual","null","","","","Images/BlackBeadChoice.png","null"
"image-keyboard-response","511","664818","0.0-4.0-2.163","11","Low_HMMActual","null","","","","Images/BlackBeadChoiceWrong.png","null"
"image-keyboard-response","512","665315","0.0-4.0-0.164","11","Low_HMMActual","496.6149999818299","","","","Images/NewTrialWC.png","37"
"image-keyboard-response","513","665716","0.0-4.0-1.164","11","Low_HMMActual","299.6199999761302","","","","Images/BlackBeadChoice.png","37"
"image-keyboard-response","514","666418","0.0-4.0-2.164","11","Low_HMMActual","null","","","","Images/BlackBeadChoiceCorrect.png","null"
"image-keyboard-response","515","668635","0.0-4.0-0.165","11","Low_HMMActual","2215.5849999981","","","","Images/NewTrialBC.png","37"
"image-keyboard-response","516","669036","0.0-4.0-1.165","11","Low_HMMActual","null","","","","Images/BlackBeadChoice.png","null"
"image-keyboard-response","517","669977","0.0-4.0-2.165","11","Low_HMMActual","238.56500000692904","","","","Images/BlackBeadChoiceCorrect.png","37"
"image-keyboard-response","518","670895","0.0-4.0-0.166","11","Low_HMMActual","917.6399999996647","","","","Images/NewTrialBC.png","37"
"image-keyboard-response","519","671297","0.0-4.0-1.166","11","Low_HMMActual","null","","","","Images/BlackBeadChoice.png","null"
"image-keyboard-response","520","671999","0.0-4.0-2.166","11","Low_HMMActual","617.225000023609","","","","Images/BlackBeadChoiceCorrect.png","37"
"image-keyboard-response","521","672285","0.0-4.0-0.167","11","Low_HMMActual","284.74000000278465","","","","Images/NewTrialBC.png","37"
"image-keyboard-response","522","672687","0.0-4.0-1.167","11","Low_HMMActual","219.2149999900721","","","","Images/BlackBeadChoice.png","37"
"image-keyboard-response","523","673388","0.0-4.0-2.167","11","Low_HMMActual","357.7950000180863","","","","Images/BlackBeadChoiceCorrect.png","37"
"image-keyboard-response","524","673525","0.0-4.0-0.168","11","Low_HMMActual","135.63000000431202","","","","Images/NewTrialBC.png","37"
"image-keyboard-response","525","673926","0.0-4.0-1.168","11","Low_HMMActual","229.5600000070408","","","","Images/BlackBeadChoice.png","37"
"image-keyboard-response","526","674628","0.0-4.0-2.168","11","Low_HMMActual","38.570000004256144","","","","Images/BlackBeadChoiceCorrect.png","37"
"image-keyboard-response","527","674635","0.0-4.0-0.169","11","Low_HMMActual","6.569999997736886","","","","Images/NewTrialBC.png","37"
"image-keyboard-response","528","675037","0.0-4.0-1.169","11","Low_HMMActual","189.28500000038184","","","","Images/BlackBeadChoice.png","37"
"image-keyboard-response","529","675738","0.0-4.0-2.169","11","Low_HMMActual","157.63000000151806","","","","Images/BlackBeadChoiceCorrect.png","37"
"image-keyboard-response","530","678535","0.0-4.0-0.170","11","Low_HMMActual","2796.090000018012","","","","Images/NewTrialBC.png","37"
"image-keyboard-response","531","678937","0.0-4.0-1.170","11","Low_HMMActual","null","","","","Images/BlackBeadChoice.png","null"
"image-keyboard-response","532","679976","0.0-4.0-2.170","11","Low_HMMActual","null","","","","Images/BlackBeadChoiceWrong.png","null"
"image-keyboard-response","533","682455","0.0-4.0-0.171","11","Low_HMMActual","2478.8700000208337","","","","Images/NewTrialWC.png","37"
"image-keyboard-response","534","682857","0.0-4.0-1.171","11","Low_HMMActual","null","","","","Images/BlackBeadChoice.png","null"
"image-keyboard-response","535","683558","0.0-4.0-2.171","11","Low_HMMActual","327.02999998582527","","","","Images/BlackBeadChoiceCorrect.png","37"
"image-keyboard-response","536","684876","0.0-4.0-0.172","11","Low_HMMActual","1316.884999978356","","","","Images/NewTrialBC.png","37"
"image-keyboard-response","537","685279","0.0-4.0-1.172","11","Low_HMMActual","null","","","","Images/BlackBeadChoice.png","null"
"image-keyboard-response","538","685980","0.0-4.0-2.172","11","Low_HMMActual","435.6199999747332","","","","Images/BlackBeadChoiceCorrect.png","37"
"image-keyboard-response","539","686185","0.0-4.0-0.173","11","Low_HMMActual","204.76000002236106","","","","Images/NewTrialBC.png","37"
"image-keyboard-response","540","686586","0.0-4.0-1.173","11","Low_HMMActual","229.5049999956973","","","","Images/BlackBeadChoice.png","37"
"image-keyboard-response","541","687287","0.0-4.0-2.173","11","Low_HMMActual","68.26000000000931","","","","Images/BlackBeadChoiceWrong.png","37"
"image-keyboard-response","542","688955","0.0-4.0-0.174","11","Low_HMMActual","1667.025000002468","","","","Images/NewTrialWC.png","37"
"image-keyboard-response","543","689356","0.0-4.0-1.174","11","Low_HMMActual","null","","","","Images/BlackBeadChoice.png","null"
"image-keyboard-response","544","690058","0.0-4.0-2.174","11","Low_HMMActual","null","","","","Images/BlackBeadChoiceCorrect.png","null"
"image-keyboard-response","545","690095","0.0-4.0-0.175","11","Low_HMMActual","36.56999999657273","","","","Images/NewTrialBC.png","37"
"image-keyboard-response","546","690496","0.0-4.0-1.175","11","Low_HMMActual","null","","","","Images/BlackBeadChoice.png","null"
"image-keyboard-response","547","691199","0.0-4.0-2.175","11","Low_HMMActual","418.8250000006519","","","","Images/BlackBeadChoiceCorrect.png","39"
"image-keyboard-response","548","691235","0.0-4.0-0.176","11","Low_HMMActual","35.82999997888692","","","","Images/NewTrialBC.png","37"
"image-keyboard-response","549","691636","0.0-4.0-1.176","11","Low_HMMActual","209.28499998990446","","","","Images/BlackBeadChoice.png","37"
"image-keyboard-response","550","692339","0.0-4.0-2.176","11","Low_HMMActual","17.834999976912513","","","","Images/BlackBeadChoiceCorrect.png","37"
"image-keyboard-response","551","692535","0.0-4.0-0.177","11","Low_HMMActual","195.29500001226552","","","","Images/NewTrialBC.png","37"
"image-keyboard-response","552","692937","0.0-4.0-1.177","11","Low_HMMActual","229.46000000229105","","","","Images/BlackBeadChoice.png","37"
"image-keyboard-response","553","693639","0.0-4.0-2.177","11","Low_HMMActual","null","","","","Images/BlackBeadChoiceCorrect.png","null"
"image-keyboard-response","554","693805","0.0-4.0-0.178","11","Low_HMMActual","165.88500002399087","","","","Images/NewTrialBC.png","37"
"image-keyboard-response","555","694207","0.0-4.0-1.178","11","Low_HMMActual","null","","","","Images/BlackBeadChoice.png","null"
"image-keyboard-response","556","694909","0.0-4.0-2.178","11","Low_HMMActual","297.16999997617677","","","","Images/BlackBeadChoiceCorrect.png","37"
"image-keyboard-response","557","694956","0.0-4.0-0.179","11","Low_HMMActual","45.934999972814694","","","","Images/NewTrialBC.png","37"
"image-keyboard-response","558","695358","0.0-4.0-1.179","11","Low_HMMActual","189.03999999747612","","","","Images/BlackBeadChoice.png","37"
"image-keyboard-response","559","696060","0.0-4.0-2.179","11","Low_HMMActual","null","","","","Images/BlackBeadChoiceCorrect.png","null"
"image-keyboard-response","560","696416","0.0-4.0-0.180","11","Low_HMMActual","354.3599999975413","","","","Images/NewTrialBC.png","37"
"image-keyboard-response","561","696818","0.0-4.0-1.180","11","Low_HMMActual","null","","","","Images/BlackBeadChoice.png","null"
"image-keyboard-response","562","697519","0.0-4.0-2.180","11","Low_HMMActual","666.9799999799579","","","","Images/BlackBeadChoiceCorrect.png","37"
"image-keyboard-response","563","697735","0.0-4.0-0.181","11","Low_HMMActual","214.83000001171604","","","","Images/NewTrialBC.png","37"
"image-keyboard-response","564","698137","0.0-4.0-1.181","11","Low_HMMActual","null","","","","Images/BlackBeadChoice.png","null"
"image-keyboard-response","565","698839","0.0-4.0-2.181","11","Low_HMMActual","null","","","","Images/BlackBeadChoiceCorrect.png","null"
"image-keyboard-response","566","698875","0.0-4.0-0.182","11","Low_HMMActual","35.10999999707565","","","","Images/NewTrialBC.png","37"
"image-keyboard-response","567","699276","0.0-4.0-1.182","11","Low_HMMActual","null","","","","Images/BlackBeadChoice.png","null"
"image-keyboard-response","568","699978","0.0-4.0-2.182","11","Low_HMMActual","488.53000000235625","","","","Images/BlackBeadChoiceCorrect.png","37"
"image-keyboard-response","569","700355","0.0-4.0-0.183","11","Low_HMMActual","376.7400000069756","","","","Images/NewTrialBC.png","37"
"image-keyboard-response","570","700757","0.0-4.0-1.183","11","Low_HMMActual","null","","","","Images/BlackBeadChoice.png","null"
"image-keyboard-response","571","701459","0.0-4.0-2.183","11","Low_HMMActual","677.4049999949057","","","","Images/BlackBeadChoiceCorrect.png","37"
"image-keyboard-response","572","701815","0.0-4.0-0.184","11","Low_HMMActual","355.4299999959767","","","","Images/NewTrialBC.png","37"
"image-keyboard-response","573","702217","0.0-4.0-1.184","11","Low_HMMActual","null","","","","Images/BlackBeadChoice.png","null"
"image-keyboard-response","574","702931","0.0-4.0-2.184","11","Low_HMMActual","388.8600000063889","","","","Images/BlackBeadChoiceCorrect.png","37"
"image-keyboard-response","575","703195","0.0-4.0-0.185","11","Low_HMMActual","262.91000001947396","","","","Images/NewTrialBC.png","37"
"image-keyboard-response","576","703597","0.0-4.0-1.185","11","Low_HMMActual","290.47999999602325","","","","Images/BlackBeadChoice.png","37"
"image-keyboard-response","577","704299","0.0-4.0-2.185","11","Low_HMMActual","567.3950000200421","","","","Images/BlackBeadChoiceCorrect.png","37"
"image-keyboard-response","578","704416","0.0-4.0-0.186","11","Low_HMMActual","116.34999999660067","","","","Images/NewTrialBC.png","37"
"image-keyboard-response","579","704818","0.0-4.0-1.186","11","Low_HMMActual","null","","","","Images/BlackBeadChoice.png","null"
"image-keyboard-response","580","705520","0.0-4.0-2.186","11","Low_HMMActual","null","","","","Images/BlackBeadChoiceCorrect.png","null"
"image-keyboard-response","581","705956","0.0-4.0-0.187","11","Low_HMMActual","435.1050000113901","","","","Images/NewTrialBC.png","37"
"image-keyboard-response","582","706358","0.0-4.0-1.187","11","Low_HMMActual","null","","","","Images/BlackBeadChoice.png","null"
"image-keyboard-response","583","707060","0.0-4.0-2.187","11","Low_HMMActual","null","","","","Images/BlackBeadChoiceCorrect.png","null"
"image-keyboard-response","584","707316","0.0-4.0-0.188","11","Low_HMMActual","255.37500000791624","","","","Images/NewTrialBC.png","39"
"image-keyboard-response","585","707717","0.0-4.0-1.188","11","Low_HMMActual","null","","","","Images/WhiteBeadChoice.png","null"
"image-keyboard-response","586","708419","0.0-4.0-2.188","11","Low_HMMActual","null","","","","Images/WhiteBeadChoiceWrong.png","null"
"image-keyboard-response","587","708686","0.0-4.0-0.189","11","Low_HMMActual","266.63500000722706","","","","Images/NewTrialBC.png","39"
"image-keyboard-response","588","709088","0.0-4.0-1.189","11","Low_HMMActual","null","","","","Images/WhiteBeadChoice.png","null"
"image-keyboard-response","589","709790","0.0-4.0-2.189","11","Low_HMMActual","null","","","","Images/WhiteBeadChoiceWrong.png","null"
"image-keyboard-response","590","710066","0.0-4.0-0.190","11","Low_HMMActual","275.9549999900628","","","","Images/NewTrialBC.png","37"
"image-keyboard-response","591","710468","0.0-4.0-1.190","11","Low_HMMActual","null","","","","Images/BlackBeadChoice.png","null"
"image-keyboard-response","592","711170","0.0-4.0-2.190","11","Low_HMMActual","null","","","","Images/BlackBeadChoiceCorrect.png","null"
"image-keyboard-response","593","711506","0.0-4.0-0.191","11","Low_HMMActual","334.94999998947605","","","","Images/NewTrialBC.png","37"
"image-keyboard-response","594","711909","0.0-4.0-1.191","11","Low_HMMActual","null","","","","Images/BlackBeadChoice.png","null"
"image-keyboard-response","595","712610","0.0-4.0-2.191","11","Low_HMMActual","null","","","","Images/BlackBeadChoiceWrong.png","null"
"image-keyboard-response","596","713066","0.0-4.0-0.192","11","Low_HMMActual","455.3450000239536","","","","Images/NewTrialWC.png","39"
"image-keyboard-response","597","713467","0.0-4.0-1.192","11","Low_HMMActual","null","","","","Images/WhiteBeadChoice.png","null"
"image-keyboard-response","598","714169","0.0-4.0-2.192","11","Low_HMMActual","null","","","","Images/WhiteBeadChoiceWrong.png","null"
"image-keyboard-response","599","714357","0.0-4.0-0.193","11","Low_HMMActual","186.8300000205636","","","","Images/NewTrialBC.png","39"
"image-keyboard-response","600","714758","0.0-4.0-1.193","11","Low_HMMActual","null","","","","Images/WhiteBeadChoice.png","null"
"image-keyboard-response","601","715459","0.0-4.0-2.193","11","Low_HMMActual","387.5199999893084","","","","Images/WhiteBeadChoiceWrong.png","39"
"image-keyboard-response","602","715466","0.0-4.0-0.194","11","Low_HMMActual","5.869999993592501","","","","Images/NewTrialBC.png","39"
"image-keyboard-response","603","715868","0.0-4.0-1.194","11","Low_HMMActual","null","","","","Images/WhiteBeadChoice.png","null"
"image-keyboard-response","604","716570","0.0-4.0-2.194","11","Low_HMMActual","297.244999994291","","","","Images/WhiteBeadChoiceWrong.png","39"
"image-keyboard-response","605","716856","0.0-4.0-0.195","11","Low_HMMActual","285.1900000241585","","","","Images/NewTrialBC.png","39"
"image-keyboard-response","606","717258","0.0-4.0-1.195","11","Low_HMMActual","null","","","","Images/WhiteBeadChoice.png","null"
"image-keyboard-response","607","717961","0.0-4.0-2.195","11","Low_HMMActual","457.04499998828396","","","","Images/WhiteBeadChoiceWrong.png","39"
"image-keyboard-response","608","718006","0.0-4.0-0.196","11","Low_HMMActual","44.679999991785735","","","","Images/NewTrialBC.png","39"
"image-keyboard-response","609","718408","0.0-4.0-1.196","11","Low_HMMActual","null","","","","Images/WhiteBeadChoice.png","null"
"image-keyboard-response","610","719110","0.0-4.0-2.196","11","Low_HMMActual","null","","","","Images/WhiteBeadChoiceWrong.png","null"
"image-keyboard-response","611","719466","0.0-4.0-0.197","11","Low_HMMActual","355.7999999902677","","","","Images/NewTrialBC.png","37"
"image-keyboard-response","612","719867","0.0-4.0-1.197","11","Low_HMMActual","null","","","","Images/BlackBeadChoice.png","null"
"image-keyboard-response","613","720569","0.0-4.0-2.197","11","Low_HMMActual","null","","","","Images/BlackBeadChoiceWrong.png","null"
"image-keyboard-response","614","724756","0.0-4.0-0.198","11","Low_HMMActual","4185.365000012098","","","","Images/NewTrialWC.png","37"
"image-keyboard-response","615","725158","0.0-4.0-1.198","11","Low_HMMActual","null","","","","Images/BlackBeadChoice.png","null"
"image-keyboard-response","616","725860","0.0-4.0-2.198","11","Low_HMMActual","null","","","","Images/BlackBeadChoiceCorrect.png","null"
"image-keyboard-response","617","725896","0.0-4.0-0.199","11","Low_HMMActual","34.91499999654479","","","","Images/NewTrialBC.png","37"
"image-keyboard-response","618","726297","0.0-4.0-1.199","11","Low_HMMActual","null","","","","Images/BlackBeadChoice.png","null"
"image-keyboard-response","619","726999","0.0-4.0-2.199","11","Low_HMMActual","618.1649999925867","","","","Images/BlackBeadChoiceCorrect.png","37"
"image-keyboard-response","620","728467","0.0-4.0-0.200","11","Low_HMMActual","1466.6500000166707","","","","Images/NewTrialBC.png","37"
"image-keyboard-response","621","728867","0.0-4.0-1.200","11","Low_HMMActual","null","","","","Images/BlackBeadChoice.png","null"
"image-keyboard-response","622","729568","0.0-4.0-2.200","11","Low_HMMActual","null","","","","Images/BlackBeadChoiceWrong.png","null"
"image-keyboard-response","623","731207","0.0-4.0-0.201","11","Low_HMMActual","1637.1500000241213","","","","Images/NewTrialWC.png","37"
"image-keyboard-response","624","731608","0.0-4.0-1.201","11","Low_HMMActual","null","","","","Images/BlackBeadChoice.png","null"
"image-keyboard-response","625","732310","0.0-4.0-2.201","11","Low_HMMActual","null","","","","Images/BlackBeadChoiceCorrect.png","null"
"image-keyboard-response","626","734667","0.0-4.0-0.202","11","Low_HMMActual","2355.3249999822583","","","","Images/NewTrialBC.png","37"
"image-keyboard-response","627","735067","0.0-4.0-1.202","11","Low_HMMActual","null","","","","Images/BlackBeadChoice.png","null"
"image-keyboard-response","628","735770","0.0-4.0-2.202","11","Low_HMMActual","698.0399999883957","","","","Images/BlackBeadChoiceCorrect.png","37"
"image-keyboard-response","629","736017","0.0-4.0-0.203","11","Low_HMMActual","245.9099999978207","","","","Images/NewTrialBC.png","37"
"image-keyboard-response","630","736418","0.0-4.0-1.203","11","Low_HMMActual","218.95999999833293","","","","Images/BlackBeadChoice.png","37"
"image-keyboard-response","631","737119","0.0-4.0-2.203","11","Low_HMMActual","null","","","","Images/BlackBeadChoiceWrong.png","null"
"image-keyboard-response","632","738196","0.0-4.0-0.204","11","Low_HMMActual","1075.909999985015","","","","Images/NewTrialWC.png","39"
"image-keyboard-response","633","738598","0.0-4.0-1.204","11","Low_HMMActual","null","","","","Images/WhiteBeadChoice.png","null"
"image-keyboard-response","634","739299","0.0-4.0-2.204","11","Low_HMMActual","null","","","","Images/WhiteBeadChoiceCorrect.png","null"
"image-keyboard-response","635","739546","0.0-4.0-0.205","11","Low_HMMActual","246.27000000327826","","","","Images/NewTrialWC.png","39"
"image-keyboard-response","636","739947","0.0-4.0-1.205","11","Low_HMMActual","null","","","","Images/WhiteBeadChoice.png","null"
"image-keyboard-response","637","740649","0.0-4.0-2.205","11","Low_HMMActual","null","","","","Images/WhiteBeadChoiceCorrect.png","null"
"image-keyboard-response","638","740716","0.0-4.0-0.206","11","Low_HMMActual","66.62500000675209","","","","Images/NewTrialWC.png","39"
"image-keyboard-response","639","741117","0.0-4.0-1.206","11","Low_HMMActual","null","","","","Images/WhiteBeadChoice.png","null"
"image-keyboard-response","640","741818","0.0-4.0-2.206","11","Low_HMMActual","658.0200000025798","","","","Images/WhiteBeadChoiceCorrect.png","39"
"image-keyboard-response","641","742066","0.0-4.0-0.207","11","Low_HMMActual","246.89999999827705","","","","Images/NewTrialWC.png","39"
"image-keyboard-response","642","742469","0.0-4.0-1.207","11","Low_HMMActual","null","","","","Images/WhiteBeadChoice.png","null"
"image-keyboard-response","643","743170","0.0-4.0-2.207","11","Low_HMMActual","377.02499999431893","","","","Images/WhiteBeadChoiceCorrect.png","39"
"image-keyboard-response","644","743376","0.0-4.0-0.208","11","Low_HMMActual","204.88000000477768","","","","Images/NewTrialWC.png","39"
"image-keyboard-response","645","743777","0.0-4.0-1.208","11","Low_HMMActual","239.39500001142733","","","","Images/WhiteBeadChoice.png","39"
"image-keyboard-response","646","744478","0.0-4.0-2.208","11","Low_HMMActual","358.5049999819603","","","","Images/WhiteBeadChoiceCorrect.png","39"
"image-keyboard-response","647","744566","0.0-4.0-0.209","11","Low_HMMActual","86.81000000797212","","","","Images/NewTrialWC.png","39"
"image-keyboard-response","648","744968","0.0-4.0-1.209","11","Low_HMMActual","null","","","","Images/WhiteBeadChoice.png","null"
"image-keyboard-response","649","745670","0.0-4.0-2.209","11","Low_HMMActual","267.56499998737127","","","","Images/WhiteBeadChoiceCorrect.png","39"
"image-keyboard-response","650","745846","0.0-4.0-0.210","11","Low_HMMActual","174.86999998800457","","","","Images/NewTrialWC.png","39"
"image-keyboard-response","651","746249","0.0-4.0-1.210","11","Low_HMMActual","null","","","","Images/WhiteBeadChoice.png","null"
"image-keyboard-response","652","746951","0.0-4.0-2.210","11","Low_HMMActual","96.92499999073334","","","","Images/WhiteBeadChoiceCorrect.png","39"
"image-keyboard-response","653","747036","0.0-4.0-0.211","11","Low_HMMActual","84.78499998454936","","","","Images/NewTrialWC.png","39"
"image-keyboard-response","654","747437","0.0-4.0-1.211","11","Low_HMMActual","189.29999999818392","","","","Images/WhiteBeadChoice.png","39"
"image-keyboard-response","655","748138","0.0-4.0-2.211","11","Low_HMMActual","88.39499999885447","","","","Images/WhiteBeadChoiceWrong.png","39"
"image-keyboard-response","656","748176","0.0-4.0-0.212","11","Low_HMMActual","36.85500001301989","","","","Images/NewTrialBC.png","37"
"image-keyboard-response","657","748578","0.0-4.0-1.212","11","Low_HMMActual","null","","","","Images/BlackBeadChoice.png","null"
"image-keyboard-response","658","749279","0.0-4.0-2.212","11","Low_HMMActual","297.2850000078324","","","","Images/BlackBeadChoiceWrong.png","37"
"image-keyboard-response","659","749486","0.0-4.0-0.213","11","Low_HMMActual","206.1249999969732","","","","Images/NewTrialWC.png","39"
"image-keyboard-response","660","749888","0.0-4.0-1.213","11","Low_HMMActual","null","","","","Images/WhiteBeadChoice.png","null"
"image-keyboard-response","661","750590","0.0-4.0-2.213","11","Low_HMMActual","247.1349999832455","","","","Images/WhiteBeadChoiceCorrect.png","39"
"image-keyboard-response","662","750596","0.0-4.0-0.214","11","Low_HMMActual","5.169999989448115","","","","Images/NewTrialWC.png","39"
"image-keyboard-response","663","750998","0.0-4.0-1.214","11","Low_HMMActual","null","","","","Images/WhiteBeadChoice.png","null"
"image-keyboard-response","664","751700","0.0-4.0-2.214","11","Low_HMMActual","257.1600000082981","","","","Images/WhiteBeadChoiceCorrect.png","39"
"image-keyboard-response","665","751886","0.0-4.0-0.215","11","Low_HMMActual","185.71499999961816","","","","Images/NewTrialWC.png","39"
"image-keyboard-response","666","752289","0.0-4.0-1.215","11","Low_HMMActual","229.3749999953434","","","","Images/WhiteBeadChoice.png","39"
"image-keyboard-response","667","752990","0.0-4.0-2.215","11","Low_HMMActual","256.889999989653","","","","Images/WhiteBeadChoiceCorrect.png","39"
"image-keyboard-response","668","753036","0.0-4.0-0.216","11","Low_HMMActual","45.43500000727363","","","","Images/NewTrialWC.png","39"
"image-keyboard-response","669","753438","0.0-4.0-1.216","11","Low_HMMActual","249.5049999852199","","","","Images/WhiteBeadChoice.png","39"
"image-keyboard-response","670","754140","0.0-4.0-2.216","11","Low_HMMActual","497.7799999760464","","","","Images/WhiteBeadChoiceWrong.png","37"
"image-keyboard-response","671","754196","0.0-4.0-0.217","11","Low_HMMActual","55.72499998379499","","","","Images/NewTrialBC.png","37"
"image-keyboard-response","672","754598","0.0-4.0-1.217","11","Low_HMMActual","null","","","","Images/BlackBeadChoice.png","null"
"image-keyboard-response","673","755300","0.0-4.0-2.217","11","Low_HMMActual","307.3399999993853","","","","Images/BlackBeadChoiceCorrect.png","37"
"image-keyboard-response","674","755477","0.0-4.0-0.218","11","Low_HMMActual","176.2250000028871","","","","Images/NewTrialBC.png","37"
"image-keyboard-response","675","755879","0.0-4.0-1.218","11","Low_HMMActual","238.7800000142306","","","","Images/BlackBeadChoice.png","37"
"image-keyboard-response","676","756580","0.0-4.0-2.218","11","Low_HMMActual","206.76000000094064","","","","Images/BlackBeadChoiceCorrect.png","37"
"image-keyboard-response","677","756846","0.0-4.0-0.219","11","Low_HMMActual","265.24499998777173","","","","Images/NewTrialBC.png","37"
"image-keyboard-response","678","757248","0.0-4.0-1.219","11","Low_HMMActual","249.32000000262633","","","","Images/BlackBeadChoice.png","37"
"image-keyboard-response","679","757949","0.0-4.0-2.219","11","Low_HMMActual","237.7400000113994","","","","Images/BlackBeadChoiceWrong.png","37"
"image-keyboard-response","680","758136","0.0-4.0-0.220","11","Low_HMMActual","186.01000000489876","","","","Images/NewTrialWC.png","39"
"image-keyboard-response","681","758537","0.0-4.0-1.220","11","Low_HMMActual","null","","","","Images/WhiteBeadChoice.png","null"
"image-keyboard-response","682","759239","0.0-4.0-2.220","11","Low_HMMActual","467.94500001124106","","","","Images/WhiteBeadChoiceWrong.png","37"
"image-keyboard-response","683","759476","0.0-4.0-0.221","11","Low_HMMActual","236.59500002395362","","","","Images/NewTrialBC.png","37"
"image-keyboard-response","684","759878","0.0-4.0-1.221","11","Low_HMMActual","249.30500000482425","","","","Images/BlackBeadChoice.png","37"
"image-keyboard-response","685","760580","0.0-4.0-2.221","11","Low_HMMActual","367.3349999880884","","","","Images/BlackBeadChoiceWrong.png","37"
"image-keyboard-response","686","760906","0.0-4.0-0.222","11","Low_HMMActual","325.45000000391155","","","","Images/NewTrialWC.png","39"
"image-keyboard-response","687","761307","0.0-4.0-1.222","11","Low_HMMActual","null","","","","Images/WhiteBeadChoice.png","null"
"image-keyboard-response","688","762010","0.0-4.0-2.222","11","Low_HMMActual","128.1850000086706","","","","Images/WhiteBeadChoiceCorrect.png","37"
"image-keyboard-response","689","762126","0.0-4.0-0.223","11","Low_HMMActual","115.78500000177883","","","","Images/NewTrialWC.png","37"
"image-keyboard-response","690","762529","0.0-4.0-1.223","11","Low_HMMActual","259.39500000094995","","","","Images/BlackBeadChoice.png","37"
"image-keyboard-response","691","763231","0.0-4.0-2.223","11","Low_HMMActual","276.31499999552034","","","","Images/BlackBeadChoiceWrong.png","37"
"image-keyboard-response","692","763556","0.0-4.0-0.224","11","Low_HMMActual","324.865000002319","","","","Images/NewTrialWC.png","39"
"image-keyboard-response","693","763959","0.0-4.0-1.224","11","Low_HMMActual","198.96500001777895","","","","Images/WhiteBeadChoice.png","39"
"image-keyboard-response","694","764662","0.0-4.0-2.224","11","Low_HMMActual","316.0550000029616","","","","Images/WhiteBeadChoiceCorrect.png","39"
"image-keyboard-response","695","765256","0.0-4.0-0.225","11","Low_HMMActual","593.3900000236463","","","","Images/NewTrialWC.png","39"
"image-keyboard-response","696","765658","0.0-4.0-1.225","11","Low_HMMActual","null","","","","Images/WhiteBeadChoice.png","null"
"image-keyboard-response","697","766359","0.0-4.0-2.225","11","Low_HMMActual","298.10500002349727","","","","Images/WhiteBeadChoiceCorrect.png","39"
"image-keyboard-response","698","766797","0.0-4.0-0.226","11","Low_HMMActual","437.56999998004176","","","","Images/NewTrialWC.png","39"
"image-keyboard-response","699","767200","0.0-4.0-1.226","11","Low_HMMActual","null","","","","Images/WhiteBeadChoice.png","null"
"image-keyboard-response","700","767901","0.0-4.0-2.226","11","Low_HMMActual","186.66000000666827","","","","Images/WhiteBeadChoiceCorrect.png","39"
"image-keyboard-response","701","768056","0.0-4.0-0.227","11","Low_HMMActual","154.39000001060776","","","","Images/NewTrialWC.png","39"
"image-keyboard-response","702","768457","0.0-4.0-1.227","11","Low_HMMActual","270.2550000103656","","","","Images/WhiteBeadChoice.png","39"
"image-keyboard-response","703","769159","0.0-4.0-2.227","11","Low_HMMActual","249.19999999110587","","","","Images/WhiteBeadChoiceCorrect.png","39"
"image-keyboard-response","704","769437","0.0-4.0-0.228","11","Low_HMMActual","276.60500002093613","","","","Images/NewTrialWC.png","39"
"image-keyboard-response","705","769838","0.0-4.0-1.228","11","Low_HMMActual","209.2500000144355","","","","Images/WhiteBeadChoice.png","39"
"image-keyboard-response","706","770540","0.0-4.0-2.228","11","Low_HMMActual","298.320000001695","","","","Images/WhiteBeadChoiceCorrect.png","39"
