"trial_type","trial_index","time_elapsed","internal_node_id","Script_Picker","rt","url","responses","question_order","stimulus","key_press"
"pavlovia","0","2","0.0-0.0","15","","","","","",""
"external-html","1","15002","0.0-1.0-0.0","15","14951.014999998733","consent.html","","","",""
"survey-multi-choice","2","22995","0.0-1.0-1.0","15","7991.3500000257045","","{""Q0"":""Male"",""Q1"":""White""}","[0,1]","",""
"survey-text","3","26291","0.0-1.0-2.0","15","3293.0250000208616","","{""Q0"":""20""}","","",""
"survey-text","4","34021","0.0-1.0-3.0","15","7625.975000031758","","{""Q0"":""5e69161e960d360384aec6e9""}","","",""
"html-keyboard-response","5","51039","0.0-2.0-0.0","15","16914.415000006557","","","","<div class=""container"" style=""height:800px;width:800px;display:flex;flex-direction:column;justify-content:center;align-items:center;text-align:center;font-weight:normal;font-family:Arial;font-size:20px""><p>In this task you will see black or white beads being pulled from jars. <br><br>On each trial, a bead will be pulled from one of two jars. Once you see this bead, your goal is to predict the color of NEXT bead that will be pulled. <br> <br>Every time you correctly guess the color of the NEXT bead, you will get a point. The more points you get, the higher your win bonus at the end of the experiment <br><br>Press the SPACEBAR to continue.</p><div>","32"
"html-keyboard-response","6","64907","0.0-2.0-1.0","15","13866.914999962319","","","","<div class=""container"" style=""height:800px;width:800px;display:flex;flex-direction:column;justify-content:center;align-items:center;text-align:center;font-weight:normal;font-family:Arial;font-size:20px""><p>There are two types of jars:<br><br>1) Jars filled with ONLY white or black beads<br><br>2) Jars filled with 90% white or black beads and 10% of the opposite color mixed in<br><br>Press the SPACEBAR to continue. </p><div>","32"
"image-keyboard-response","7","71187","0.0-2.0-2.0","15","6278.914999973495","","","","resources/WhiteJar_MM.png","32"
"image-keyboard-response","8","72630","0.0-2.0-3.0","15","1442.7100000320934","","","","resources/BlackJar_MM.png","32"
"image-keyboard-response","9","74779","0.0-2.0-4.0","15","2147.8099999949336","","","","resources/WhiteJar_HMM.png","32"
"image-keyboard-response","10","77243","0.0-2.0-5.0","15","2463.6999999638647","","","","resources/BlackJar_HMM.png","32"
"html-keyboard-response","11","96715","0.0-2.0-6.0","15","19471.32499999134","","","","<div class=""container"" style=""height:800px;width:800px;display:flex;flex-direction:column;justify-content:center;align-items:center;text-align:center;font-weight:normal;font-family:Arial;font-size:20px""><p>There will be four blocks of trials. In each block, you will see the pair of jars that beads will be pulled from.<br><br>The pair of jars used in each block will ONLY ever be 100% white and black jars, or 90/10 mixed jars. <br><br>The pair of jars in each block will not change until the next block.<br><br>Here are examples of what you will see on each trial.<br><br>Press the SPACEBAR to continue. </p><div>","32"
"image-keyboard-response","12","103222","0.0-2.0-7.0","15","6506.534999993164","","","","Images/NoChoiceMM.png","32"
"image-keyboard-response","13","110759","0.0-2.0-8.0","15","7535.835000046063","","","","Images/NoChoice.png","32"
"html-keyboard-response","14","140471","0.0-2.0-9.0","15","29711.58000000287","","","","<div class=""container"" style=""height:800px;width:800px;display:flex;flex-direction:column;justify-content:center;align-items:center;text-align:center;font-weight:normal;font-family:Arial;font-size:20px""><p> The jar the beads are pulled from is NOT choosen at random on each trial.<br><br>After each prediction, there will be a chance that the jars will switch, and that the next bead will be pulled from the opposite jar as the previous trial.<br><br>In each block, the chance that a jar will switch will either be LOW (the jars will not switch very often), or HIGH (the jars will switch almost all the time).<br><br>At the start of each block, you will be told the probability that the jars will switch on each trial. This switch probability will stay constant throughout the block.<br><br>Press the SPACEBAR to continue. </p><div>","32"
"image-keyboard-response","15","149427","0.0-2.0-10.0","15","8955.020000052173","","","","Images/TutorialBlackJarDrawMM.png","32"
"image-keyboard-response","16","152512","0.0-2.0-11.0","15","3083.3199999760836","","","","Images/TutorialWhiteJarDrawMM.png","32"
"html-keyboard-response","17","166668","0.0-2.0-12.0","15","14155.209999997169","","","","<div class=""container"" style=""height:800px;width:800px;display:flex;flex-direction:column;justify-content:center;align-items:center;text-align:center;font-weight:normal;font-family:Arial;font-size:20px""><p> When the jars are filled with only one color, each bead is guaranteed to have come from the same-colored jar. During these blocks, the best strategy is to use the jar switch probability to predict whether the next bead will be the same or different from the previous trial.<br><br> When the jars contain a mix of black and white beads, you will sometimes see black beads pulled from the mostly white jar, and white beads pulled from the mostly black jar. <br><br>Here is an example.<br><br>Press the SPACEBAR to continue.  </p><div>","32"
"image-keyboard-response","18","171547","0.0-2.0-13.0","15","4878.570000000764","","","","Images/TutorialWhiteJarDrawHMMC.png","32"
"image-keyboard-response","19","174135","0.0-2.0-14.0","15","2587.2950000339188","","","","Images/TutorialBlackJarDrawHMMC.png","32"
"image-keyboard-response","20","175894","0.0-2.0-15.0","15","1758.5249999538064","","","","Images/TutorialBlackJarDrawHMMI.png","32"
"html-keyboard-response","21","188183","0.0-2.0-16.0","15","12288.065000029746","","","","<div class=""container"" style=""height:800px;width:800px;display:flex;flex-direction:column;justify-content:center;align-items:center;text-align:center;font-weight:normal;font-family:Arial;font-size:20px""><p> As you observed, a white bead was pulled from a 90% white jar, the jars switched and a black bead was pulled from the 90% black jar, but then low-probability white bead was pulled from the 90% black jar. <br><br>In these mixed-jar blocks, you will first have to figure out which jar the current bead was pulled from, then use the jar switch probability to predict the color of the next bead.<br><br>Press SPACEBAR to conitnue.</p><div>","32"
"html-keyboard-response","22","193203","0.0-2.0-17.0","15","5019.109999993816","","","","<div class=""container"" style=""height:800px;width:800px;display:flex;flex-direction:column;justify-content:center;align-items:center;text-align:center;font-weight:normal;font-family:Arial;font-size:20px""><p> You will now be given a 3 question quiz to make sure you understand the fundamentals. </p><div>","32"
"image-keyboard-response","23","204275","0.0-2.0-18.0","15","11071.164999972098","","","","Images/TutorialQuestion1.png","39"
"image-keyboard-response","24","216175","0.0-2.0-19.0","15","9775.794999965","","","","Images/TutorialQuestion2.png","38"
"html-keyboard-response","25","239451","0.0-3.0","15","21955.13999997638","","","","<div class=""container"" style=""height:800px;width:800px;display:flex;flex-direction:column;justify-content:center;align-items:center;text-align:center;font-weight:normal;font-family:Arial;font-size:20px""><p>Loading episode&hellip;</p><div>","32"
"image-keyboard-response","26","249154","0.0-4.0-0.0","15","9703.204999968875","","","","Images/NoChoice.png","39"
"image-keyboard-response","27","249406","0.0-4.0-1.0","15","null","","","","Images/WhiteBeadChoice.png","null"
"image-keyboard-response","28","249909","0.0-4.0-2.0","15","null","","","","Images/WhiteBeadChoiceCorrect.png","null"
"image-keyboard-response","29","254414","0.0-4.0-0.1","15","4504.215000022668","","","","Images/NewTrialWC.png","39"
"image-keyboard-response","30","254665","0.0-4.0-1.1","15","null","","","","Images/WhiteBeadChoice.png","null"
"image-keyboard-response","31","255167","0.0-4.0-2.1","15","null","","","","Images/WhiteBeadChoiceCorrect.png","null"
"image-keyboard-response","32","257807","0.0-4.0-0.2","15","2637.9500000039116","","","","Images/NewTrialWC.png","39"
"image-keyboard-response","33","258058","0.0-4.0-1.2","15","null","","","","Images/WhiteBeadChoice.png","null"
"image-keyboard-response","34","258560","0.0-4.0-2.2","15","null","","","","Images/WhiteBeadChoiceCorrect.png","null"
"image-keyboard-response","35","259510","0.0-4.0-0.3","15","948.7850000150502","","","","Images/NewTrialWC.png","39"
"image-keyboard-response","36","259760","0.0-4.0-1.3","15","null","","","","Images/WhiteBeadChoice.png","null"
"image-keyboard-response","37","260261","0.0-4.0-2.3","15","null","","","","Images/WhiteBeadChoiceCorrect.png","null"
"image-keyboard-response","38","260974","0.0-4.0-0.4","15","711.9650000240654","","","","Images/NewTrialWC.png","39"
"image-keyboard-response","39","261227","0.0-4.0-1.4","15","null","","","","Images/WhiteBeadChoice.png","null"
"image-keyboard-response","40","261729","0.0-4.0-2.4","15","null","","","","Images/WhiteBeadChoiceCorrect.png","null"
"image-keyboard-response","41","262078","0.0-4.0-0.5","15","347.890000033658","","","","Images/NewTrialWC.png","39"
"image-keyboard-response","42","262330","0.0-4.0-1.5","15","null","","","","Images/WhiteBeadChoice.png","null"
"image-keyboard-response","43","262832","0.0-4.0-2.5","15","null","","","","Images/WhiteBeadChoiceWrong.png","null"
"image-keyboard-response","44","265203","0.0-4.0-0.6","15","2369.7850000462495","","","","Images/NewTrialBC.png","37"
"image-keyboard-response","45","265454","0.0-4.0-1.6","15","null","","","","Images/BlackBeadChoice.png","null"
"image-keyboard-response","46","265956","0.0-4.0-2.6","15","null","","","","Images/BlackBeadChoiceWrong.png","null"
"image-keyboard-response","47","267722","0.0-4.0-0.7","15","1764.9100000271574","","","","Images/NewTrialWC.png","39"
"image-keyboard-response","48","267974","0.0-4.0-1.7","15","null","","","","Images/WhiteBeadChoice.png","null"
"image-keyboard-response","49","268476","0.0-4.0-2.7","15","null","","","","Images/WhiteBeadChoiceCorrect.png","null"
"image-keyboard-response","50","269547","0.0-4.0-0.8","15","1070.3000000212342","","","","Images/NewTrialWC.png","39"
"image-keyboard-response","51","269798","0.0-4.0-1.8","15","null","","","","Images/WhiteBeadChoice.png","null"
"image-keyboard-response","52","270301","0.0-4.0-2.8","15","null","","","","Images/WhiteBeadChoiceCorrect.png","null"
"image-keyboard-response","53","270970","0.0-4.0-0.9","15","668.7150000361726","","","","Images/NewTrialWC.png","37"
"image-keyboard-response","54","271222","0.0-4.0-1.9","15","null","","","","Images/BlackBeadChoice.png","null"
"image-keyboard-response","55","271724","0.0-4.0-2.9","15","null","","","","Images/BlackBeadChoiceWrong.png","null"
"image-keyboard-response","56","273685","0.0-4.0-0.10","15","1960.4299999773502","","","","Images/NewTrialWC.png","39"
"image-keyboard-response","57","273937","0.0-4.0-1.10","15","null","","","","Images/WhiteBeadChoice.png","null"
"image-keyboard-response","58","274439","0.0-4.0-2.10","15","null","","","","Images/WhiteBeadChoiceCorrect.png","null"
"image-keyboard-response","59","274834","0.0-4.0-0.11","15","392.43000000715256","","","","Images/NewTrialWC.png","39"
"image-keyboard-response","60","275086","0.0-4.0-1.11","15","null","","","","Images/WhiteBeadChoice.png","null"
"image-keyboard-response","61","275588","0.0-4.0-2.11","15","null","","","","Images/WhiteBeadChoiceCorrect.png","null"
"image-keyboard-response","62","275946","0.0-4.0-0.12","15","356.2899999669753","","","","Images/NewTrialWC.png","39"
"image-keyboard-response","63","276198","0.0-4.0-1.12","15","null","","","","Images/WhiteBeadChoice.png","null"
"image-keyboard-response","64","276700","0.0-4.0-2.12","15","null","","","","Images/WhiteBeadChoiceWrong.png","null"
"image-keyboard-response","65","278466","0.0-4.0-0.13","15","1765.2549999766052","","","","Images/NewTrialBC.png","37"
"image-keyboard-response","66","278717","0.0-4.0-1.13","15","null","","","","Images/BlackBeadChoice.png","null"
"image-keyboard-response","67","279219","0.0-4.0-2.13","15","null","","","","Images/BlackBeadChoiceWrong.png","null"
"image-keyboard-response","68","279454","0.0-4.0-0.14","15","233.6500000092201","","","","Images/NewTrialWC.png","39"
"image-keyboard-response","69","279706","0.0-4.0-1.14","15","null","","","","Images/WhiteBeadChoice.png","null"
"image-keyboard-response","70","280209","0.0-4.0-2.14","15","null","","","","Images/WhiteBeadChoiceCorrect.png","null"
"image-keyboard-response","71","280766","0.0-4.0-0.15","15","556.5599999972619","","","","Images/NewTrialWC.png","39"
"image-keyboard-response","72","281017","0.0-4.0-1.15","15","null","","","","Images/WhiteBeadChoice.png","null"
"image-keyboard-response","73","281519","0.0-4.0-2.15","15","null","","","","Images/WhiteBeadChoiceWrong.png","null"
"image-keyboard-response","74","282686","0.0-4.0-0.16","15","1165.5800000298768","","","","Images/NewTrialBC.png","39"
"image-keyboard-response","75","282937","0.0-4.0-1.16","15","null","","","","Images/WhiteBeadChoice.png","null"
"image-keyboard-response","76","283439","0.0-4.0-2.16","15","null","","","","Images/WhiteBeadChoiceCorrect.png","null"
"image-keyboard-response","77","284831","0.0-4.0-0.17","15","1391.6500000050291","","","","Images/NewTrialWC.png","37"
"image-keyboard-response","78","285083","0.0-4.0-1.17","15","null","","","","Images/BlackBeadChoice.png","null"
"image-keyboard-response","79","285584","0.0-4.0-2.17","15","null","","","","Images/BlackBeadChoiceWrong.png","null"
"image-keyboard-response","80","286279","0.0-4.0-0.18","15","693.3500000159256","","","","Images/NewTrialWC.png","39"
"image-keyboard-response","81","286531","0.0-4.0-1.18","15","null","","","","Images/WhiteBeadChoice.png","null"
"image-keyboard-response","82","287033","0.0-4.0-2.18","15","null","","","","Images/WhiteBeadChoiceWrong.png","null"
"image-keyboard-response","83","289111","0.0-4.0-0.19","15","2077.1300000487827","","","","Images/NewTrialBC.png","37"
"image-keyboard-response","84","289362","0.0-4.0-1.19","15","null","","","","Images/BlackBeadChoice.png","null"
"image-keyboard-response","85","289863","0.0-4.0-2.19","15","null","","","","Images/BlackBeadChoiceCorrect.png","null"
"image-keyboard-response","86","290954","0.0-4.0-0.20","15","1090.250000008382","","","","Images/NewTrialBC.png","37"
"image-keyboard-response","87","291206","0.0-4.0-1.20","15","null","","","","Images/BlackBeadChoice.png","null"
"image-keyboard-response","88","291708","0.0-4.0-2.20","15","null","","","","Images/BlackBeadChoiceCorrect.png","null"
"image-keyboard-response","89","292154","0.0-4.0-0.21","15","445.27000002563","","","","Images/NewTrialBC.png","39"
"image-keyboard-response","90","292406","0.0-4.0-1.21","15","null","","","","Images/WhiteBeadChoice.png","null"
"image-keyboard-response","91","292908","0.0-4.0-2.21","15","null","","","","Images/WhiteBeadChoiceWrong.png","null"
"image-keyboard-response","92","293842","0.0-4.0-0.22","15","933.5500000161119","","","","Images/NewTrialBC.png","37"
"image-keyboard-response","93","294094","0.0-4.0-1.22","15","null","","","","Images/BlackBeadChoice.png","null"
"image-keyboard-response","94","294596","0.0-4.0-2.22","15","null","","","","Images/BlackBeadChoiceCorrect.png","null"
"image-keyboard-response","95","294966","0.0-4.0-0.23","15","369.2600000067614","","","","Images/NewTrialBC.png","37"
"image-keyboard-response","96","295217","0.0-4.0-1.23","15","null","","","","Images/BlackBeadChoice.png","null"
"image-keyboard-response","97","295718","0.0-4.0-2.23","15","null","","","","Images/BlackBeadChoiceCorrect.png","null"
"image-keyboard-response","98","296054","0.0-4.0-0.24","15","334.09000001847744","","","","Images/NewTrialBC.png","39"
"image-keyboard-response","99","296306","0.0-4.0-1.24","15","null","","","","Images/WhiteBeadChoice.png","null"
"image-keyboard-response","100","296808","0.0-4.0-2.24","15","null","","","","Images/WhiteBeadChoiceWrong.png","null"
"image-keyboard-response","101","297454","0.0-4.0-0.25","15","645.6149999867193","","","","Images/NewTrialBC.png","37"
"image-keyboard-response","102","297706","0.0-4.0-1.25","15","null","","","","Images/BlackBeadChoice.png","null"
"image-keyboard-response","103","298208","0.0-4.0-2.25","15","null","","","","Images/BlackBeadChoiceCorrect.png","null"
"image-keyboard-response","104","299278","0.0-4.0-0.26","15","1068.8649999792688","","","","Images/NewTrialBC.png","37"
"image-keyboard-response","105","299529","0.0-4.0-1.26","15","null","","","","Images/BlackBeadChoice.png","null"
"image-keyboard-response","106","300032","0.0-4.0-2.26","15","null","","","","Images/BlackBeadChoiceCorrect.png","null"
"image-keyboard-response","107","300390","0.0-4.0-0.27","15","357.2849999764003","","","","Images/NewTrialBC.png","37"
"image-keyboard-response","108","300642","0.0-4.0-1.27","15","null","","","","Images/BlackBeadChoice.png","null"
"image-keyboard-response","109","301144","0.0-4.0-2.27","15","null","","","","Images/BlackBeadChoiceCorrect.png","null"
"image-keyboard-response","110","301498","0.0-4.0-0.28","15","353.05000003427267","","","","Images/NewTrialBC.png","39"
"image-keyboard-response","111","301750","0.0-4.0-1.28","15","null","","","","Images/WhiteBeadChoice.png","null"
"image-keyboard-response","112","302252","0.0-4.0-2.28","15","null","","","","Images/WhiteBeadChoiceCorrect.png","null"
"image-keyboard-response","113","304682","0.0-4.0-0.29","15","2429.6399999875575","","","","Images/NewTrialWC.png","39"
"image-keyboard-response","114","304934","0.0-4.0-1.29","15","null","","","","Images/WhiteBeadChoice.png","null"
"image-keyboard-response","115","305435","0.0-4.0-2.29","15","362.749999971129","","","","Images/WhiteBeadChoiceCorrect.png","39"
"image-keyboard-response","116","305883","0.0-4.0-0.30","15","446.5100000379607","","","","Images/NewTrialWC.png","39"
"image-keyboard-response","117","306134","0.0-4.0-1.30","15","null","","","","Images/WhiteBeadChoice.png","null"
"image-keyboard-response","118","306635","0.0-4.0-2.30","15","null","","","","Images/WhiteBeadChoiceCorrect.png","null"
"image-keyboard-response","119","307229","0.0-4.0-0.31","15","593.2899999897927","","","","Images/NewTrialWC.png","39"
"image-keyboard-response","120","307481","0.0-4.0-1.31","15","null","","","","Images/WhiteBeadChoice.png","null"
"image-keyboard-response","121","307982","0.0-4.0-2.31","15","null","","","","Images/WhiteBeadChoiceCorrect.png","null"
"image-keyboard-response","122","308708","0.0-4.0-0.32","15","724.7050000005402","","","","Images/NewTrialWC.png","39"
"image-keyboard-response","123","308960","0.0-4.0-1.32","15","null","","","","Images/WhiteBeadChoice.png","null"
"image-keyboard-response","124","309462","0.0-4.0-2.32","15","null","","","","Images/WhiteBeadChoiceCorrect.png","null"
"image-keyboard-response","125","310118","0.0-4.0-0.33","15","654.964999994263","","","","Images/NewTrialWC.png","39"
"image-keyboard-response","126","310369","0.0-4.0-1.33","15","null","","","","Images/WhiteBeadChoice.png","null"
"image-keyboard-response","127","310871","0.0-4.0-2.33","15","null","","","","Images/WhiteBeadChoiceWrong.png","null"
"image-keyboard-response","128","311735","0.0-4.0-0.34","15","861.6950000287034","","","","Images/NewTrialBC.png","37"
"image-keyboard-response","129","311986","0.0-4.0-1.34","15","null","","","","Images/BlackBeadChoice.png","null"
"image-keyboard-response","130","312489","0.0-4.0-2.34","15","null","","","","Images/BlackBeadChoiceWrong.png","null"
"image-keyboard-response","131","313836","0.0-4.0-0.35","15","1346.7050000326708","","","","Images/NewTrialWC.png","39"
"image-keyboard-response","132","314087","0.0-4.0-1.35","15","null","","","","Images/WhiteBeadChoice.png","null"
"image-keyboard-response","133","314589","0.0-4.0-2.35","15","null","","","","Images/WhiteBeadChoiceCorrect.png","null"
"image-keyboard-response","134","314910","0.0-4.0-0.36","15","320.7249999977648","","","","Images/NewTrialWC.png","39"
"image-keyboard-response","135","315162","0.0-4.0-1.36","15","null","","","","Images/WhiteBeadChoice.png","null"
"image-keyboard-response","136","315664","0.0-4.0-2.36","15","null","","","","Images/WhiteBeadChoiceCorrect.png","null"
"image-keyboard-response","137","316030","0.0-4.0-0.37","15","364.88499998813495","","","","Images/NewTrialWC.png","39"
"image-keyboard-response","138","316281","0.0-4.0-1.37","15","null","","","","Images/WhiteBeadChoice.png","null"
"image-keyboard-response","139","316784","0.0-4.0-2.37","15","null","","","","Images/WhiteBeadChoiceWrong.png","null"
"image-keyboard-response","140","317430","0.0-4.0-0.38","15","645.2399999834597","","","","Images/NewTrialBC.png","39"
"image-keyboard-response","141","317682","0.0-4.0-1.38","15","null","","","","Images/WhiteBeadChoice.png","null"
"image-keyboard-response","142","318184","0.0-4.0-2.38","15","null","","","","Images/WhiteBeadChoiceCorrect.png","null"
"image-keyboard-response","143","319223","0.0-4.0-0.39","15","1038.2649999810383","","","","Images/NewTrialWC.png","39"
"image-keyboard-response","144","319475","0.0-4.0-1.39","15","null","","","","Images/WhiteBeadChoice.png","null"
"image-keyboard-response","145","319978","0.0-4.0-2.39","15","null","","","","Images/WhiteBeadChoiceWrong.png","null"
"image-keyboard-response","146","321166","0.0-4.0-0.40","15","1188.1350000039674","","","","Images/NewTrialBC.png","39"
"image-keyboard-response","147","321419","0.0-4.0-1.40","15","null","","","","Images/WhiteBeadChoice.png","null"
"image-keyboard-response","148","321920","0.0-4.0-2.40","15","null","","","","Images/WhiteBeadChoiceWrong.png","null"
"image-keyboard-response","149","322347","0.0-4.0-0.41","15","425.29499996453524","","","","Images/NewTrialBC.png","37"
"image-keyboard-response","150","322598","0.0-4.0-1.41","15","null","","","","Images/BlackBeadChoice.png","null"
"image-keyboard-response","151","323101","0.0-4.0-2.41","15","null","","","","Images/BlackBeadChoiceCorrect.png","null"
"image-keyboard-response","152","323634","0.0-4.0-0.42","15","533.1350000342354","","","","Images/NewTrialBC.png","37"
"image-keyboard-response","153","323887","0.0-4.0-1.42","15","null","","","","Images/BlackBeadChoice.png","null"
"image-keyboard-response","154","324389","0.0-4.0-2.42","15","null","","","","Images/BlackBeadChoiceWrong.png","null"
"image-keyboard-response","155","325391","0.0-4.0-0.43","15","1001.3150000013411","","","","Images/NewTrialWC.png","37"
"image-keyboard-response","156","325644","0.0-4.0-1.43","15","null","","","","Images/BlackBeadChoice.png","null"
"image-keyboard-response","157","326145","0.0-4.0-2.43","15","null","","","","Images/BlackBeadChoiceWrong.png","null"
"image-keyboard-response","158","326563","0.0-4.0-0.44","15","415.05000001052395","","","","Images/NewTrialWC.png","39"
"image-keyboard-response","159","326814","0.0-4.0-1.44","15","null","","","","Images/WhiteBeadChoice.png","null"
"image-keyboard-response","160","327315","0.0-4.0-2.44","15","null","","","","Images/WhiteBeadChoiceWrong.png","null"
"image-keyboard-response","161","328082","0.0-4.0-0.45","15","766.0049999831244","","","","Images/NewTrialBC.png","37"
"image-keyboard-response","162","328334","0.0-4.0-1.45","15","null","","","","Images/BlackBeadChoice.png","null"
"image-keyboard-response","163","328836","0.0-4.0-2.45","15","null","","","","Images/BlackBeadChoiceWrong.png","null"
"image-keyboard-response","164","329783","0.0-4.0-0.46","15","944.9649999733083","","","","Images/NewTrialWC.png","39"
"image-keyboard-response","165","330034","0.0-4.0-1.46","15","null","","","","Images/WhiteBeadChoice.png","null"
"image-keyboard-response","166","330536","0.0-4.0-2.46","15","null","","","","Images/WhiteBeadChoiceWrong.png","null"
"image-keyboard-response","167","331023","0.0-4.0-0.47","15","486.2100000027567","","","","Images/NewTrialBC.png","37"
"image-keyboard-response","168","331275","0.0-4.0-1.47","15","null","","","","Images/BlackBeadChoice.png","null"
"image-keyboard-response","169","331777","0.0-4.0-2.47","15","null","","","","Images/BlackBeadChoiceCorrect.png","null"
"image-keyboard-response","170","332595","0.0-4.0-0.48","15","816.8849999783561","","","","Images/NewTrialBC.png","37"
"image-keyboard-response","171","332846","0.0-4.0-1.48","15","null","","","","Images/BlackBeadChoice.png","null"
"image-keyboard-response","172","333348","0.0-4.0-2.48","15","null","","","","Images/BlackBeadChoiceWrong.png","null"
"image-keyboard-response","173","335263","0.0-4.0-0.49","15","1912.3449999606237","","","","Images/NewTrialWC.png","39"
"image-keyboard-response","174","335515","0.0-4.0-1.49","15","null","","","","Images/WhiteBeadChoice.png","null"
"image-keyboard-response","175","336017","0.0-4.0-2.49","15","null","","","","Images/WhiteBeadChoiceCorrect.png","null"
"image-keyboard-response","176","336448","0.0-4.0-0.50","15","429.9449999816716","","","","Images/NewTrialWC.png","39"
"image-keyboard-response","177","336699","0.0-4.0-1.50","15","null","","","","Images/WhiteBeadChoice.png","null"
"image-keyboard-response","178","337200","0.0-4.0-2.50","15","null","","","","Images/WhiteBeadChoiceCorrect.png","null"
"image-keyboard-response","179","337611","0.0-4.0-0.51","15","409.8099999828264","","","","Images/NewTrialWC.png","39"
"image-keyboard-response","180","337864","0.0-4.0-1.51","15","null","","","","Images/WhiteBeadChoice.png","null"
"image-keyboard-response","181","338365","0.0-4.0-2.51","15","null","","","","Images/WhiteBeadChoiceWrong.png","null"
"image-keyboard-response","182","339127","0.0-4.0-0.52","15","761.0700000077486","","","","Images/NewTrialBC.png","37"
"image-keyboard-response","183","339379","0.0-4.0-1.52","15","null","","","","Images/BlackBeadChoice.png","null"
"image-keyboard-response","184","339881","0.0-4.0-2.52","15","null","","","","Images/BlackBeadChoiceWrong.png","null"
"image-keyboard-response","185","340235","0.0-4.0-0.53","15","353.4100000397302","","","","Images/NewTrialWC.png","39"
"image-keyboard-response","186","340486","0.0-4.0-1.53","15","null","","","","Images/WhiteBeadChoice.png","null"
"image-keyboard-response","187","340988","0.0-4.0-2.53","15","null","","","","Images/WhiteBeadChoiceCorrect.png","null"
"image-keyboard-response","188","341809","0.0-4.0-0.54","15","819.4950000033714","","","","Images/NewTrialWC.png","39"
"image-keyboard-response","189","342060","0.0-4.0-1.54","15","null","","","","Images/WhiteBeadChoice.png","null"
"image-keyboard-response","190","342562","0.0-4.0-2.54","15","null","","","","Images/WhiteBeadChoiceCorrect.png","null"
"image-keyboard-response","191","342830","0.0-4.0-0.55","15","267.3899999936111","","","","Images/NewTrialWC.png","37"
"image-keyboard-response","192","343082","0.0-4.0-1.55","15","null","","","","Images/BlackBeadChoice.png","null"
"image-keyboard-response","193","343583","0.0-4.0-2.55","15","null","","","","Images/BlackBeadChoiceWrong.png","null"
"image-keyboard-response","194","344463","0.0-4.0-0.56","15","878.8349999813363","","","","Images/NewTrialWC.png","39"
"image-keyboard-response","195","344714","0.0-4.0-1.56","15","null","","","","Images/WhiteBeadChoice.png","null"
"image-keyboard-response","196","345215","0.0-4.0-2.56","15","null","","","","Images/WhiteBeadChoiceCorrect.png","null"
"image-keyboard-response","197","346947","0.0-4.0-0.57","15","1731.104999955278","","","","Images/NewTrialWC.png","39"
"image-keyboard-response","198","347198","0.0-4.0-1.57","15","null","","","","Images/WhiteBeadChoice.png","null"
"image-keyboard-response","199","347700","0.0-4.0-2.57","15","null","","","","Images/WhiteBeadChoiceCorrect.png","null"
"image-keyboard-response","200","348230","0.0-4.0-0.58","15","529.7949999803677","","","","Images/NewTrialWC.png","37"
"image-keyboard-response","201","348482","0.0-4.0-1.58","15","null","","","","Images/BlackBeadChoice.png","null"
"image-keyboard-response","202","348984","0.0-4.0-2.58","15","null","","","","Images/BlackBeadChoiceWrong.png","null"
"image-keyboard-response","203","349574","0.0-4.0-0.59","15","589.0749999671243","","","","Images/NewTrialWC.png","39"
"image-keyboard-response","204","349826","0.0-4.0-1.59","15","null","","","","Images/WhiteBeadChoice.png","null"
"image-keyboard-response","205","350327","0.0-4.0-2.59","15","null","","","","Images/WhiteBeadChoiceCorrect.png","null"
"image-keyboard-response","206","350975","0.0-4.0-0.60","15","647.4750000052154","","","","Images/NewTrialWC.png","39"
"image-keyboard-response","207","351227","0.0-4.0-1.60","15","null","","","","Images/WhiteBeadChoice.png","null"
"image-keyboard-response","208","351729","0.0-4.0-2.60","15","null","","","","Images/WhiteBeadChoiceCorrect.png","null"
"image-keyboard-response","209","352539","0.0-4.0-0.61","15","809.8800000152551","","","","Images/NewTrialWC.png","39"
"image-keyboard-response","210","352791","0.0-4.0-1.61","15","null","","","","Images/WhiteBeadChoice.png","null"
"image-keyboard-response","211","353292","0.0-4.0-2.61","15","null","","","","Images/WhiteBeadChoiceCorrect.png","null"
"image-keyboard-response","212","353686","0.0-4.0-0.62","15","393.0699999909848","","","","Images/NewTrialWC.png","37"
"image-keyboard-response","213","353936","0.0-4.0-1.62","15","null","","","","Images/BlackBeadChoice.png","null"
"image-keyboard-response","214","354438","0.0-4.0-2.62","15","null","","","","Images/BlackBeadChoiceWrong.png","null"
"image-keyboard-response","215","354947","0.0-4.0-0.63","15","508.9199999929406","","","","Images/NewTrialWC.png","39"
"image-keyboard-response","216","355199","0.0-4.0-1.63","15","null","","","","Images/WhiteBeadChoice.png","null"
"image-keyboard-response","217","355701","0.0-4.0-2.63","15","null","","","","Images/WhiteBeadChoiceCorrect.png","null"
"image-keyboard-response","218","356046","0.0-4.0-0.64","15","345.15000000828877","","","","Images/NewTrialWC.png","39"
"image-keyboard-response","219","356298","0.0-4.0-1.64","15","null","","","","Images/WhiteBeadChoice.png","null"
"image-keyboard-response","220","356800","0.0-4.0-2.64","15","470.9650000440888","","","","Images/WhiteBeadChoiceCorrect.png","39"
"image-keyboard-response","221","357315","0.0-4.0-0.65","15","513.974999950733","","","","Images/NewTrialWC.png","39"
"image-keyboard-response","222","357566","0.0-4.0-1.65","15","null","","","","Images/WhiteBeadChoice.png","null"
"image-keyboard-response","223","358067","0.0-4.0-2.65","15","null","","","","Images/WhiteBeadChoiceWrong.png","null"
"image-keyboard-response","224","358782","0.0-4.0-0.66","15","713.8750000158325","","","","Images/NewTrialBC.png","37"
"image-keyboard-response","225","359033","0.0-4.0-1.66","15","null","","","","Images/BlackBeadChoice.png","null"
"image-keyboard-response","226","359534","0.0-4.0-2.66","15","null","","","","Images/BlackBeadChoiceWrong.png","null"
"image-keyboard-response","227","360792","0.0-4.0-0.67","15","1256.310000026133","","","","Images/NewTrialWC.png","37"
"image-keyboard-response","228","361044","0.0-4.0-1.67","15","null","","","","Images/BlackBeadChoice.png","null"
"image-keyboard-response","229","361546","0.0-4.0-2.67","15","null","","","","Images/BlackBeadChoiceWrong.png","null"
"image-keyboard-response","230","362071","0.0-4.0-0.68","15","523.7249999772757","","","","Images/NewTrialWC.png","39"
"image-keyboard-response","231","362322","0.0-4.0-1.68","15","null","","","","Images/WhiteBeadChoice.png","null"
"image-keyboard-response","232","362824","0.0-4.0-2.68","15","null","","","","Images/WhiteBeadChoiceCorrect.png","null"
"image-keyboard-response","233","363143","0.0-4.0-0.69","15","317.59500002954155","","","","Images/NewTrialWC.png","39"
"image-keyboard-response","234","363395","0.0-4.0-1.69","15","null","","","","Images/WhiteBeadChoice.png","null"
"image-keyboard-response","235","363896","0.0-4.0-2.69","15","null","","","","Images/WhiteBeadChoiceCorrect.png","null"
"image-keyboard-response","236","364214","0.0-4.0-0.70","15","316.49499997729436","","","","Images/NewTrialWC.png","39"
"image-keyboard-response","237","364465","0.0-4.0-1.70","15","null","","","","Images/WhiteBeadChoice.png","null"
"image-keyboard-response","238","364966","0.0-4.0-2.70","15","null","","","","Images/WhiteBeadChoiceCorrect.png","null"
"image-keyboard-response","239","365470","0.0-4.0-0.71","15","502.7849999605678","","","","Images/NewTrialWC.png","39"
"image-keyboard-response","240","365721","0.0-4.0-1.71","15","null","","","","Images/WhiteBeadChoice.png","null"
"image-keyboard-response","241","366223","0.0-4.0-2.71","15","null","","","","Images/WhiteBeadChoiceCorrect.png","null"
"image-keyboard-response","242","366623","0.0-4.0-0.72","15","399.0800000028685","","","","Images/NewTrialWC.png","39"
"image-keyboard-response","243","366875","0.0-4.0-1.72","15","null","","","","Images/WhiteBeadChoice.png","null"
"image-keyboard-response","244","367377","0.0-4.0-2.72","15","null","","","","Images/WhiteBeadChoiceCorrect.png","null"
"image-keyboard-response","245","368151","0.0-4.0-0.73","15","772.9200000176206","","","","Images/NewTrialWC.png","39"
"image-keyboard-response","246","368402","0.0-4.0-1.73","15","null","","","","Images/WhiteBeadChoice.png","null"
"image-keyboard-response","247","368904","0.0-4.0-2.73","15","null","","","","Images/WhiteBeadChoiceCorrect.png","null"
"image-keyboard-response","248","369195","0.0-4.0-0.74","15","290.2499999618158","","","","Images/NewTrialWC.png","39"
"image-keyboard-response","249","369448","0.0-4.0-1.74","15","null","","","","Images/WhiteBeadChoice.png","null"
"image-keyboard-response","250","369950","0.0-4.0-2.74","15","null","","","","Images/WhiteBeadChoiceWrong.png","null"
"image-keyboard-response","251","370515","0.0-4.0-0.75","15","563.495000009425","","","","Images/NewTrialBC.png","37"
"image-keyboard-response","252","370766","0.0-4.0-1.75","15","null","","","","Images/BlackBeadChoice.png","null"
"image-keyboard-response","253","371268","0.0-4.0-2.75","15","null","","","","Images/BlackBeadChoiceCorrect.png","null"
"image-keyboard-response","254","371598","0.0-4.0-0.76","15","329.35999997425824","","","","Images/NewTrialBC.png","37"
"image-keyboard-response","255","371851","0.0-4.0-1.76","15","null","","","","Images/BlackBeadChoice.png","null"
"image-keyboard-response","256","372353","0.0-4.0-2.76","15","null","","","","Images/BlackBeadChoiceWrong.png","null"
"image-keyboard-response","257","373744","0.0-4.0-0.77","15","1390.2400000370108","","","","Images/NewTrialWC.png","39"
"image-keyboard-response","258","373996","0.0-4.0-1.77","15","null","","","","Images/WhiteBeadChoice.png","null"
"image-keyboard-response","259","374497","0.0-4.0-2.77","15","null","","","","Images/WhiteBeadChoiceWrong.png","null"
"image-keyboard-response","260","374854","0.0-4.0-0.78","15","355.5649999761954","","","","Images/NewTrialBC.png","39"
"image-keyboard-response","261","375105","0.0-4.0-1.78","15","null","","","","Images/WhiteBeadChoice.png","null"
"image-keyboard-response","262","375606","0.0-4.0-2.78","15","null","","","","Images/WhiteBeadChoiceWrong.png","null"
"image-keyboard-response","263","376078","0.0-4.0-0.79","15","470.279999950435","","","","Images/NewTrialBC.png","39"
"image-keyboard-response","264","376330","0.0-4.0-1.79","15","null","","","","Images/WhiteBeadChoice.png","null"
"image-keyboard-response","265","376831","0.0-4.0-2.79","15","null","","","","Images/WhiteBeadChoiceWrong.png","null"
"image-keyboard-response","266","377171","0.0-4.0-0.80","15","338.36500003235415","","","","Images/NewTrialBC.png","37"
"image-keyboard-response","267","377423","0.0-4.0-1.80","15","null","","","","Images/BlackBeadChoice.png","null"
"image-keyboard-response","268","377925","0.0-4.0-2.80","15","null","","","","Images/BlackBeadChoiceCorrect.png","null"
"image-keyboard-response","269","378282","0.0-4.0-0.81","15","356.0050000087358","","","","Images/NewTrialBC.png","37"
"image-keyboard-response","270","378533","0.0-4.0-1.81","15","null","","","","Images/BlackBeadChoice.png","null"
"image-keyboard-response","271","379035","0.0-4.0-2.81","15","null","","","","Images/BlackBeadChoiceCorrect.png","null"
"image-keyboard-response","272","379782","0.0-4.0-0.82","15","746.1250000051223","","","","Images/NewTrialBC.png","37"
"image-keyboard-response","273","380034","0.0-4.0-1.82","15","null","","","","Images/BlackBeadChoice.png","null"
"image-keyboard-response","274","380537","0.0-4.0-2.82","15","null","","","","Images/BlackBeadChoiceCorrect.png","null"
"image-keyboard-response","275","381019","0.0-4.0-0.83","15","480.49000004539266","","","","Images/NewTrialBC.png","39"
"image-keyboard-response","276","381271","0.0-4.0-1.83","15","null","","","","Images/WhiteBeadChoice.png","null"
"image-keyboard-response","277","381773","0.0-4.0-2.83","15","null","","","","Images/WhiteBeadChoiceWrong.png","null"
"image-keyboard-response","278","382203","0.0-4.0-0.84","15","429.29000000003725","","","","Images/NewTrialBC.png","37"
"image-keyboard-response","279","382456","0.0-4.0-1.84","15","null","","","","Images/BlackBeadChoice.png","null"
"image-keyboard-response","280","382958","0.0-4.0-2.84","15","null","","","","Images/BlackBeadChoiceWrong.png","null"
"image-keyboard-response","281","384031","0.0-4.0-0.85","15","1072.1100000082515","","","","Images/NewTrialWC.png","39"
"image-keyboard-response","282","384283","0.0-4.0-1.85","15","null","","","","Images/WhiteBeadChoice.png","null"
"image-keyboard-response","283","384786","0.0-4.0-2.85","15","null","","","","Images/WhiteBeadChoiceWrong.png","null"
"image-keyboard-response","284","385803","0.0-4.0-0.86","15","1016.2000000127591","","","","Images/NewTrialBC.png","39"
"image-keyboard-response","285","386054","0.0-4.0-1.86","15","null","","","","Images/WhiteBeadChoice.png","null"
"image-keyboard-response","286","386556","0.0-4.0-2.86","15","null","","","","Images/WhiteBeadChoiceWrong.png","null"
"image-keyboard-response","287","387038","0.0-4.0-0.87","15","481.29500000504777","","","","Images/NewTrialBC.png","37"
"image-keyboard-response","288","387290","0.0-4.0-1.87","15","null","","","","Images/BlackBeadChoice.png","null"
"image-keyboard-response","289","387791","0.0-4.0-2.87","15","null","","","","Images/BlackBeadChoiceCorrect.png","null"
"image-keyboard-response","290","388174","0.0-4.0-0.88","15","382.34000001102686","","","","Images/NewTrialBC.png","39"
"image-keyboard-response","291","388426","0.0-4.0-1.88","15","null","","","","Images/WhiteBeadChoice.png","null"
"image-keyboard-response","292","388929","0.0-4.0-2.88","15","null","","","","Images/WhiteBeadChoiceWrong.png","null"
"image-keyboard-response","293","389280","0.0-4.0-0.89","15","349.965000001248","","","","Images/NewTrialBC.png","37"
"image-keyboard-response","294","389531","0.0-4.0-1.89","15","null","","","","Images/BlackBeadChoice.png","null"
"image-keyboard-response","295","390034","0.0-4.0-2.89","15","null","","","","Images/BlackBeadChoiceWrong.png","null"
"image-keyboard-response","296","391495","0.0-4.0-0.90","15","1460.5299999821","","","","Images/NewTrialWC.png","37"
"image-keyboard-response","297","391748","0.0-4.0-1.90","15","null","","","","Images/BlackBeadChoice.png","null"
"image-keyboard-response","298","392249","0.0-4.0-2.90","15","null","","","","Images/BlackBeadChoiceCorrect.png","null"
"image-keyboard-response","299","392938","0.0-4.0-0.91","15","688.0399999790825","","","","Images/NewTrialBC.png","37"
"image-keyboard-response","300","393191","0.0-4.0-1.91","15","null","","","","Images/BlackBeadChoice.png","null"
"image-keyboard-response","301","393694","0.0-4.0-2.91","15","null","","","","Images/BlackBeadChoiceCorrect.png","null"
"image-keyboard-response","302","394067","0.0-4.0-0.92","15","371.9749999581836","","","","Images/NewTrialBC.png","37"
"image-keyboard-response","303","394318","0.0-4.0-1.92","15","null","","","","Images/BlackBeadChoice.png","null"
"image-keyboard-response","304","394820","0.0-4.0-2.92","15","null","","","","Images/BlackBeadChoiceCorrect.png","null"
"image-keyboard-response","305","395551","0.0-4.0-0.93","15","730.0749999703839","","","","Images/NewTrialBC.png","39"
"image-keyboard-response","306","395803","0.0-4.0-1.93","15","null","","","","Images/WhiteBeadChoice.png","null"
"image-keyboard-response","307","396305","0.0-4.0-2.93","15","null","","","","Images/WhiteBeadChoiceWrong.png","null"
"image-keyboard-response","308","396888","0.0-4.0-0.94","15","581.8800000124611","","","","Images/NewTrialBC.png","39"
"image-keyboard-response","309","397140","0.0-4.0-1.94","15","null","","","","Images/WhiteBeadChoice.png","null"
"image-keyboard-response","310","397642","0.0-4.0-2.94","15","null","","","","Images/WhiteBeadChoiceCorrect.png","null"
"image-keyboard-response","311","398774","0.0-4.0-0.95","15","1131.2950000283308","","","","Images/NewTrialWC.png","39"
"image-keyboard-response","312","399025","0.0-4.0-1.95","15","null","","","","Images/WhiteBeadChoice.png","null"
"image-keyboard-response","313","399526","0.0-4.0-2.95","15","null","","","","Images/WhiteBeadChoiceCorrect.png","null"
"image-keyboard-response","314","399647","0.0-4.0-0.96","15","119.78499998804182","","","","Images/NewTrialWC.png","39"
"image-keyboard-response","315","399899","0.0-4.0-1.96","15","null","","","","Images/WhiteBeadChoice.png","null"
"image-keyboard-response","316","400401","0.0-4.0-2.96","15","null","","","","Images/WhiteBeadChoiceCorrect.png","null"
"image-keyboard-response","317","400487","0.0-4.0-0.97","15","85.14000003924593","","","","Images/NewTrialWC.png","37"
"image-keyboard-response","318","400738","0.0-4.0-1.97","15","null","","","","Images/BlackBeadChoice.png","null"
"image-keyboard-response","319","401239","0.0-4.0-2.97","15","null","","","","Images/BlackBeadChoiceWrong.png","null"
"image-keyboard-response","320","401785","0.0-4.0-0.98","15","543.9250000054017","","","","Images/NewTrialWC.png","39"
"image-keyboard-response","321","402036","0.0-4.0-1.98","15","null","","","","Images/WhiteBeadChoice.png","null"
"image-keyboard-response","322","402538","0.0-4.0-2.98","15","null","","","","Images/WhiteBeadChoiceWrong.png","null"
"image-keyboard-response","323","405027","0.0-4.0-0.99","15","2488.7999999918975","","","","Images/NewTrialBC.png","37"
"image-keyboard-response","324","405279","0.0-4.0-1.99","15","null","","","","Images/BlackBeadChoice.png","null"
"image-keyboard-response","325","405781","0.0-4.0-2.99","15","null","","","","Images/BlackBeadChoiceCorrect.png","null"
"image-keyboard-response","326","410362","0.0-4.0-0.100","15","4579.919999989215","","","","Images/NewTrialBC.png","37"
"image-keyboard-response","327","410613","0.0-4.0-1.100","15","null","","","","Images/BlackBeadChoice.png","null"
"image-keyboard-response","328","411115","0.0-4.0-2.100","15","null","","","","Images/BlackBeadChoiceWrong.png","null"
"image-keyboard-response","329","412455","0.0-4.0-0.101","15","1338.2399999536574","","","","Images/NewTrialWC.png","37"
"image-keyboard-response","330","412707","0.0-4.0-1.101","15","null","","","","Images/BlackBeadChoice.png","null"
"image-keyboard-response","331","413209","0.0-4.0-2.101","15","null","","","","Images/BlackBeadChoiceWrong.png","null"
"image-keyboard-response","332","413902","0.0-4.0-0.102","15","692.414999997709","","","","Images/NewTrialWC.png","37"
"image-keyboard-response","333","414155","0.0-4.0-1.102","15","null","","","","Images/BlackBeadChoice.png","null"
"image-keyboard-response","334","414657","0.0-4.0-2.102","15","null","","","","Images/BlackBeadChoiceWrong.png","null"
"image-keyboard-response","335","414667","0.0-4.0-0.103","15","8.190000022295862","","","","Images/NewTrialWC.png","39"
"image-keyboard-response","336","414919","0.0-4.0-1.103","15","null","","","","Images/WhiteBeadChoice.png","null"
"image-keyboard-response","337","415421","0.0-4.0-2.103","15","347.0550000201911","","","","Images/WhiteBeadChoiceCorrect.png","37"
"image-keyboard-response","338","416491","0.0-4.0-0.104","15","1068.6449999921024","","","","Images/NewTrialWC.png","37"
"image-keyboard-response","339","416742","0.0-4.0-1.104","15","null","","","","Images/BlackBeadChoice.png","null"
"image-keyboard-response","340","417243","0.0-4.0-2.104","15","null","","","","Images/BlackBeadChoiceWrong.png","null"
"image-keyboard-response","341","417778","0.0-4.0-0.105","15","534.3100000172853","","","","Images/NewTrialWC.png","39"
"image-keyboard-response","342","418030","0.0-4.0-1.105","15","null","","","","Images/WhiteBeadChoice.png","null"
"image-keyboard-response","343","418531","0.0-4.0-2.105","15","null","","","","Images/WhiteBeadChoiceWrong.png","null"
"image-keyboard-response","344","419526","0.0-4.0-0.106","15","993.384999979753","","","","Images/NewTrialBC.png","37"
"image-keyboard-response","345","419778","0.0-4.0-1.106","15","null","","","","Images/BlackBeadChoice.png","null"
"image-keyboard-response","346","420279","0.0-4.0-2.106","15","464.1950000077486","","","","Images/BlackBeadChoiceCorrect.png","37"
"image-keyboard-response","347","420951","0.0-4.0-0.107","15","669.9650000082329","","","","Images/NewTrialBC.png","37"
"image-keyboard-response","348","421202","0.0-4.0-1.107","15","null","","","","Images/BlackBeadChoice.png","null"
"image-keyboard-response","349","421704","0.0-4.0-2.107","15","null","","","","Images/BlackBeadChoiceCorrect.png","null"
"image-keyboard-response","350","422027","0.0-4.0-0.108","15","322.10999995004386","","","","Images/NewTrialBC.png","37"
"image-keyboard-response","351","422279","0.0-4.0-1.108","15","null","","","","Images/BlackBeadChoice.png","null"
"image-keyboard-response","352","422780","0.0-4.0-2.108","15","null","","","","Images/BlackBeadChoiceCorrect.png","null"
"image-keyboard-response","353","422999","0.0-4.0-0.109","15","217.91000000666827","","","","Images/NewTrialBC.png","39"
"image-keyboard-response","354","423251","0.0-4.0-1.109","15","null","","","","Images/WhiteBeadChoice.png","null"
"image-keyboard-response","355","423753","0.0-4.0-2.109","15","null","","","","Images/WhiteBeadChoiceCorrect.png","null"
"image-keyboard-response","356","424219","0.0-4.0-0.110","15","464.95500003220513","","","","Images/NewTrialWC.png","39"
"image-keyboard-response","357","424471","0.0-4.0-1.110","15","null","","","","Images/WhiteBeadChoice.png","null"
"image-keyboard-response","358","424973","0.0-4.0-2.110","15","null","","","","Images/WhiteBeadChoiceCorrect.png","null"
"image-keyboard-response","359","425299","0.0-4.0-0.111","15","325.11999999405816","","","","Images/NewTrialWC.png","39"
"image-keyboard-response","360","425550","0.0-4.0-1.111","15","null","","","","Images/WhiteBeadChoice.png","null"
"image-keyboard-response","361","426052","0.0-4.0-2.111","15","null","","","","Images/WhiteBeadChoiceWrong.png","null"
"image-keyboard-response","362","426466","0.0-4.0-0.112","15","413.60999998869374","","","","Images/NewTrialBC.png","39"
"image-keyboard-response","363","426718","0.0-4.0-1.112","15","null","","","","Images/WhiteBeadChoice.png","null"
"image-keyboard-response","364","427220","0.0-4.0-2.112","15","null","","","","Images/WhiteBeadChoiceCorrect.png","null"
"image-keyboard-response","365","428079","0.0-4.0-0.113","15","857.9850000096485","","","","Images/NewTrialWC.png","39"
"image-keyboard-response","366","428330","0.0-4.0-1.113","15","null","","","","Images/WhiteBeadChoice.png","null"
"image-keyboard-response","367","428833","0.0-4.0-2.113","15","null","","","","Images/WhiteBeadChoiceCorrect.png","null"
"image-keyboard-response","368","429130","0.0-4.0-0.114","15","297.4099999992177","","","","Images/NewTrialWC.png","37"
"image-keyboard-response","369","429381","0.0-4.0-1.114","15","null","","","","Images/BlackBeadChoice.png","null"
"image-keyboard-response","370","429884","0.0-4.0-2.114","15","null","","","","Images/BlackBeadChoiceCorrect.png","null"
"image-keyboard-response","371","430374","0.0-4.0-0.115","15","489.07000001054257","","","","Images/NewTrialBC.png","37"
"image-keyboard-response","372","430626","0.0-4.0-1.115","15","null","","","","Images/BlackBeadChoice.png","null"
"image-keyboard-response","373","431127","0.0-4.0-2.115","15","null","","","","Images/BlackBeadChoiceWrong.png","null"
"image-keyboard-response","374","432326","0.0-4.0-0.116","15","1198.3849999960512","","","","Images/NewTrialWC.png","37"
"image-keyboard-response","375","432578","0.0-4.0-1.116","15","null","","","","Images/BlackBeadChoice.png","null"
"image-keyboard-response","376","433079","0.0-4.0-2.116","15","null","","","","Images/BlackBeadChoiceCorrect.png","null"
"image-keyboard-response","377","433734","0.0-4.0-0.117","15","653.9199999533594","","","","Images/NewTrialBC.png","39"
"image-keyboard-response","378","433986","0.0-4.0-1.117","15","null","","","","Images/WhiteBeadChoice.png","null"
"image-keyboard-response","379","434487","0.0-4.0-2.117","15","null","","","","Images/WhiteBeadChoiceWrong.png","null"
"image-keyboard-response","380","438774","0.0-4.0-0.118","15","4285.900000017136","","","","Images/NewTrialBC.png","37"
"image-keyboard-response","381","439025","0.0-4.0-1.118","15","null","","","","Images/BlackBeadChoice.png","null"
"image-keyboard-response","382","439528","0.0-4.0-2.118","15","null","","","","Images/BlackBeadChoiceCorrect.png","null"
"image-keyboard-response","383","439850","0.0-4.0-0.119","15","321.0899999830872","","","","Images/NewTrialBC.png","39"
"image-keyboard-response","384","440102","0.0-4.0-1.119","15","null","","","","Images/WhiteBeadChoice.png","null"
"image-keyboard-response","385","440604","0.0-4.0-2.119","15","null","","","","Images/WhiteBeadChoiceWrong.png","null"
"image-keyboard-response","386","440977","0.0-4.0-0.120","15","372.25499999476597","","","","Images/NewTrialBC.png","37"
"image-keyboard-response","387","441229","0.0-4.0-1.120","15","null","","","","Images/BlackBeadChoice.png","null"
"image-keyboard-response","388","441731","0.0-4.0-2.120","15","null","","","","Images/BlackBeadChoiceCorrect.png","null"
"image-keyboard-response","389","442362","0.0-4.0-0.121","15","629.7550000017509","","","","Images/NewTrialBC.png","37"
"image-keyboard-response","390","442613","0.0-4.0-1.121","15","null","","","","Images/BlackBeadChoice.png","null"
"image-keyboard-response","391","443116","0.0-4.0-2.121","15","null","","","","Images/BlackBeadChoiceCorrect.png","null"
"image-keyboard-response","392","443818","0.0-4.0-0.122","15","701.5450000180863","","","","Images/NewTrialBC.png","37"
"image-keyboard-response","393","444070","0.0-4.0-1.122","15","null","","","","Images/BlackBeadChoice.png","null"
"image-keyboard-response","394","444572","0.0-4.0-2.122","15","null","","","","Images/BlackBeadChoiceWrong.png","null"
"image-keyboard-response","395","448378","0.0-4.0-0.123","15","3803.6250000004657","","","","Images/NewTrialWC.png","39"
"image-keyboard-response","396","448629","0.0-4.0-1.123","15","null","","","","Images/WhiteBeadChoice.png","null"
"image-keyboard-response","397","449131","0.0-4.0-2.123","15","null","","","","Images/WhiteBeadChoiceCorrect.png","null"
"image-keyboard-response","398","449410","0.0-4.0-0.124","15","278.06499996222556","","","","Images/NewTrialWC.png","39"
"image-keyboard-response","399","449662","0.0-4.0-1.124","15","null","","","","Images/WhiteBeadChoice.png","null"
"image-keyboard-response","400","450164","0.0-4.0-2.124","15","null","","","","Images/WhiteBeadChoiceCorrect.png","null"
"image-keyboard-response","401","450346","0.0-4.0-0.125","15","180.51500001456589","","","","Images/NewTrialWC.png","39"
"image-keyboard-response","402","450597","0.0-4.0-1.125","15","null","","","","Images/WhiteBeadChoice.png","null"
"image-keyboard-response","403","451100","0.0-4.0-2.125","15","null","","","","Images/WhiteBeadChoiceCorrect.png","null"
"image-keyboard-response","404","451350","0.0-4.0-0.126","15","249.55000000772998","","","","Images/NewTrialWC.png","37"
"image-keyboard-response","405","451603","0.0-4.0-1.126","15","null","","","","Images/BlackBeadChoice.png","null"
"image-keyboard-response","406","452104","0.0-4.0-2.126","15","null","","","","Images/BlackBeadChoiceWrong.png","null"
"image-keyboard-response","407","452478","0.0-4.0-0.127","15","372.6449999958277","","","","Images/NewTrialWC.png","37"
"image-keyboard-response","408","452729","0.0-4.0-1.127","15","null","","","","Images/BlackBeadChoice.png","null"
"image-keyboard-response","409","453231","0.0-4.0-2.127","15","null","","","","Images/BlackBeadChoiceWrong.png","null"
"image-keyboard-response","410","453518","0.0-4.0-0.128","15","285.39499995531514","","","","Images/NewTrialWC.png","37"
"image-keyboard-response","411","453770","0.0-4.0-1.128","15","null","","","","Images/BlackBeadChoice.png","null"
"image-keyboard-response","412","454271","0.0-4.0-2.128","15","null","","","","Images/BlackBeadChoiceWrong.png","null"
"image-keyboard-response","413","454510","0.0-4.0-0.129","15","238.34999999962747","","","","Images/NewTrialWC.png","39"
"image-keyboard-response","414","454763","0.0-4.0-1.129","15","null","","","","Images/WhiteBeadChoice.png","null"
"image-keyboard-response","415","455265","0.0-4.0-2.129","15","null","","","","Images/WhiteBeadChoiceCorrect.png","null"
"image-keyboard-response","416","455534","0.0-4.0-0.130","15","267.96999998623505","","","","Images/NewTrialWC.png","39"
"image-keyboard-response","417","455784","0.0-4.0-1.130","15","null","","","","Images/WhiteBeadChoice.png","null"
"image-keyboard-response","418","456286","0.0-4.0-2.130","15","null","","","","Images/WhiteBeadChoiceCorrect.png","null"
"image-keyboard-response","419","457030","0.0-4.0-0.131","15","743.0199999944307","","","","Images/NewTrialWC.png","37"
"image-keyboard-response","420","457282","0.0-4.0-1.131","15","null","","","","Images/BlackBeadChoice.png","null"
"image-keyboard-response","421","457785","0.0-4.0-2.131","15","null","","","","Images/BlackBeadChoiceWrong.png","null"
"image-keyboard-response","422","458143","0.0-4.0-0.132","15","357.3349999496713","","","","Images/NewTrialWC.png","37"
"image-keyboard-response","423","458394","0.0-4.0-1.132","15","null","","","","Images/BlackBeadChoice.png","null"
"image-keyboard-response","424","458895","0.0-4.0-2.132","15","null","","","","Images/BlackBeadChoiceWrong.png","null"
"image-keyboard-response","425","459074","0.0-4.0-0.133","15","177.75000003166497","","","","Images/NewTrialWC.png","39"
"image-keyboard-response","426","459326","0.0-4.0-1.133","15","null","","","","Images/WhiteBeadChoice.png","null"
"image-keyboard-response","427","459827","0.0-4.0-2.133","15","null","","","","Images/WhiteBeadChoiceWrong.png","null"
"image-keyboard-response","428","460626","0.0-4.0-0.134","15","797.3050000146031","","","","Images/NewTrialBC.png","37"
"image-keyboard-response","429","460878","0.0-4.0-1.134","15","null","","","","Images/BlackBeadChoice.png","null"
"image-keyboard-response","430","461380","0.0-4.0-2.134","15","null","","","","Images/BlackBeadChoiceWrong.png","null"
"image-keyboard-response","431","461402","0.0-4.0-0.135","15","20.124999980907887","","","","Images/NewTrialWC.png","39"
"image-keyboard-response","432","461652","0.0-4.0-1.135","15","null","","","","Images/WhiteBeadChoice.png","null"
"image-keyboard-response","433","462154","0.0-4.0-2.135","15","null","","","","Images/WhiteBeadChoiceCorrect.png","null"
"image-keyboard-response","434","462198","0.0-4.0-0.136","15","42.009999975562096","","","","Images/NewTrialWC.png","39"
"image-keyboard-response","435","462449","0.0-4.0-1.136","15","null","","","","Images/WhiteBeadChoice.png","null"
"image-keyboard-response","436","462951","0.0-4.0-2.136","15","null","","","","Images/WhiteBeadChoiceCorrect.png","null"
"image-keyboard-response","437","463034","0.0-4.0-0.137","15","81.40500000445172","","","","Images/NewTrialWC.png","39"
"image-keyboard-response","438","463285","0.0-4.0-1.137","15","null","","","","Images/WhiteBeadChoice.png","null"
"image-keyboard-response","439","463788","0.0-4.0-2.137","15","null","","","","Images/WhiteBeadChoiceCorrect.png","null"
"image-keyboard-response","440","463930","0.0-4.0-0.138","15","141.3450000109151","","","","Images/NewTrialWC.png","37"
"image-keyboard-response","441","464181","0.0-4.0-1.138","15","null","","","","Images/BlackBeadChoice.png","null"
"image-keyboard-response","442","464683","0.0-4.0-2.138","15","null","","","","Images/BlackBeadChoiceWrong.png","null"
"image-keyboard-response","443","464811","0.0-4.0-0.139","15","126.74499995773658","","","","Images/NewTrialWC.png","37"
"image-keyboard-response","444","465061","0.0-4.0-1.139","15","null","","","","Images/BlackBeadChoice.png","null"
"image-keyboard-response","445","465563","0.0-4.0-2.139","15","null","","","","Images/BlackBeadChoiceCorrect.png","null"
"image-keyboard-response","446","466122","0.0-4.0-0.140","15","558.0100000370294","","","","Images/NewTrialBC.png","39"
"image-keyboard-response","447","466373","0.0-4.0-1.140","15","null","","","","Images/WhiteBeadChoice.png","null"
"image-keyboard-response","448","466875","0.0-4.0-2.140","15","null","","","","Images/WhiteBeadChoiceCorrect.png","null"
"image-keyboard-response","449","467602","0.0-4.0-0.141","15","725.2900000312366","","","","Images/NewTrialWC.png","37"
"image-keyboard-response","450","467853","0.0-4.0-1.141","15","null","","","","Images/BlackBeadChoice.png","null"
"image-keyboard-response","451","468355","0.0-4.0-2.141","15","null","","","","Images/BlackBeadChoiceWrong.png","null"
"image-keyboard-response","452","468434","0.0-4.0-0.142","15","78.13999999780208","","","","Images/NewTrialWC.png","37"
"image-keyboard-response","453","468685","0.0-4.0-1.142","15","null","","","","Images/BlackBeadChoice.png","null"
"image-keyboard-response","454","469186","0.0-4.0-2.142","15","null","","","","Images/BlackBeadChoiceWrong.png","null"
"image-keyboard-response","455","469190","0.0-4.0-0.143","15","3.01499996567145","","","","Images/NewTrialWC.png","39"
"image-keyboard-response","456","469442","0.0-4.0-1.143","15","null","","","","Images/WhiteBeadChoice.png","null"
"image-keyboard-response","457","469944","0.0-4.0-2.143","15","null","","","","Images/WhiteBeadChoiceCorrect.png","null"
"image-keyboard-response","458","470354","0.0-4.0-0.144","15","409.57499999785796","","","","Images/NewTrialWC.png","39"
"image-keyboard-response","459","470605","0.0-4.0-1.144","15","null","","","","Images/WhiteBeadChoice.png","null"
"image-keyboard-response","460","471107","0.0-4.0-2.144","15","null","","","","Images/WhiteBeadChoiceWrong.png","null"
"image-keyboard-response","461","472070","0.0-4.0-0.145","15","962.1150000020862","","","","Images/NewTrialBC.png","39"
"image-keyboard-response","462","472323","0.0-4.0-1.145","15","null","","","","Images/WhiteBeadChoice.png","null"
"image-keyboard-response","463","472825","0.0-4.0-2.145","15","null","","","","Images/WhiteBeadChoiceWrong.png","null"
"image-keyboard-response","464","473034","0.0-4.0-0.146","15","208.37000000756234","","","","Images/NewTrialBC.png","37"
"image-keyboard-response","465","473285","0.0-4.0-1.146","15","null","","","","Images/BlackBeadChoice.png","null"
"image-keyboard-response","466","473787","0.0-4.0-2.146","15","null","","","","Images/BlackBeadChoiceCorrect.png","null"
"image-keyboard-response","467","474330","0.0-4.0-0.147","15","541.849999979604","","","","Images/NewTrialBC.png","37"
"image-keyboard-response","468","474582","0.0-4.0-1.147","15","null","","","","Images/BlackBeadChoice.png","null"
"image-keyboard-response","469","475084","0.0-4.0-2.147","15","null","","","","Images/BlackBeadChoiceCorrect.png","null"
"image-keyboard-response","470","475393","0.0-4.0-0.148","15","308.8050000369549","","","","Images/NewTrialBC.png","39"
"image-keyboard-response","471","475645","0.0-4.0-1.148","15","null","","","","Images/WhiteBeadChoice.png","null"
"image-keyboard-response","472","476147","0.0-4.0-2.148","15","null","","","","Images/WhiteBeadChoiceWrong.png","null"
"image-keyboard-response","473","477876","0.0-4.0-0.149","15","1728.174999996554","","","","Images/NewTrialBC.png","39"
"image-keyboard-response","474","478127","0.0-4.0-1.149","15","null","","","","Images/WhiteBeadChoice.png","null"
"image-keyboard-response","475","478629","0.0-4.0-2.149","15","null","","","","Images/WhiteBeadChoiceWrong.png","null"
"image-keyboard-response","476","478994","0.0-4.0-0.150","15","364.2499999841675","","","","Images/NewTrialBC.png","37"
"image-keyboard-response","477","479246","0.0-4.0-1.150","15","null","","","","Images/BlackBeadChoice.png","null"
"image-keyboard-response","478","479748","0.0-4.0-2.150","15","null","","","","Images/BlackBeadChoiceWrong.png","null"
"image-keyboard-response","479","479770","0.0-4.0-0.151","15","21.29500004230067","","","","Images/NewTrialWC.png","39"
"image-keyboard-response","480","480023","0.0-4.0-1.151","15","null","","","","Images/WhiteBeadChoice.png","null"
"image-keyboard-response","481","480524","0.0-4.0-2.151","15","null","","","","Images/WhiteBeadChoiceCorrect.png","null"
"image-keyboard-response","482","480558","0.0-4.0-0.152","15","32.62000001268461","","","","Images/NewTrialWC.png","39"
"image-keyboard-response","483","480809","0.0-4.0-1.152","15","null","","","","Images/WhiteBeadChoice.png","null"
"image-keyboard-response","484","481310","0.0-4.0-2.152","15","null","","","","Images/WhiteBeadChoiceCorrect.png","null"
"image-keyboard-response","485","481382","0.0-4.0-0.153","15","71.08500000322238","","","","Images/NewTrialWC.png","39"
"image-keyboard-response","486","481633","0.0-4.0-1.153","15","null","","","","Images/WhiteBeadChoice.png","null"
"image-keyboard-response","487","482136","0.0-4.0-2.153","15","null","","","","Images/WhiteBeadChoiceCorrect.png","null"
"image-keyboard-response","488","482454","0.0-4.0-0.154","15","316.6450000135228","","","","Images/NewTrialWC.png","37"
"image-keyboard-response","489","482705","0.0-4.0-1.154","15","null","","","","Images/BlackBeadChoice.png","null"
"image-keyboard-response","490","483207","0.0-4.0-2.154","15","null","","","","Images/BlackBeadChoiceCorrect.png","null"
"image-keyboard-response","491","483894","0.0-4.0-0.155","15","685.5849999701604","","","","Images/NewTrialBC.png","37"
"image-keyboard-response","492","484146","0.0-4.0-1.155","15","null","","","","Images/BlackBeadChoice.png","null"
"image-keyboard-response","493","484648","0.0-4.0-2.155","15","null","","","","Images/BlackBeadChoiceWrong.png","null"
"image-keyboard-response","494","485334","0.0-4.0-0.156","15","685.620000003837","","","","Images/NewTrialWC.png","39"
"image-keyboard-response","495","485586","0.0-4.0-1.156","15","null","","","","Images/WhiteBeadChoice.png","null"
"image-keyboard-response","496","486088","0.0-4.0-2.156","15","null","","","","Images/WhiteBeadChoiceCorrect.png","null"
"image-keyboard-response","497","486833","0.0-4.0-0.157","15","744.2999999620952","","","","Images/NewTrialWC.png","39"
"image-keyboard-response","498","487085","0.0-4.0-1.157","15","null","","","","Images/WhiteBeadChoice.png","null"
"image-keyboard-response","499","487587","0.0-4.0-2.157","15","null","","","","Images/WhiteBeadChoiceCorrect.png","null"
"image-keyboard-response","500","488065","0.0-4.0-0.158","15","477.855000004638","","","","Images/NewTrialWC.png","37"
"image-keyboard-response","501","488317","0.0-4.0-1.158","15","null","","","","Images/BlackBeadChoice.png","null"
"image-keyboard-response","502","488818","0.0-4.0-2.158","15","null","","","","Images/BlackBeadChoiceCorrect.png","null"
"image-keyboard-response","503","496734","0.0-4.0-0.159","15","7914.429999946151","","","","Images/NewTrialBC.png","37"
"image-keyboard-response","504","496986","0.0-4.0-1.159","15","null","","","","Images/BlackBeadChoice.png","null"
"image-keyboard-response","505","497488","0.0-4.0-2.159","15","null","","","","Images/BlackBeadChoiceCorrect.png","null"
"image-keyboard-response","506","498227","0.0-4.0-0.160","15","737.4299999792129","","","","Images/NewTrialBC.png","39"
"image-keyboard-response","507","498479","0.0-4.0-1.160","15","null","","","","Images/WhiteBeadChoice.png","null"
"image-keyboard-response","508","498980","0.0-4.0-2.160","15","null","","","","Images/WhiteBeadChoiceWrong.png","null"
"image-keyboard-response","509","499390","0.0-4.0-0.161","15","409.0149999829009","","","","Images/NewTrialBC.png","39"
"image-keyboard-response","510","499642","0.0-4.0-1.161","15","null","","","","Images/WhiteBeadChoice.png","null"
"image-keyboard-response","511","500144","0.0-4.0-2.161","15","null","","","","Images/WhiteBeadChoiceWrong.png","null"
"image-keyboard-response","512","500791","0.0-4.0-0.162","15","645.699999993667","","","","Images/NewTrialBC.png","37"
"image-keyboard-response","513","501042","0.0-4.0-1.162","15","null","","","","Images/BlackBeadChoice.png","null"
"image-keyboard-response","514","501544","0.0-4.0-2.162","15","null","","","","Images/BlackBeadChoiceCorrect.png","null"
"image-keyboard-response","515","501819","0.0-4.0-0.163","15","273.8499999977648","","","","Images/NewTrialBC.png","39"
"image-keyboard-response","516","502070","0.0-4.0-1.163","15","null","","","","Images/WhiteBeadChoice.png","null"
"image-keyboard-response","517","502572","0.0-4.0-2.163","15","null","","","","Images/WhiteBeadChoiceWrong.png","null"
"image-keyboard-response","518","502886","0.0-4.0-0.164","15","313.0349999992177","","","","Images/NewTrialBC.png","37"
"image-keyboard-response","519","503137","0.0-4.0-1.164","15","null","","","","Images/BlackBeadChoice.png","null"
"image-keyboard-response","520","503638","0.0-4.0-2.164","15","null","","","","Images/BlackBeadChoiceCorrect.png","null"
"image-keyboard-response","521","504294","0.0-4.0-0.165","15","654.7300000092946","","","","Images/NewTrialBC.png","39"
"image-keyboard-response","522","504545","0.0-4.0-1.165","15","null","","","","Images/WhiteBeadChoice.png","null"
"image-keyboard-response","523","505047","0.0-4.0-2.165","15","null","","","","Images/WhiteBeadChoiceWrong.png","null"
"image-keyboard-response","524","505378","0.0-4.0-0.166","15","330.0850000232458","","","","Images/NewTrialBC.png","37"
"image-keyboard-response","525","505631","0.0-4.0-1.166","15","null","","","","Images/BlackBeadChoice.png","null"
"image-keyboard-response","526","506133","0.0-4.0-2.166","15","null","","","","Images/BlackBeadChoiceCorrect.png","null"
"image-keyboard-response","527","506358","0.0-4.0-0.167","15","223.96000003209338","","","","Images/NewTrialBC.png","37"
"image-keyboard-response","528","506610","0.0-4.0-1.167","15","null","","","","Images/BlackBeadChoice.png","null"
"image-keyboard-response","529","507112","0.0-4.0-2.167","15","null","","","","Images/BlackBeadChoiceCorrect.png","null"
"image-keyboard-response","530","507412","0.0-4.0-0.168","15","298.09499997645617","","","","Images/NewTrialBC.png","39"
"image-keyboard-response","531","507664","0.0-4.0-1.168","15","null","","","","Images/WhiteBeadChoice.png","null"
"image-keyboard-response","532","508166","0.0-4.0-2.168","15","null","","","","Images/WhiteBeadChoiceWrong.png","null"
"image-keyboard-response","533","508518","0.0-4.0-0.169","15","351.2400000472553","","","","Images/NewTrialBC.png","37"
"image-keyboard-response","534","508770","0.0-4.0-1.169","15","null","","","","Images/BlackBeadChoice.png","null"
"image-keyboard-response","535","509272","0.0-4.0-2.169","15","null","","","","Images/BlackBeadChoiceCorrect.png","null"
"image-keyboard-response","536","509567","0.0-4.0-0.170","15","293.36499999044463","","","","Images/NewTrialBC.png","37"
"image-keyboard-response","537","509818","0.0-4.0-1.170","15","null","","","","Images/BlackBeadChoice.png","null"
"image-keyboard-response","538","510321","0.0-4.0-2.170","15","null","","","","Images/BlackBeadChoiceCorrect.png","null"
"image-keyboard-response","539","510662","0.0-4.0-0.171","15","340.7199999783188","","","","Images/NewTrialBC.png","37"
"image-keyboard-response","540","510915","0.0-4.0-1.171","15","null","","","","Images/BlackBeadChoice.png","null"
"image-keyboard-response","541","511417","0.0-4.0-2.171","15","null","","","","Images/BlackBeadChoiceCorrect.png","null"
"image-keyboard-response","542","511708","0.0-4.0-0.172","15","289.9699999834411","","","","Images/NewTrialBC.png","37"
"image-keyboard-response","543","511960","0.0-4.0-1.172","15","null","","","","Images/BlackBeadChoice.png","null"
"image-keyboard-response","544","512461","0.0-4.0-2.172","15","null","","","","Images/BlackBeadChoiceCorrect.png","null"
"image-keyboard-response","545","512702","0.0-4.0-0.173","15","240.41999998735264","","","","Images/NewTrialBC.png","39"
"image-keyboard-response","546","512953","0.0-4.0-1.173","15","null","","","","Images/WhiteBeadChoice.png","null"
"image-keyboard-response","547","513455","0.0-4.0-2.173","15","null","","","","Images/WhiteBeadChoiceCorrect.png","null"
"image-keyboard-response","548","530123","0.0-4.0-0.174","15","16667.270000034478","","","","Images/NewTrialWC.png","39"
"image-keyboard-response","549","530376","0.0-4.0-1.174","15","null","","","","Images/WhiteBeadChoice.png","null"
"image-keyboard-response","550","530877","0.0-4.0-2.174","15","null","","","","Images/WhiteBeadChoiceWrong.png","null"
"image-keyboard-response","551","530891","0.0-4.0-0.175","15","12.580000038724393","","","","Images/NewTrialBC.png","37"
"image-keyboard-response","552","531142","0.0-4.0-1.175","15","null","","","","Images/BlackBeadChoice.png","null"
"image-keyboard-response","553","531644","0.0-4.0-2.175","15","442.95999995665625","","","","Images/BlackBeadChoiceCorrect.png","37"
"image-keyboard-response","554","532094","0.0-4.0-0.176","15","449.495000008028","","","","Images/NewTrialBC.png","37"
"image-keyboard-response","555","532346","0.0-4.0-1.176","15","null","","","","Images/BlackBeadChoice.png","null"
"image-keyboard-response","556","532848","0.0-4.0-2.176","15","null","","","","Images/BlackBeadChoiceCorrect.png","null"
"image-keyboard-response","557","532971","0.0-4.0-0.177","15","122.34999996144325","","","","Images/NewTrialBC.png","39"
"image-keyboard-response","558","533223","0.0-4.0-1.177","15","null","","","","Images/WhiteBeadChoice.png","null"
"image-keyboard-response","559","533725","0.0-4.0-2.177","15","null","","","","Images/WhiteBeadChoiceWrong.png","null"
"image-keyboard-response","560","534191","0.0-4.0-0.178","15","465.46000003581867","","","","Images/NewTrialBC.png","39"
"image-keyboard-response","561","534442","0.0-4.0-1.178","15","null","","","","Images/WhiteBeadChoice.png","null"
"image-keyboard-response","562","534944","0.0-4.0-2.178","15","null","","","","Images/WhiteBeadChoiceWrong.png","null"
"image-keyboard-response","563","534974","0.0-4.0-0.179","15","29.51500000199303","","","","Images/NewTrialBC.png","37"
"image-keyboard-response","564","535225","0.0-4.0-1.179","15","null","","","","Images/BlackBeadChoice.png","null"
"image-keyboard-response","565","535727","0.0-4.0-2.179","15","null","","","","Images/BlackBeadChoiceCorrect.png","null"
"image-keyboard-response","566","535851","0.0-4.0-0.180","15","123.72500001220033","","","","Images/NewTrialBC.png","37"
"image-keyboard-response","567","536103","0.0-4.0-1.180","15","null","","","","Images/BlackBeadChoice.png","null"
"image-keyboard-response","568","536605","0.0-4.0-2.180","15","null","","","","Images/BlackBeadChoiceCorrect.png","null"
"image-keyboard-response","569","536874","0.0-4.0-0.181","15","268.3800000231713","","","","Images/NewTrialBC.png","39"
"image-keyboard-response","570","537125","0.0-4.0-1.181","15","null","","","","Images/WhiteBeadChoice.png","null"
"image-keyboard-response","571","537627","0.0-4.0-2.181","15","null","","","","Images/WhiteBeadChoiceCorrect.png","null"
"image-keyboard-response","572","537959","0.0-4.0-0.182","15","330.420000012964","","","","Images/NewTrialWC.png","39"
"image-keyboard-response","573","538210","0.0-4.0-1.182","15","null","","","","Images/WhiteBeadChoice.png","null"
"image-keyboard-response","574","538711","0.0-4.0-2.182","15","415.1549999951385","","","","Images/WhiteBeadChoiceCorrect.png","39"
"image-keyboard-response","575","539158","0.0-4.0-0.183","15","446.0650000255555","","","","Images/NewTrialWC.png","39"
"image-keyboard-response","576","539410","0.0-4.0-1.183","15","null","","","","Images/WhiteBeadChoice.png","null"
"image-keyboard-response","577","539913","0.0-4.0-2.183","15","null","","","","Images/WhiteBeadChoiceWrong.png","null"
"image-keyboard-response","578","541603","0.0-4.0-0.184","15","1689.0500000445172","","","","Images/NewTrialBC.png","37"
"image-keyboard-response","579","541855","0.0-4.0-1.184","15","null","","","","Images/BlackBeadChoice.png","null"
"image-keyboard-response","580","542357","0.0-4.0-2.184","15","null","","","","Images/BlackBeadChoiceWrong.png","null"
"image-keyboard-response","581","542464","0.0-4.0-0.185","15","106.17500002263114","","","","Images/NewTrialWC.png","39"
"image-keyboard-response","582","542715","0.0-4.0-1.185","15","null","","","","Images/WhiteBeadChoice.png","null"
"image-keyboard-response","583","543216","0.0-4.0-2.185","15","null","","","","Images/WhiteBeadChoiceCorrect.png","null"
"image-keyboard-response","584","543712","0.0-4.0-0.186","15","494.5900000166148","","","","Images/NewTrialWC.png","39"
"image-keyboard-response","585","543963","0.0-4.0-1.186","15","null","","","","Images/WhiteBeadChoice.png","null"
"image-keyboard-response","586","544466","0.0-4.0-2.186","15","null","","","","Images/WhiteBeadChoiceCorrect.png","null"
"image-keyboard-response","587","544655","0.0-4.0-0.187","15","188.094999990426","","","","Images/NewTrialWC.png","39"
"image-keyboard-response","588","544906","0.0-4.0-1.187","15","null","","","","Images/WhiteBeadChoice.png","null"
"image-keyboard-response","589","545409","0.0-4.0-2.187","15","null","","","","Images/WhiteBeadChoiceCorrect.png","null"
"image-keyboard-response","590","545718","0.0-4.0-0.188","15","307.91500001214445","","","","Images/NewTrialWC.png","39"
"image-keyboard-response","591","545971","0.0-4.0-1.188","15","null","","","","Images/WhiteBeadChoice.png","null"
"image-keyboard-response","592","546473","0.0-4.0-2.188","15","null","","","","Images/WhiteBeadChoiceWrong.png","null"
"image-keyboard-response","593","546926","0.0-4.0-0.189","15","452.11000001290813","","","","Images/NewTrialBC.png","39"
"image-keyboard-response","594","547178","0.0-4.0-1.189","15","null","","","","Images/WhiteBeadChoice.png","null"
"image-keyboard-response","595","547681","0.0-4.0-2.189","15","null","","","","Images/WhiteBeadChoiceCorrect.png","null"
"image-keyboard-response","596","548031","0.0-4.0-0.190","15","349.38000002875924","","","","Images/NewTrialWC.png","37"
"image-keyboard-response","597","548282","0.0-4.0-1.190","15","null","","","","Images/BlackBeadChoice.png","null"
"image-keyboard-response","598","548784","0.0-4.0-2.190","15","null","","","","Images/BlackBeadChoiceCorrect.png","null"
"image-keyboard-response","599","549118","0.0-4.0-0.191","15","333.4700000123121","","","","Images/NewTrialBC.png","37"
"image-keyboard-response","600","549370","0.0-4.0-1.191","15","null","","","","Images/BlackBeadChoice.png","null"
"image-keyboard-response","601","549871","0.0-4.0-2.191","15","null","","","","Images/BlackBeadChoiceCorrect.png","null"
"image-keyboard-response","602","550206","0.0-4.0-0.192","15","334.2600000323728","","","","Images/NewTrialBC.png","37"
"image-keyboard-response","603","550457","0.0-4.0-1.192","15","null","","","","Images/BlackBeadChoice.png","null"
"image-keyboard-response","604","550959","0.0-4.0-2.192","15","null","","","","Images/BlackBeadChoiceCorrect.png","null"
"image-keyboard-response","605","551194","0.0-4.0-0.193","15","234.15500001283363","","","","Images/NewTrialBC.png","39"
"image-keyboard-response","606","551446","0.0-4.0-1.193","15","null","","","","Images/WhiteBeadChoice.png","null"
"image-keyboard-response","607","551948","0.0-4.0-2.193","15","null","","","","Images/WhiteBeadChoiceWrong.png","null"
"image-keyboard-response","608","552355","0.0-4.0-0.194","15","405.9000000124797","","","","Images/NewTrialBC.png","37"
"image-keyboard-response","609","552605","0.0-4.0-1.194","15","null","","","","Images/BlackBeadChoice.png","null"
"image-keyboard-response","610","553107","0.0-4.0-2.194","15","null","","","","Images/BlackBeadChoiceCorrect.png","null"
"image-keyboard-response","611","553422","0.0-4.0-0.195","15","313.7499999720603","","","","Images/NewTrialBC.png","37"
"image-keyboard-response","612","553674","0.0-4.0-1.195","15","null","","","","Images/BlackBeadChoice.png","null"
"image-keyboard-response","613","554176","0.0-4.0-2.195","15","null","","","","Images/BlackBeadChoiceCorrect.png","null"
"image-keyboard-response","614","554578","0.0-4.0-0.196","15","401.8250000081025","","","","Images/NewTrialBC.png","37"
"image-keyboard-response","615","554829","0.0-4.0-1.196","15","null","","","","Images/BlackBeadChoice.png","null"
"image-keyboard-response","616","555333","0.0-4.0-2.196","15","null","","","","Images/BlackBeadChoiceCorrect.png","null"
"image-keyboard-response","617","555574","0.0-4.0-0.197","15","240.12500001117587","","","","Images/NewTrialBC.png","37"
"image-keyboard-response","618","555826","0.0-4.0-1.197","15","null","","","","Images/BlackBeadChoice.png","null"
"image-keyboard-response","619","556328","0.0-4.0-2.197","15","null","","","","Images/BlackBeadChoiceWrong.png","null"
"image-keyboard-response","620","556874","0.0-4.0-0.198","15","543.4200000017881","","","","Images/NewTrialWC.png","37"
"image-keyboard-response","621","557125","0.0-4.0-1.198","15","null","","","","Images/BlackBeadChoice.png","null"
"image-keyboard-response","622","557629","0.0-4.0-2.198","15","null","","","","Images/BlackBeadChoiceWrong.png","null"
"image-keyboard-response","623","557738","0.0-4.0-0.199","15","107.83999995328486","","","","Images/NewTrialWC.png","39"
"image-keyboard-response","624","557990","0.0-4.0-1.199","15","null","","","","Images/WhiteBeadChoice.png","null"
"image-keyboard-response","625","558493","0.0-4.0-2.199","15","null","","","","Images/WhiteBeadChoiceCorrect.png","null"
"html-keyboard-response","626","568238","0.0-5.0","15","9743.784999998752","","","","","32"
"html-keyboard-response","627","577050","0.0-6.0","15","8810.180000029504","","","","<div class=""container"" style=""height:800px;width:800px;display:flex;flex-direction:column;justify-content:center;align-items:center;text-align:center;font-weight:normal;font-family:Arial;font-size:20px""><p>Loading episode&hellip;</p><div>","32"
"image-keyboard-response","628","579399","0.0-7.0-0.0","15","2348.1899999896996","","","","Images/NoChoiceMM.png","39"
"image-keyboard-response","629","579650","0.0-7.0-1.0","15","null","","","","Images/WhiteBeadChoiceMM.png","null"
"image-keyboard-response","630","580152","0.0-7.0-2.0","15","null","","","","Images/WhiteBeadChoiceCorrectMM.png","null"
"image-keyboard-response","631","581611","0.0-7.0-0.1","15","1457.8050000127405","","","","Images/NewTrialWCMM.png","39"
"image-keyboard-response","632","581863","0.0-7.0-1.1","15","null","","","","Images/WhiteBeadChoiceMM.png","null"
"image-keyboard-response","633","582365","0.0-7.0-2.1","15","null","","","","Images/WhiteBeadChoiceCorrectMM.png","null"
"image-keyboard-response","634","582983","0.0-7.0-0.2","15","617.3599999747239","","","","Images/NewTrialWCMM.png","39"
"image-keyboard-response","635","583234","0.0-7.0-1.2","15","null","","","","Images/WhiteBeadChoiceMM.png","null"
"image-keyboard-response","636","583737","0.0-7.0-2.2","15","null","","","","Images/WhiteBeadChoiceCorrectMM.png","null"
"image-keyboard-response","637","584006","0.0-7.0-0.3","15","268.6749999993481","","","","Images/NewTrialWCMM.png","39"
"image-keyboard-response","638","584258","0.0-7.0-1.3","15","null","","","","Images/WhiteBeadChoiceMM.png","null"
"image-keyboard-response","639","584759","0.0-7.0-2.3","15","null","","","","Images/WhiteBeadChoiceCorrectMM.png","null"
"image-keyboard-response","640","584863","0.0-7.0-0.4","15","103.14500000094995","","","","Images/NewTrialWCMM.png","39"
"image-keyboard-response","641","585114","0.0-7.0-1.4","15","null","","","","Images/WhiteBeadChoiceMM.png","null"
"image-keyboard-response","642","585616","0.0-7.0-2.4","15","null","","","","Images/WhiteBeadChoiceWrongMM.png","null"
"image-keyboard-response","643","586378","0.0-7.0-0.5","15","761.5099999820814","","","","Images/NewTrialBCMM.png","37"
"image-keyboard-response","644","586629","0.0-7.0-1.5","15","null","","","","Images/BlackBeadChoiceMM.png","null"
"image-keyboard-response","645","587130","0.0-7.0-2.5","15","null","","","","Images/BlackBeadChoiceCorrectMM.png","null"
"image-keyboard-response","646","587575","0.0-7.0-0.6","15","443.3849999913946","","","","Images/NewTrialBCMM.png","37"
"image-keyboard-response","647","587827","0.0-7.0-1.6","15","null","","","","Images/BlackBeadChoiceMM.png","null"
"image-keyboard-response","648","588328","0.0-7.0-2.6","15","null","","","","Images/BlackBeadChoiceCorrectMM.png","null"
"image-keyboard-response","649","588668","0.0-7.0-0.7","15","338.94500002497807","","","","Images/NewTrialBCMM.png","37"
"image-keyboard-response","650","588920","0.0-7.0-1.7","15","null","","","","Images/BlackBeadChoiceMM.png","null"
"image-keyboard-response","651","589422","0.0-7.0-2.7","15","null","","","","Images/BlackBeadChoiceCorrectMM.png","null"
"image-keyboard-response","652","590171","0.0-7.0-0.8","15","748.3350000111386","","","","Images/NewTrialBCMM.png","37"
"image-keyboard-response","653","590422","0.0-7.0-1.8","15","null","","","","Images/BlackBeadChoiceMM.png","null"
"image-keyboard-response","654","590924","0.0-7.0-2.8","15","null","","","","Images/BlackBeadChoiceCorrectMM.png","null"
"image-keyboard-response","655","591295","0.0-7.0-0.9","15","370.40000001434237","","","","Images/NewTrialBCMM.png","37"
"image-keyboard-response","656","591547","0.0-7.0-1.9","15","null","","","","Images/BlackBeadChoiceMM.png","null"
"image-keyboard-response","657","592049","0.0-7.0-2.9","15","null","","","","Images/BlackBeadChoiceCorrectMM.png","null"
"image-keyboard-response","658","592382","0.0-7.0-0.10","15","332.22500002011657","","","","Images/NewTrialBCMM.png","37"
"image-keyboard-response","659","592634","0.0-7.0-1.10","15","null","","","","Images/BlackBeadChoiceMM.png","null"
"image-keyboard-response","660","593135","0.0-7.0-2.10","15","null","","","","Images/BlackBeadChoiceWrongMM.png","null"
"image-keyboard-response","661","593695","0.0-7.0-0.11","15","558.4750000271015","","","","Images/NewTrialWCMM.png","37"
"image-keyboard-response","662","593947","0.0-7.0-1.11","15","null","","","","Images/BlackBeadChoiceMM.png","null"
"image-keyboard-response","663","594449","0.0-7.0-2.11","15","null","","","","Images/BlackBeadChoiceWrongMM.png","null"
"image-keyboard-response","664","594582","0.0-7.0-0.12","15","132.3650000267662","","","","Images/NewTrialWCMM.png","39"
"image-keyboard-response","665","594833","0.0-7.0-1.12","15","null","","","","Images/WhiteBeadChoiceMM.png","null"
"image-keyboard-response","666","595335","0.0-7.0-2.12","15","352.3299999651499","","","","Images/WhiteBeadChoiceCorrectMM.png","39"
"image-keyboard-response","667","595698","0.0-7.0-0.13","15","361.84000002685934","","","","Images/NewTrialWCMM.png","39"
"image-keyboard-response","668","595950","0.0-7.0-1.13","15","null","","","","Images/WhiteBeadChoiceMM.png","null"
"image-keyboard-response","669","596452","0.0-7.0-2.13","15","null","","","","Images/WhiteBeadChoiceCorrectMM.png","null"
"image-keyboard-response","670","596714","0.0-7.0-0.14","15","261.5850000292994","","","","Images/NewTrialWCMM.png","39"
"image-keyboard-response","671","596965","0.0-7.0-1.14","15","null","","","","Images/WhiteBeadChoiceMM.png","null"
"image-keyboard-response","672","597467","0.0-7.0-2.14","15","null","","","","Images/WhiteBeadChoiceWrongMM.png","null"
"image-keyboard-response","673","598078","0.0-7.0-0.15","15","610.0000000442378","","","","Images/NewTrialBCMM.png","39"
"image-keyboard-response","674","598330","0.0-7.0-1.15","15","null","","","","Images/WhiteBeadChoiceMM.png","null"
"image-keyboard-response","675","598832","0.0-7.0-2.15","15","null","","","","Images/WhiteBeadChoiceWrongMM.png","null"
"image-keyboard-response","676","599014","0.0-7.0-0.16","15","181.30500003462657","","","","Images/NewTrialBCMM.png","37"
"image-keyboard-response","677","599265","0.0-7.0-1.16","15","null","","","","Images/BlackBeadChoiceMM.png","null"
"image-keyboard-response","678","599767","0.0-7.0-2.16","15","null","","","","Images/BlackBeadChoiceCorrectMM.png","null"
"image-keyboard-response","679","599978","0.0-7.0-0.17","15","209.87500000046566","","","","Images/NewTrialBCMM.png","37"
"image-keyboard-response","680","600229","0.0-7.0-1.17","15","null","","","","Images/BlackBeadChoiceMM.png","null"
"image-keyboard-response","681","600731","0.0-7.0-2.17","15","null","","","","Images/BlackBeadChoiceCorrectMM.png","null"
"image-keyboard-response","682","600766","0.0-7.0-0.18","15","34.0800000121817","","","","Images/NewTrialBCMM.png","39"
"image-keyboard-response","683","601019","0.0-7.0-1.18","15","null","","","","Images/WhiteBeadChoiceMM.png","null"
"image-keyboard-response","684","601521","0.0-7.0-2.18","15","null","","","","Images/WhiteBeadChoiceWrongMM.png","null"
"image-keyboard-response","685","601819","0.0-7.0-0.19","15","297.1200000029057","","","","Images/NewTrialBCMM.png","37"
"image-keyboard-response","686","602070","0.0-7.0-1.19","15","null","","","","Images/BlackBeadChoiceMM.png","null"
"image-keyboard-response","687","602572","0.0-7.0-2.19","15","null","","","","Images/BlackBeadChoiceCorrectMM.png","null"
"image-keyboard-response","688","602606","0.0-7.0-0.20","15","33.270000014454126","","","","Images/NewTrialBCMM.png","39"
"image-keyboard-response","689","602858","0.0-7.0-1.20","15","null","","","","Images/WhiteBeadChoiceMM.png","null"
"image-keyboard-response","690","603360","0.0-7.0-2.20","15","null","","","","Images/WhiteBeadChoiceWrongMM.png","null"
"image-keyboard-response","691","603475","0.0-7.0-0.21","15","114.02499995892867","","","","Images/NewTrialBCMM.png","37"
"image-keyboard-response","692","603726","0.0-7.0-1.21","15","null","","","","Images/BlackBeadChoiceMM.png","null"
"image-keyboard-response","693","604227","0.0-7.0-2.21","15","435.60500000603497","","","","Images/BlackBeadChoiceCorrectMM.png","39"
"image-keyboard-response","694","604822","0.0-7.0-0.22","15","593.460000003688","","","","Images/NewTrialBCMM.png","39"
"image-keyboard-response","695","605073","0.0-7.0-1.22","15","null","","","","Images/WhiteBeadChoiceMM.png","null"
"image-keyboard-response","696","605575","0.0-7.0-2.22","15","null","","","","Images/WhiteBeadChoiceWrongMM.png","null"
"image-keyboard-response","697","606054","0.0-7.0-0.23","15","478.41499996138737","","","","Images/NewTrialBCMM.png","39"
"image-keyboard-response","698","606305","0.0-7.0-1.23","15","null","","","","Images/WhiteBeadChoiceMM.png","null"
"image-keyboard-response","699","606807","0.0-7.0-2.23","15","null","","","","Images/WhiteBeadChoiceWrongMM.png","null"
"image-keyboard-response","700","607058","0.0-7.0-0.24","15","250.83000003360212","","","","Images/NewTrialBCMM.png","39"
"image-keyboard-response","701","607310","0.0-7.0-1.24","15","null","","","","Images/WhiteBeadChoiceMM.png","null"
"image-keyboard-response","702","607813","0.0-7.0-2.24","15","null","","","","Images/WhiteBeadChoiceWrongMM.png","null"
"image-keyboard-response","703","608025","0.0-7.0-0.25","15","211.81000000797212","","","","Images/NewTrialBCMM.png","37"
"image-keyboard-response","704","608276","0.0-7.0-1.25","15","null","","","","Images/BlackBeadChoiceMM.png","null"
"image-keyboard-response","705","608779","0.0-7.0-2.25","15","null","","","","Images/BlackBeadChoiceCorrectMM.png","null"
"image-keyboard-response","706","609202","0.0-7.0-0.26","15","421.764999977313","","","","Images/NewTrialBCMM.png","37"
"image-keyboard-response","707","609454","0.0-7.0-1.26","15","null","","","","Images/BlackBeadChoiceMM.png","null"
"image-keyboard-response","708","609955","0.0-7.0-2.26","15","null","","","","Images/BlackBeadChoiceCorrectMM.png","null"
"image-keyboard-response","709","610318","0.0-7.0-0.27","15","361.38499999651685","","","","Images/NewTrialBCMM.png","39"
"image-keyboard-response","710","610570","0.0-7.0-1.27","15","null","","","","Images/WhiteBeadChoiceMM.png","null"
"image-keyboard-response","711","611072","0.0-7.0-2.27","15","null","","","","Images/WhiteBeadChoiceWrongMM.png","null"
"image-keyboard-response","712","611382","0.0-7.0-0.28","15","309.96499996399507","","","","Images/NewTrialBCMM.png","37"
"image-keyboard-response","713","611634","0.0-7.0-1.28","15","null","","","","Images/BlackBeadChoiceMM.png","null"
"image-keyboard-response","714","612135","0.0-7.0-2.28","15","null","","","","Images/BlackBeadChoiceCorrectMM.png","null"
"image-keyboard-response","715","612531","0.0-7.0-0.29","15","394.655000010971","","","","Images/NewTrialBCMM.png","37"
"image-keyboard-response","716","612782","0.0-7.0-1.29","15","null","","","","Images/BlackBeadChoiceMM.png","null"
"image-keyboard-response","717","613285","0.0-7.0-2.29","15","null","","","","Images/BlackBeadChoiceCorrectMM.png","null"
"image-keyboard-response","718","613714","0.0-7.0-0.30","15","429.0700000128709","","","","Images/NewTrialBCMM.png","39"
"image-keyboard-response","719","613966","0.0-7.0-1.30","15","null","","","","Images/WhiteBeadChoiceMM.png","null"
"image-keyboard-response","720","614469","0.0-7.0-2.30","15","null","","","","Images/WhiteBeadChoiceWrongMM.png","null"
"image-keyboard-response","721","614786","0.0-7.0-0.31","15","316.5599999483675","","","","Images/NewTrialBCMM.png","37"
"image-keyboard-response","722","615039","0.0-7.0-1.31","15","null","","","","Images/BlackBeadChoiceMM.png","null"
"image-keyboard-response","723","615541","0.0-7.0-2.31","15","null","","","","Images/BlackBeadChoiceCorrectMM.png","null"
"image-keyboard-response","724","616714","0.0-7.0-0.32","15","1172.6250000065193","","","","Images/NewTrialBCMM.png","37"
"image-keyboard-response","725","616966","0.0-7.0-1.32","15","null","","","","Images/BlackBeadChoiceMM.png","null"
"image-keyboard-response","726","617467","0.0-7.0-2.32","15","null","","","","Images/BlackBeadChoiceCorrectMM.png","null"
"image-keyboard-response","727","617867","0.0-7.0-0.33","15","396.695000003092","","","","Images/NewTrialBCMM.png","37"
"image-keyboard-response","728","618118","0.0-7.0-1.33","15","null","","","","Images/BlackBeadChoiceMM.png","null"
"image-keyboard-response","729","618620","0.0-7.0-2.33","15","null","","","","Images/BlackBeadChoiceCorrectMM.png","null"
"image-keyboard-response","730","618978","0.0-7.0-0.34","15","356.9050000514835","","","","Images/NewTrialBCMM.png","37"
"image-keyboard-response","731","619229","0.0-7.0-1.34","15","null","","","","Images/BlackBeadChoiceMM.png","null"
"image-keyboard-response","732","619731","0.0-7.0-2.34","15","null","","","","Images/BlackBeadChoiceCorrectMM.png","null"
"image-keyboard-response","733","620082","0.0-7.0-0.35","15","349.45000003790483","","","","Images/NewTrialBCMM.png","37"
"image-keyboard-response","734","620335","0.0-7.0-1.35","15","null","","","","Images/BlackBeadChoiceMM.png","null"
"image-keyboard-response","735","620837","0.0-7.0-2.35","15","null","","","","Images/BlackBeadChoiceCorrectMM.png","null"
"image-keyboard-response","736","621238","0.0-7.0-0.36","15","400.54999996209517","","","","Images/NewTrialBCMM.png","37"
"image-keyboard-response","737","621489","0.0-7.0-1.36","15","null","","","","Images/BlackBeadChoiceMM.png","null"
"image-keyboard-response","738","621991","0.0-7.0-2.36","15","null","","","","Images/BlackBeadChoiceCorrectMM.png","null"
"image-keyboard-response","739","622143","0.0-7.0-0.37","15","151.1049999971874","","","","Images/NewTrialBCMM.png","37"
"image-keyboard-response","740","622394","0.0-7.0-1.37","15","null","","","","Images/BlackBeadChoiceMM.png","null"
"image-keyboard-response","741","622895","0.0-7.0-2.37","15","null","","","","Images/BlackBeadChoiceWrongMM.png","null"
"image-keyboard-response","742","623310","0.0-7.0-0.38","15","413.72499999124557","","","","Images/NewTrialWCMM.png","39"
"image-keyboard-response","743","623561","0.0-7.0-1.38","15","null","","","","Images/WhiteBeadChoiceMM.png","null"
"image-keyboard-response","744","624064","0.0-7.0-2.38","15","null","","","","Images/WhiteBeadChoiceCorrectMM.png","null"
"image-keyboard-response","745","624374","0.0-7.0-0.39","15","309.23999997321516","","","","Images/NewTrialWCMM.png","39"
"image-keyboard-response","746","624625","0.0-7.0-1.39","15","null","","","","Images/WhiteBeadChoiceMM.png","null"
"image-keyboard-response","747","625127","0.0-7.0-2.39","15","null","","","","Images/WhiteBeadChoiceCorrectMM.png","null"
"image-keyboard-response","748","625482","0.0-7.0-0.40","15","352.565000008326","","","","Images/NewTrialWCMM.png","39"
"image-keyboard-response","749","625733","0.0-7.0-1.40","15","null","","","","Images/WhiteBeadChoiceMM.png","null"
"image-keyboard-response","750","626234","0.0-7.0-2.40","15","null","","","","Images/WhiteBeadChoiceCorrectMM.png","null"
"image-keyboard-response","751","626515","0.0-7.0-0.41","15","279.55999999539927","","","","Images/NewTrialWCMM.png","39"
"image-keyboard-response","752","626765","0.0-7.0-1.41","15","null","","","","Images/WhiteBeadChoiceMM.png","null"
"image-keyboard-response","753","627267","0.0-7.0-2.41","15","null","","","","Images/WhiteBeadChoiceCorrectMM.png","null"
"image-keyboard-response","754","627587","0.0-7.0-0.42","15","318.314999982249","","","","Images/NewTrialWCMM.png","39"
"image-keyboard-response","755","627838","0.0-7.0-1.42","15","null","","","","Images/WhiteBeadChoiceMM.png","null"
"image-keyboard-response","756","628340","0.0-7.0-2.42","15","null","","","","Images/WhiteBeadChoiceCorrectMM.png","null"
"image-keyboard-response","757","628698","0.0-7.0-0.43","15","357.34500002581626","","","","Images/NewTrialWCMM.png","39"
"image-keyboard-response","758","628950","0.0-7.0-1.43","15","null","","","","Images/WhiteBeadChoiceMM.png","null"
"image-keyboard-response","759","629452","0.0-7.0-2.43","15","null","","","","Images/WhiteBeadChoiceCorrectMM.png","null"
"image-keyboard-response","760","629802","0.0-7.0-0.44","15","349.5350000448525","","","","Images/NewTrialWCMM.png","39"
"image-keyboard-response","761","630054","0.0-7.0-1.44","15","null","","","","Images/WhiteBeadChoiceMM.png","null"
"image-keyboard-response","762","630557","0.0-7.0-2.44","15","null","","","","Images/WhiteBeadChoiceWrongMM.png","null"
"image-keyboard-response","763","630954","0.0-7.0-0.45","15","396.6399999917485","","","","Images/NewTrialBCMM.png","37"
"image-keyboard-response","764","631208","0.0-7.0-1.45","15","null","","","","Images/BlackBeadChoiceMM.png","null"
"image-keyboard-response","765","631709","0.0-7.0-2.45","15","null","","","","Images/BlackBeadChoiceCorrectMM.png","null"
"image-keyboard-response","766","632123","0.0-7.0-0.46","15","412.8599999821745","","","","Images/NewTrialBCMM.png","37"
"image-keyboard-response","767","632375","0.0-7.0-1.46","15","null","","","","Images/BlackBeadChoiceMM.png","null"
"image-keyboard-response","768","632876","0.0-7.0-2.46","15","null","","","","Images/BlackBeadChoiceCorrectMM.png","null"
"image-keyboard-response","769","633215","0.0-7.0-0.47","15","337.37500000279397","","","","Images/NewTrialBCMM.png","37"
"image-keyboard-response","770","633466","0.0-7.0-1.47","15","null","","","","Images/BlackBeadChoiceMM.png","null"
"image-keyboard-response","771","633967","0.0-7.0-2.47","15","null","","","","Images/BlackBeadChoiceCorrectMM.png","null"
"image-keyboard-response","772","634334","0.0-7.0-0.48","15","365.93500000890344","","","","Images/NewTrialBCMM.png","37"
"image-keyboard-response","773","634586","0.0-7.0-1.48","15","null","","","","Images/BlackBeadChoiceMM.png","null"
"image-keyboard-response","774","635087","0.0-7.0-2.48","15","null","","","","Images/BlackBeadChoiceCorrectMM.png","null"
"image-keyboard-response","775","635427","0.0-7.0-0.49","15","338.2249999558553","","","","Images/NewTrialBCMM.png","37"
"image-keyboard-response","776","635678","0.0-7.0-1.49","15","null","","","","Images/BlackBeadChoiceMM.png","null"
"image-keyboard-response","777","636180","0.0-7.0-2.49","15","null","","","","Images/BlackBeadChoiceCorrectMM.png","null"
"image-keyboard-response","778","636534","0.0-7.0-0.50","15","353.73999999137595","","","","Images/NewTrialBCMM.png","37"
"image-keyboard-response","779","636786","0.0-7.0-1.50","15","null","","","","Images/BlackBeadChoiceMM.png","null"
"image-keyboard-response","780","637287","0.0-7.0-2.50","15","null","","","","Images/BlackBeadChoiceCorrectMM.png","null"
"image-keyboard-response","781","637622","0.0-7.0-0.51","15","333.50499998778105","","","","Images/NewTrialBCMM.png","37"
"image-keyboard-response","782","637873","0.0-7.0-1.51","15","null","","","","Images/BlackBeadChoiceMM.png","null"
"image-keyboard-response","783","638375","0.0-7.0-2.51","15","null","","","","Images/BlackBeadChoiceCorrectMM.png","null"
"image-keyboard-response","784","638742","0.0-7.0-0.52","15","365.8549999818206","","","","Images/NewTrialBCMM.png","37"
"image-keyboard-response","785","638993","0.0-7.0-1.52","15","null","","","","Images/BlackBeadChoiceMM.png","null"
"image-keyboard-response","786","639495","0.0-7.0-2.52","15","null","","","","Images/BlackBeadChoiceCorrectMM.png","null"
"image-keyboard-response","787","639974","0.0-7.0-0.53","15","476.9650000380352","","","","Images/NewTrialBCMM.png","37"
"image-keyboard-response","788","640225","0.0-7.0-1.53","15","null","","","","Images/BlackBeadChoiceMM.png","null"
"image-keyboard-response","789","640728","0.0-7.0-2.53","15","null","","","","Images/BlackBeadChoiceCorrectMM.png","null"
"image-keyboard-response","790","641108","0.0-7.0-0.54","15","379.0250000311062","","","","Images/NewTrialBCMM.png","37"
"image-keyboard-response","791","641361","0.0-7.0-1.54","15","null","","","","Images/BlackBeadChoiceMM.png","null"
"image-keyboard-response","792","641862","0.0-7.0-2.54","15","null","","","","Images/BlackBeadChoiceWrongMM.png","null"
"image-keyboard-response","793","642230","0.0-7.0-0.55","15","366.41999997664243","","","","Images/NewTrialWCMM.png","39"
"image-keyboard-response","794","642481","0.0-7.0-1.55","15","null","","","","Images/WhiteBeadChoiceMM.png","null"
"image-keyboard-response","795","642983","0.0-7.0-2.55","15","null","","","","Images/WhiteBeadChoiceCorrectMM.png","null"
"image-keyboard-response","796","643414","0.0-7.0-0.56","15","429.9200000241399","","","","Images/NewTrialWCMM.png","39"
"image-keyboard-response","797","643667","0.0-7.0-1.56","15","null","","","","Images/WhiteBeadChoiceMM.png","null"
"image-keyboard-response","798","644169","0.0-7.0-2.56","15","null","","","","Images/WhiteBeadChoiceCorrectMM.png","null"
"image-keyboard-response","799","644474","0.0-7.0-0.57","15","304.6699999831617","","","","Images/NewTrialWCMM.png","39"
"image-keyboard-response","800","644728","0.0-7.0-1.57","15","null","","","","Images/WhiteBeadChoiceMM.png","null"
"image-keyboard-response","801","645229","0.0-7.0-2.57","15","null","","","","Images/WhiteBeadChoiceCorrectMM.png","null"
"image-keyboard-response","802","645643","0.0-7.0-0.58","15","412.60500001953915","","","","Images/NewTrialWCMM.png","39"
"image-keyboard-response","803","645894","0.0-7.0-1.58","15","null","","","","Images/WhiteBeadChoiceMM.png","null"
"image-keyboard-response","804","646397","0.0-7.0-2.58","15","null","","","","Images/WhiteBeadChoiceWrongMM.png","null"
"image-keyboard-response","805","646786","0.0-7.0-0.59","15","388.66500003496185","","","","Images/NewTrialBCMM.png","37"
"image-keyboard-response","806","647038","0.0-7.0-1.59","15","null","","","","Images/BlackBeadChoiceMM.png","null"
"image-keyboard-response","807","647542","0.0-7.0-2.59","15","null","","","","Images/BlackBeadChoiceCorrectMM.png","null"
