"trial_type","trial_index","time_elapsed","internal_node_id","Script_Picker","Block_Type","rt","url","responses","question_order","stimulus","key_press"
"pavlovia","0","4","0.0-0.0","17","Low_HMMActual","","","","","",""
"external-html","1","40211","0.0-1.0-0.0","17","Low_HMMActual","40177.75499983691","consent.html","","","",""
"survey-multi-choice","2","92493","0.0-1.0-1.0","17","Low_HMMActual","52278.3899998758","","{""Q0"":""Female"",""Q1"":""White""}","[0,1]","",""
"survey-text","3","108360","0.0-1.0-2.0","17","Low_HMMActual","15861.564999911934","","{""Q0"":""44""}","","",""
"survey-text","4","116361","0.0-1.0-3.0","17","Low_HMMActual","7887.564999982715","","{""Q0"":""5d63c529163b260018acc505""}","","",""
"html-keyboard-response","5","143122","0.0-2.0-0.0","17","Low_HMMActual","26654.169999994338","","","","<div class=""container"" style=""height:800px;width:800px;display:flex;flex-direction:column;justify-content:center;align-items:center;text-align:center;font-weight:normal;font-family:Arial;font-size:20px""><p>In this task you will see black or white beads being pulled from jars. <br><br>On each trial, a bead will be pulled from one of two jars. Once you see this bead, your goal is to predict the color of NEXT bead that will be pulled. <br> <br>Every time you correctly guess the color of the NEXT bead, you will get a point. <br><br>Press the SPACEBAR to continue.</p><div>","32"
"html-keyboard-response","6","153669","0.0-2.0-1.0","17","Low_HMMActual","10545.480000087991","","","","<div class=""container"" style=""height:800px;width:800px;display:flex;flex-direction:column;justify-content:center;align-items:center;text-align:center;font-weight:normal;font-family:Arial;font-size:20px""><p>Jars are filled with 80% white or black beads and 20% of the opposite color mixed in.<br><br>Press the SPACEBAR to continue. </p><div>","32"
"image-keyboard-response","7","157519","0.0-2.0-2.0","17","Low_HMMActual","3858.280000044033","","","","resources/WhiteJar_HMM.png","32"
"image-keyboard-response","8","161164","0.0-2.0-3.0","17","Low_HMMActual","3641.5999999735504","","","","resources/BlackJar_HMM.png","32"
"html-keyboard-response","9","168792","0.0-2.0-4.0","17","Low_HMMActual","7626.429999945685","","","","<div class=""container"" style=""height:800px;width:800px;display:flex;flex-direction:column;justify-content:center;align-items:center;text-align:center;font-weight:normal;font-family:Arial;font-size:20px""><p>There will be two blocks of trials. Each block will contain 500 trials. <br><br>Here are examples of what you will see on each trial.<br><br>Press the SPACEBAR to continue. </p><div>","32"
"image-keyboard-response","10","175693","0.0-2.0-5.0","17","Low_HMMActual","6899.669999955222","","","","Images/NoChoice.png","32"
"html-keyboard-response","11","204382","0.0-2.0-6.0","17","Low_HMMActual","28687.43499997072","","","","<div class=""container"" style=""height:800px;width:800px;display:flex;flex-direction:column;justify-content:center;align-items:center;text-align:center;font-weight:normal;font-family:Arial;font-size:20px""><p> The jar the beads are pulled from is NOT choosen at random on each trial.<br><br>After each prediction, there will be a chance that the jars will switch, and that the next bead will be pulled from the opposite jar as the previous trial.<br><br>In each block, the chance that a jar will switch will either be LOW (the jars will not switch very often), or HIGH (the jars will switch almost all the time).<br><br>At the start of each block, you will be told the probability that the jars will switch on each trial. This switch probability will stay constant throughout the block.<br><br>We will now show you some examples of beads being drawn from jars. The bead will appear in the middle of the screen, and the jar the bead was pulled from will be indicated with a black rectangle.<br><br>Press the SPACEBAR to continue. </p><div>","32"
"image-keyboard-response","12","212888","0.0-2.0-7.0","17","Low_HMMActual","8504.175000125542","","","","Images/TutorialWhiteJarDrawHMMC.png","32"
"image-keyboard-response","13","215170","0.0-2.0-8.0","17","Low_HMMActual","2278.944999910891","","","","Images/TutorialBlackJarDrawHMMC.png","32"
"image-keyboard-response","14","217598","0.0-2.0-9.0","17","Low_HMMActual","2416.4150001015514","","","","Images/TutorialBlackJarDrawHMMI.png","32"
"html-keyboard-response","15","227267","0.0-2.0-10.0","17","Low_HMMActual","9667.614999925718","","","","<div class=""container"" style=""height:800px;width:800px;display:flex;flex-direction:column;justify-content:center;align-items:center;text-align:center;font-weight:normal;font-family:Arial;font-size:20px""><p> As you observed, a white bead was pulled from a 80% white jar, the jars switched and a black bead was pulled from the 80% black jar, but then a low-probability white bead was pulled from the 80% black jar. <br><br>This means that the color of the bead will not always match to the color of the jar it was pulled from.<br><br>Press SPACEBAR to conitnue.</p><div>","32"
"html-keyboard-response","16","230220","0.0-2.0-11.0","17","Low_HMMActual","2950.6650001276284","","","","<div class=""container"" style=""height:800px;width:800px;display:flex;flex-direction:column;justify-content:center;align-items:center;text-align:center;font-weight:normal;font-family:Arial;font-size:20px""><p> You will now be given a 2 question quiz to make sure you understand the task. </p><div>","32"
"image-keyboard-response","17","246569","0.0-2.0-12.0","17","Low_HMMActual","16345.680000027642","","","","Images/TutorialQuestion1.png","39"
"image-keyboard-response","18","277139","0.0-2.0-13.0","17","Low_HMMActual","17880.325000034645","","","","Images/TutorialQuestion2.png","38"
"html-keyboard-response","19","290128","0.0-3.0","17","Low_HMMActual","11302.029999904335","","","","<div class=""container"" style=""height:800px;width:800px;display:flex;flex-direction:column;justify-content:center;align-items:center;text-align:center;font-weight:normal;font-family:Arial;font-size:20px""><p>Loading episode&hellip;</p><div>","32"
"image-keyboard-response","20","309930","0.0-4.0-0.0","17","Low_HMMActual","19800.2400000114","","","","Images/NoChoice.png","39"
"image-keyboard-response","21","310335","0.0-4.0-1.0","17","Low_HMMActual","null","","","","Images/WhiteBeadChoice.png","null"
"image-keyboard-response","22","311042","0.0-4.0-2.0","17","Low_HMMActual","null","","","","Images/WhiteBeadChoiceCorrect.png","null"
"image-keyboard-response","23","317894","0.0-4.0-0.1","17","Low_HMMActual","6849.600000074133","","","","Images/NewTrialWC.png","37"
"image-keyboard-response","24","318303","0.0-4.0-1.1","17","Low_HMMActual","null","","","","Images/BlackBeadChoice.png","null"
"image-keyboard-response","25","319007","0.0-4.0-2.1","17","Low_HMMActual","null","","","","Images/BlackBeadChoiceCorrect.png","null"
"image-keyboard-response","26","322718","0.0-4.0-0.2","17","Low_HMMActual","3708.800000138581","","","","Images/NewTrialBC.png","37"
"image-keyboard-response","27","323121","0.0-4.0-1.2","17","Low_HMMActual","null","","","","Images/BlackBeadChoice.png","null"
"image-keyboard-response","28","323828","0.0-4.0-2.2","17","Low_HMMActual","null","","","","Images/BlackBeadChoiceCorrect.png","null"
"image-keyboard-response","29","326637","0.0-4.0-0.3","17","Low_HMMActual","2807.105000130832","","","","Images/NewTrialBC.png","39"
"image-keyboard-response","30","327049","0.0-4.0-1.3","17","Low_HMMActual","null","","","","Images/WhiteBeadChoice.png","null"
"image-keyboard-response","31","327757","0.0-4.0-2.3","17","Low_HMMActual","null","","","","Images/WhiteBeadChoiceCorrect.png","null"
"image-keyboard-response","32","328896","0.0-4.0-0.4","17","Low_HMMActual","1136.350000044331","","","","Images/NewTrialWC.png","37"
"image-keyboard-response","33","329308","0.0-4.0-1.4","17","Low_HMMActual","null","","","","Images/BlackBeadChoice.png","null"
"image-keyboard-response","34","330013","0.0-4.0-2.4","17","Low_HMMActual","null","","","","Images/BlackBeadChoiceWrong.png","null"
"image-keyboard-response","35","333836","0.0-4.0-0.5","17","Low_HMMActual","3819.219999946654","","","","Images/NewTrialWC.png","39"
"image-keyboard-response","36","334253","0.0-4.0-1.5","17","Low_HMMActual","null","","","","Images/WhiteBeadChoice.png","null"
"image-keyboard-response","37","334957","0.0-4.0-2.5","17","Low_HMMActual","null","","","","Images/WhiteBeadChoiceCorrect.png","null"
"image-keyboard-response","38","335444","0.0-4.0-0.6","17","Low_HMMActual","483.63499995321035","","","","Images/NewTrialWC.png","39"
"image-keyboard-response","39","335859","0.0-4.0-1.6","17","Low_HMMActual","null","","","","Images/WhiteBeadChoice.png","null"
"image-keyboard-response","40","336566","0.0-4.0-2.6","17","Low_HMMActual","null","","","","Images/WhiteBeadChoiceCorrect.png","null"
"image-keyboard-response","41","338301","0.0-4.0-0.7","17","Low_HMMActual","1725.5099997855723","","","","Images/NewTrialWC.png","39"
"image-keyboard-response","42","338706","0.0-4.0-1.7","17","Low_HMMActual","null","","","","Images/WhiteBeadChoice.png","null"
"image-keyboard-response","43","339425","0.0-4.0-2.7","17","Low_HMMActual","null","","","","Images/WhiteBeadChoiceWrong.png","null"
"image-keyboard-response","44","340556","0.0-4.0-0.8","17","Low_HMMActual","1126.2999998871237","","","","Images/NewTrialBC.png","37"
"image-keyboard-response","45","340964","0.0-4.0-1.8","17","Low_HMMActual","null","","","","Images/BlackBeadChoice.png","null"
"image-keyboard-response","46","341680","0.0-4.0-2.8","17","Low_HMMActual","null","","","","Images/BlackBeadChoiceCorrect.png","null"
"image-keyboard-response","47","343152","0.0-4.0-0.9","17","Low_HMMActual","1468.6800001654774","","","","Images/NewTrialBC.png","37"
"image-keyboard-response","48","343564","0.0-4.0-1.9","17","Low_HMMActual","null","","","","Images/BlackBeadChoice.png","null"
"image-keyboard-response","49","344277","0.0-4.0-2.9","17","Low_HMMActual","null","","","","Images/BlackBeadChoiceWrong.png","null"
"image-keyboard-response","50","344550","0.0-4.0-0.10","17","Low_HMMActual","270.41999995708466","","","","Images/NewTrialWC.png","39"
"image-keyboard-response","51","344953","0.0-4.0-1.10","17","Low_HMMActual","null","","","","Images/WhiteBeadChoice.png","null"
"image-keyboard-response","52","345666","0.0-4.0-2.10","17","Low_HMMActual","null","","","","Images/WhiteBeadChoiceWrong.png","null"
"image-keyboard-response","53","346239","0.0-4.0-0.11","17","Low_HMMActual","569.9149998836219","","","","Images/NewTrialBC.png","39"
"image-keyboard-response","54","346654","0.0-4.0-1.11","17","Low_HMMActual","null","","","","Images/WhiteBeadChoice.png","null"
"image-keyboard-response","55","347361","0.0-4.0-2.11","17","Low_HMMActual","null","","","","Images/WhiteBeadChoiceCorrect.png","null"
"image-keyboard-response","56","347831","0.0-4.0-0.12","17","Low_HMMActual","467.3250000923872","","","","Images/NewTrialWC.png","37"
"image-keyboard-response","57","348233","0.0-4.0-1.12","17","Low_HMMActual","null","","","","Images/BlackBeadChoice.png","null"
"image-keyboard-response","58","348951","0.0-4.0-2.12","17","Low_HMMActual","null","","","","Images/BlackBeadChoiceWrong.png","null"
"image-keyboard-response","59","349227","0.0-4.0-0.13","17","Low_HMMActual","273.38000014424324","","","","Images/NewTrialWC.png","39"
"image-keyboard-response","60","349640","0.0-4.0-1.13","17","Low_HMMActual","null","","","","Images/WhiteBeadChoice.png","null"
"image-keyboard-response","61","350343","0.0-4.0-2.13","17","Low_HMMActual","null","","","","Images/WhiteBeadChoiceCorrect.png","null"
"image-keyboard-response","62","350607","0.0-4.0-0.14","17","Low_HMMActual","260.7350000180304","","","","Images/NewTrialWC.png","39"
"image-keyboard-response","63","351012","0.0-4.0-1.14","17","Low_HMMActual","null","","","","Images/WhiteBeadChoice.png","null"
"image-keyboard-response","64","351729","0.0-4.0-2.14","17","Low_HMMActual","null","","","","Images/WhiteBeadChoiceWrong.png","null"
"image-keyboard-response","65","352876","0.0-4.0-0.15","17","Low_HMMActual","1145.0200001709163","","","","Images/NewTrialBC.png","39"
"image-keyboard-response","66","353291","0.0-4.0-1.15","17","Low_HMMActual","null","","","","Images/WhiteBeadChoice.png","null"
"image-keyboard-response","67","353994","0.0-4.0-2.15","17","Low_HMMActual","null","","","","Images/WhiteBeadChoiceCorrect.png","null"
"image-keyboard-response","68","355992","0.0-4.0-0.16","17","Low_HMMActual","1994.599999859929","","","","Images/NewTrialWC.png","37"
"image-keyboard-response","69","356398","0.0-4.0-1.16","17","Low_HMMActual","null","","","","Images/BlackBeadChoice.png","null"
"image-keyboard-response","70","357101","0.0-4.0-2.16","17","Low_HMMActual","null","","","","Images/BlackBeadChoiceWrong.png","null"
"image-keyboard-response","71","358288","0.0-4.0-0.17","17","Low_HMMActual","1185.3450001217425","","","","Images/NewTrialWC.png","37"
"image-keyboard-response","72","358701","0.0-4.0-1.17","17","Low_HMMActual","null","","","","Images/BlackBeadChoice.png","null"
"image-keyboard-response","73","359404","0.0-4.0-2.17","17","Low_HMMActual","null","","","","Images/BlackBeadChoiceCorrect.png","null"
"image-keyboard-response","74","360492","0.0-4.0-0.18","17","Low_HMMActual","1084.5099999569356","","","","Images/NewTrialBC.png","37"
"image-keyboard-response","75","360909","0.0-4.0-1.18","17","Low_HMMActual","null","","","","Images/BlackBeadChoice.png","null"
"image-keyboard-response","76","361616","0.0-4.0-2.18","17","Low_HMMActual","null","","","","Images/BlackBeadChoiceWrong.png","null"
"image-keyboard-response","77","362530","0.0-4.0-0.19","17","Low_HMMActual","911.3950000610203","","","","Images/NewTrialWC.png","39"
"image-keyboard-response","78","362935","0.0-4.0-1.19","17","Low_HMMActual","null","","","","Images/WhiteBeadChoice.png","null"
"image-keyboard-response","79","363646","0.0-4.0-2.19","17","Low_HMMActual","null","","","","Images/WhiteBeadChoiceWrong.png","null"
"image-keyboard-response","80","368025","0.0-4.0-0.20","17","Low_HMMActual","4376.605000114068","","","","Images/NewTrialBC.png","37"
"image-keyboard-response","81","368440","0.0-4.0-1.20","17","Low_HMMActual","null","","","","Images/BlackBeadChoice.png","null"
"image-keyboard-response","82","369142","0.0-4.0-2.20","17","Low_HMMActual","null","","","","Images/BlackBeadChoiceWrong.png","null"
"image-keyboard-response","83","370263","0.0-4.0-0.21","17","Low_HMMActual","1118.239999981597","","","","Images/NewTrialWC.png","37"
"image-keyboard-response","84","370680","0.0-4.0-1.21","17","Low_HMMActual","null","","","","Images/BlackBeadChoice.png","null"
"image-keyboard-response","85","371383","0.0-4.0-2.21","17","Low_HMMActual","656.880000140518","","","","Images/BlackBeadChoiceCorrect.png","37"
"image-keyboard-response","86","373405","0.0-4.0-0.22","17","Low_HMMActual","2018.8100000377744","","","","Images/NewTrialBC.png","37"
"image-keyboard-response","87","373814","0.0-4.0-1.22","17","Low_HMMActual","null","","","","Images/BlackBeadChoice.png","null"
"image-keyboard-response","88","374517","0.0-4.0-2.22","17","Low_HMMActual","null","","","","Images/BlackBeadChoiceWrong.png","null"
"image-keyboard-response","89","376004","0.0-4.0-0.23","17","Low_HMMActual","1484.54499989748","","","","Images/NewTrialWC.png","37"
"image-keyboard-response","90","376420","0.0-4.0-1.23","17","Low_HMMActual","null","","","","Images/BlackBeadChoice.png","null"
"image-keyboard-response","91","377123","0.0-4.0-2.23","17","Low_HMMActual","null","","","","Images/BlackBeadChoiceWrong.png","null"
"image-keyboard-response","92","378114","0.0-4.0-0.24","17","Low_HMMActual","988.8300001621246","","","","Images/NewTrialWC.png","37"
"image-keyboard-response","93","378531","0.0-4.0-1.24","17","Low_HMMActual","null","","","","Images/BlackBeadChoice.png","null"
"image-keyboard-response","94","379240","0.0-4.0-2.24","17","Low_HMMActual","null","","","","Images/BlackBeadChoiceWrong.png","null"
"image-keyboard-response","95","380411","0.0-4.0-0.25","17","Low_HMMActual","1169.0800001379102","","","","Images/NewTrialWC.png","39"
"image-keyboard-response","96","380829","0.0-4.0-1.25","17","Low_HMMActual","null","","","","Images/WhiteBeadChoice.png","null"
"image-keyboard-response","97","381539","0.0-4.0-2.25","17","Low_HMMActual","null","","","","Images/WhiteBeadChoiceWrong.png","null"
"image-keyboard-response","98","382388","0.0-4.0-0.26","17","Low_HMMActual","846.5650000143796","","","","Images/NewTrialBC.png","39"
"image-keyboard-response","99","382803","0.0-4.0-1.26","17","Low_HMMActual","null","","","","Images/WhiteBeadChoice.png","null"
"image-keyboard-response","100","383512","0.0-4.0-2.26","17","Low_HMMActual","null","","","","Images/WhiteBeadChoiceWrong.png","null"
"image-keyboard-response","101","384119","0.0-4.0-0.27","17","Low_HMMActual","604.4550000224262","","","","Images/NewTrialBC.png","37"
"image-keyboard-response","102","384527","0.0-4.0-1.27","17","Low_HMMActual","null","","","","Images/BlackBeadChoice.png","null"
"image-keyboard-response","103","385240","0.0-4.0-2.27","17","Low_HMMActual","null","","","","Images/BlackBeadChoiceWrong.png","null"
"image-keyboard-response","104","386790","0.0-4.0-0.28","17","Low_HMMActual","1547.7349997963756","","","","Images/NewTrialWC.png","39"
"image-keyboard-response","105","387207","0.0-4.0-1.28","17","Low_HMMActual","null","","","","Images/WhiteBeadChoice.png","null"
"image-keyboard-response","106","387917","0.0-4.0-2.28","17","Low_HMMActual","null","","","","Images/WhiteBeadChoiceCorrect.png","null"
"image-keyboard-response","107","388671","0.0-4.0-0.29","17","Low_HMMActual","751.1599999852479","","","","Images/NewTrialWC.png","37"
"image-keyboard-response","108","389078","0.0-4.0-1.29","17","Low_HMMActual","null","","","","Images/BlackBeadChoice.png","null"
"image-keyboard-response","109","389782","0.0-4.0-2.29","17","Low_HMMActual","null","","","","Images/BlackBeadChoiceWrong.png","null"
"image-keyboard-response","110","391167","0.0-4.0-0.30","17","Low_HMMActual","1382.7550001442432","","","","Images/NewTrialWC.png","39"
"image-keyboard-response","111","391582","0.0-4.0-1.30","17","Low_HMMActual","null","","","","Images/WhiteBeadChoice.png","null"
"image-keyboard-response","112","392286","0.0-4.0-2.30","17","Low_HMMActual","null","","","","Images/WhiteBeadChoiceCorrect.png","null"
"image-keyboard-response","113","393369","0.0-4.0-0.31","17","Low_HMMActual","1080.5649999529123","","","","Images/NewTrialWC.png","39"
"image-keyboard-response","114","393783","0.0-4.0-1.31","17","Low_HMMActual","null","","","","Images/WhiteBeadChoice.png","null"
"image-keyboard-response","115","394485","0.0-4.0-2.31","17","Low_HMMActual","null","","","","Images/WhiteBeadChoiceCorrect.png","null"
"image-keyboard-response","116","395317","0.0-4.0-0.32","17","Low_HMMActual","829.4699999969453","","","","Images/NewTrialWC.png","39"
"image-keyboard-response","117","395721","0.0-4.0-1.32","17","Low_HMMActual","null","","","","Images/WhiteBeadChoice.png","null"
"image-keyboard-response","118","396425","0.0-4.0-2.32","17","Low_HMMActual","null","","","","Images/WhiteBeadChoiceCorrect.png","null"
"image-keyboard-response","119","396827","0.0-4.0-0.33","17","Low_HMMActual","400.3200000151992","","","","Images/NewTrialWC.png","39"
"image-keyboard-response","120","397230","0.0-4.0-1.33","17","Low_HMMActual","null","","","","Images/WhiteBeadChoice.png","null"
"image-keyboard-response","121","397934","0.0-4.0-2.33","17","Low_HMMActual","null","","","","Images/WhiteBeadChoiceCorrect.png","null"
"image-keyboard-response","122","398296","0.0-4.0-0.34","17","Low_HMMActual","360.2899999823421","","","","Images/NewTrialWC.png","39"
"image-keyboard-response","123","398706","0.0-4.0-1.34","17","Low_HMMActual","null","","","","Images/WhiteBeadChoice.png","null"
"image-keyboard-response","124","399421","0.0-4.0-2.34","17","Low_HMMActual","null","","","","Images/WhiteBeadChoiceCorrect.png","null"
"image-keyboard-response","125","400418","0.0-4.0-0.35","17","Low_HMMActual","993.9749999903142","","","","Images/NewTrialWC.png","39"
"image-keyboard-response","126","400827","0.0-4.0-1.35","17","Low_HMMActual","null","","","","Images/WhiteBeadChoice.png","null"
"image-keyboard-response","127","401540","0.0-4.0-2.35","17","Low_HMMActual","null","","","","Images/WhiteBeadChoiceCorrect.png","null"
"image-keyboard-response","128","402127","0.0-4.0-0.36","17","Low_HMMActual","584.8850000184029","","","","Images/NewTrialWC.png","37"
"image-keyboard-response","129","402540","0.0-4.0-1.36","17","Low_HMMActual","null","","","","Images/BlackBeadChoice.png","null"
"image-keyboard-response","130","403243","0.0-4.0-2.36","17","Low_HMMActual","null","","","","Images/BlackBeadChoiceCorrect.png","null"
"image-keyboard-response","131","408569","0.0-4.0-0.37","17","Low_HMMActual","5322.660000063479","","","","Images/NewTrialBC.png","39"
"image-keyboard-response","132","408987","0.0-4.0-1.37","17","Low_HMMActual","null","","","","Images/WhiteBeadChoice.png","null"
"image-keyboard-response","133","409689","0.0-4.0-2.37","17","Low_HMMActual","null","","","","Images/WhiteBeadChoiceCorrect.png","null"
"image-keyboard-response","134","410108","0.0-4.0-0.38","17","Low_HMMActual","415.92500009573996","","","","Images/NewTrialWC.png","39"
"image-keyboard-response","135","410513","0.0-4.0-1.38","17","Low_HMMActual","null","","","","Images/WhiteBeadChoice.png","null"
"image-keyboard-response","136","411216","0.0-4.0-2.38","17","Low_HMMActual","null","","","","Images/WhiteBeadChoiceCorrect.png","null"
"image-keyboard-response","137","411605","0.0-4.0-0.39","17","Low_HMMActual","386.4499998744577","","","","Images/NewTrialWC.png","39"
"image-keyboard-response","138","412022","0.0-4.0-1.39","17","Low_HMMActual","null","","","","Images/WhiteBeadChoice.png","null"
"image-keyboard-response","139","412738","0.0-4.0-2.39","17","Low_HMMActual","null","","","","Images/WhiteBeadChoiceCorrect.png","null"
"image-keyboard-response","140","412779","0.0-4.0-0.40","17","Low_HMMActual","38.2099999114871","","","","Images/NewTrialWC.png","37"
"image-keyboard-response","141","413183","0.0-4.0-1.40","17","Low_HMMActual","null","","","","Images/BlackBeadChoice.png","null"
"image-keyboard-response","142","413896","0.0-4.0-2.40","17","Low_HMMActual","null","","","","Images/BlackBeadChoiceCorrect.png","null"
"image-keyboard-response","143","419346","0.0-4.0-0.41","17","Low_HMMActual","5447.505000047386","","","","Images/NewTrialBC.png","39"
"image-keyboard-response","144","419758","0.0-4.0-1.41","17","Low_HMMActual","null","","","","Images/WhiteBeadChoice.png","null"
"image-keyboard-response","145","420471","0.0-4.0-2.41","17","Low_HMMActual","null","","","","Images/WhiteBeadChoiceWrong.png","null"
"image-keyboard-response","146","421062","0.0-4.0-0.42","17","Low_HMMActual","588.4849999565631","","","","Images/NewTrialBC.png","37"
"image-keyboard-response","147","421466","0.0-4.0-1.42","17","Low_HMMActual","null","","","","Images/BlackBeadChoice.png","null"
"image-keyboard-response","148","422176","0.0-4.0-2.42","17","Low_HMMActual","334.1700001619756","","","","Images/BlackBeadChoiceWrong.png","39"
"image-keyboard-response","149","422792","0.0-4.0-0.43","17","Low_HMMActual","613.1349999923259","","","","Images/NewTrialWC.png","39"
"image-keyboard-response","150","423196","0.0-4.0-1.43","17","Low_HMMActual","null","","","","Images/WhiteBeadChoice.png","null"
"image-keyboard-response","151","423904","0.0-4.0-2.43","17","Low_HMMActual","null","","","","Images/WhiteBeadChoiceCorrect.png","null"
"image-keyboard-response","152","424364","0.0-4.0-0.44","17","Low_HMMActual","456.41999994404614","","","","Images/NewTrialWC.png","39"
"image-keyboard-response","153","424770","0.0-4.0-1.44","17","Low_HMMActual","null","","","","Images/WhiteBeadChoice.png","null"
"image-keyboard-response","154","425484","0.0-4.0-2.44","17","Low_HMMActual","null","","","","Images/WhiteBeadChoiceCorrect.png","null"
"image-keyboard-response","155","426067","0.0-4.0-0.45","17","Low_HMMActual","581.4249999821186","","","","Images/NewTrialWC.png","39"
"image-keyboard-response","156","426477","0.0-4.0-1.45","17","Low_HMMActual","null","","","","Images/WhiteBeadChoice.png","null"
"image-keyboard-response","157","427180","0.0-4.0-2.45","17","Low_HMMActual","null","","","","Images/WhiteBeadChoiceCorrect.png","null"
"image-keyboard-response","158","427770","0.0-4.0-0.46","17","Low_HMMActual","586.9450001046062","","","","Images/NewTrialWC.png","37"
"image-keyboard-response","159","428173","0.0-4.0-1.46","17","Low_HMMActual","null","","","","Images/BlackBeadChoice.png","null"
"image-keyboard-response","160","428881","0.0-4.0-2.46","17","Low_HMMActual","null","","","","Images/BlackBeadChoiceWrong.png","null"
"image-keyboard-response","161","429496","0.0-4.0-0.47","17","Low_HMMActual","611.5350001491606","","","","Images/NewTrialWC.png","37"
"image-keyboard-response","162","429910","0.0-4.0-1.47","17","Low_HMMActual","null","","","","Images/BlackBeadChoice.png","null"
"image-keyboard-response","163","430618","0.0-4.0-2.47","17","Low_HMMActual","372.8300000075251","","","","Images/BlackBeadChoiceCorrect.png","39"
"image-keyboard-response","164","431106","0.0-4.0-0.48","17","Low_HMMActual","484.6449999604374","","","","Images/NewTrialBC.png","39"
"image-keyboard-response","165","431509","0.0-4.0-1.48","17","Low_HMMActual","null","","","","Images/WhiteBeadChoice.png","null"
"image-keyboard-response","166","432212","0.0-4.0-2.48","17","Low_HMMActual","null","","","","Images/WhiteBeadChoiceCorrect.png","null"
"image-keyboard-response","167","434902","0.0-4.0-0.49","17","Low_HMMActual","2686.9900000747293","","","","Images/NewTrialWC.png","37"
"image-keyboard-response","168","435315","0.0-4.0-1.49","17","Low_HMMActual","null","","","","Images/BlackBeadChoice.png","null"
"image-keyboard-response","169","436031","0.0-4.0-2.49","17","Low_HMMActual","null","","","","Images/BlackBeadChoiceCorrect.png","null"
"image-keyboard-response","170","436575","0.0-4.0-0.50","17","Low_HMMActual","542.0750000048429","","","","Images/NewTrialBC.png","37"
"image-keyboard-response","171","436982","0.0-4.0-1.50","17","Low_HMMActual","null","","","","Images/BlackBeadChoice.png","null"
"image-keyboard-response","172","437692","0.0-4.0-2.50","17","Low_HMMActual","null","","","","Images/BlackBeadChoiceWrong.png","null"
"image-keyboard-response","173","438594","0.0-4.0-0.51","17","Low_HMMActual","898.3750001061708","","","","Images/NewTrialWC.png","37"
"image-keyboard-response","174","438998","0.0-4.0-1.51","17","Low_HMMActual","null","","","","Images/BlackBeadChoice.png","null"
"image-keyboard-response","175","439701","0.0-4.0-2.51","17","Low_HMMActual","null","","","","Images/BlackBeadChoiceWrong.png","null"
"image-keyboard-response","176","440594","0.0-4.0-0.52","17","Low_HMMActual","891.5399999823421","","","","Images/NewTrialWC.png","39"
"image-keyboard-response","177","441003","0.0-4.0-1.52","17","Low_HMMActual","null","","","","Images/WhiteBeadChoice.png","null"
"image-keyboard-response","178","441707","0.0-4.0-2.52","17","Low_HMMActual","null","","","","Images/WhiteBeadChoiceCorrect.png","null"
"image-keyboard-response","179","442514","0.0-4.0-0.53","17","Low_HMMActual","804.4000000227243","","","","Images/NewTrialWC.png","37"
"image-keyboard-response","180","442917","0.0-4.0-1.53","17","Low_HMMActual","null","","","","Images/BlackBeadChoice.png","null"
"image-keyboard-response","181","443636","0.0-4.0-2.53","17","Low_HMMActual","null","","","","Images/BlackBeadChoiceCorrect.png","null"
"image-keyboard-response","182","444449","0.0-4.0-0.54","17","Low_HMMActual","810.5800000485033","","","","Images/NewTrialBC.png","37"
"image-keyboard-response","183","444864","0.0-4.0-1.54","17","Low_HMMActual","null","","","","Images/BlackBeadChoice.png","null"
"image-keyboard-response","184","445574","0.0-4.0-2.54","17","Low_HMMActual","null","","","","Images/BlackBeadChoiceWrong.png","null"
"image-keyboard-response","185","445907","0.0-4.0-0.55","17","Low_HMMActual","330.7199999690056","","","","Images/NewTrialWC.png","37"
"image-keyboard-response","186","446318","0.0-4.0-1.55","17","Low_HMMActual","null","","","","Images/BlackBeadChoice.png","null"
"image-keyboard-response","187","447028","0.0-4.0-2.55","17","Low_HMMActual","null","","","","Images/BlackBeadChoiceWrong.png","null"
"image-keyboard-response","188","447194","0.0-4.0-0.56","17","Low_HMMActual","163.34500000812113","","","","Images/NewTrialWC.png","37"
"image-keyboard-response","189","447606","0.0-4.0-1.56","17","Low_HMMActual","null","","","","Images/BlackBeadChoice.png","null"
"image-keyboard-response","190","448310","0.0-4.0-2.56","17","Low_HMMActual","null","","","","Images/BlackBeadChoiceWrong.png","null"
"image-keyboard-response","191","448498","0.0-4.0-0.57","17","Low_HMMActual","185.49499986693263","","","","Images/NewTrialWC.png","37"
"image-keyboard-response","192","448903","0.0-4.0-1.57","17","Low_HMMActual","null","","","","Images/BlackBeadChoice.png","null"
"image-keyboard-response","193","449622","0.0-4.0-2.57","17","Low_HMMActual","null","","","","Images/BlackBeadChoiceWrong.png","null"
"image-keyboard-response","194","449799","0.0-4.0-0.58","17","Low_HMMActual","173.49499999545515","","","","Images/NewTrialWC.png","37"
"image-keyboard-response","195","450211","0.0-4.0-1.58","17","Low_HMMActual","null","","","","Images/BlackBeadChoice.png","null"
"image-keyboard-response","196","450914","0.0-4.0-2.58","17","Low_HMMActual","null","","","","Images/BlackBeadChoiceWrong.png","null"
"image-keyboard-response","197","451096","0.0-4.0-0.59","17","Low_HMMActual","178.44499996863306","","","","Images/NewTrialWC.png","37"
"image-keyboard-response","198","451512","0.0-4.0-1.59","17","Low_HMMActual","null","","","","Images/BlackBeadChoice.png","null"
"image-keyboard-response","199","452214","0.0-4.0-2.59","17","Low_HMMActual","null","","","","Images/BlackBeadChoiceWrong.png","null"
"image-keyboard-response","200","452716","0.0-4.0-0.60","17","Low_HMMActual","499.2549999151379","","","","Images/NewTrialWC.png","37"
"image-keyboard-response","201","453118","0.0-4.0-1.60","17","Low_HMMActual","null","","","","Images/BlackBeadChoice.png","null"
"image-keyboard-response","202","453820","0.0-4.0-2.60","17","Low_HMMActual","null","","","","Images/BlackBeadChoiceWrong.png","null"
"image-keyboard-response","203","454665","0.0-4.0-0.61","17","Low_HMMActual","842.3149997834116","","","","Images/NewTrialWC.png","37"
"image-keyboard-response","204","455081","0.0-4.0-1.61","17","Low_HMMActual","null","","","","Images/BlackBeadChoice.png","null"
"image-keyboard-response","205","455782","0.0-4.0-2.61","17","Low_HMMActual","null","","","","Images/BlackBeadChoiceWrong.png","null"
"image-keyboard-response","206","456113","0.0-4.0-0.62","17","Low_HMMActual","329.14000004529953","","","","Images/NewTrialWC.png","37"
"image-keyboard-response","207","456520","0.0-4.0-1.62","17","Low_HMMActual","null","","","","Images/BlackBeadChoice.png","null"
"image-keyboard-response","208","457235","0.0-4.0-2.62","17","Low_HMMActual","null","","","","Images/BlackBeadChoiceWrong.png","null"
"image-keyboard-response","209","457994","0.0-4.0-0.63","17","Low_HMMActual","756.6850001458079","","","","Images/NewTrialWC.png","37"
"image-keyboard-response","210","458412","0.0-4.0-1.63","17","Low_HMMActual","null","","","","Images/BlackBeadChoice.png","null"
"image-keyboard-response","211","459114","0.0-4.0-2.63","17","Low_HMMActual","null","","","","Images/BlackBeadChoiceWrong.png","null"
"image-keyboard-response","212","459898","0.0-4.0-0.64","17","Low_HMMActual","782.2650000452995","","","","Images/NewTrialWC.png","39"
"image-keyboard-response","213","460317","0.0-4.0-1.64","17","Low_HMMActual","null","","","","Images/WhiteBeadChoice.png","null"
"image-keyboard-response","214","461026","0.0-4.0-2.64","17","Low_HMMActual","null","","","","Images/WhiteBeadChoiceCorrect.png","null"
"image-keyboard-response","215","461515","0.0-4.0-0.65","17","Low_HMMActual","485.70000007748604","","","","Images/NewTrialWC.png","39"
"image-keyboard-response","216","461933","0.0-4.0-1.65","17","Low_HMMActual","null","","","","Images/WhiteBeadChoice.png","null"
"image-keyboard-response","217","462645","0.0-4.0-2.65","17","Low_HMMActual","null","","","","Images/WhiteBeadChoiceWrong.png","null"
"image-keyboard-response","218","463068","0.0-4.0-0.66","17","Low_HMMActual","421.3549999985844","","","","Images/NewTrialBC.png","39"
"image-keyboard-response","219","463473","0.0-4.0-1.66","17","Low_HMMActual","11.590000009164214","","","","Images/WhiteBeadChoice.png","37"
"image-keyboard-response","220","464175","0.0-4.0-2.66","17","Low_HMMActual","null","","","","Images/WhiteBeadChoiceCorrect.png","null"
"image-keyboard-response","221","464831","0.0-4.0-0.67","17","Low_HMMActual","653.6749999504536","","","","Images/NewTrialWC.png","37"
"image-keyboard-response","222","465241","0.0-4.0-1.67","17","Low_HMMActual","null","","","","Images/BlackBeadChoice.png","null"
"image-keyboard-response","223","465944","0.0-4.0-2.67","17","Low_HMMActual","null","","","","Images/BlackBeadChoiceWrong.png","null"
"image-keyboard-response","224","466771","0.0-4.0-0.68","17","Low_HMMActual","824.7400000691414","","","","Images/NewTrialWC.png","39"
"image-keyboard-response","225","467176","0.0-4.0-1.68","17","Low_HMMActual","null","","","","Images/WhiteBeadChoice.png","null"
"image-keyboard-response","226","467879","0.0-4.0-2.68","17","Low_HMMActual","null","","","","Images/WhiteBeadChoiceCorrect.png","null"
"image-keyboard-response","227","473051","0.0-4.0-0.69","17","Low_HMMActual","5169.310000026599","","","","Images/NewTrialWC.png","39"
"image-keyboard-response","228","473457","0.0-4.0-1.69","17","Low_HMMActual","null","","","","Images/WhiteBeadChoice.png","null"
"image-keyboard-response","229","474170","0.0-4.0-2.69","17","Low_HMMActual","622.9049998801202","","","","Images/WhiteBeadChoiceCorrect.png","39"
"image-keyboard-response","230","475104","0.0-4.0-0.70","17","Low_HMMActual","932.9999999608845","","","","Images/NewTrialWC.png","39"
"image-keyboard-response","231","475509","0.0-4.0-1.70","17","Low_HMMActual","null","","","","Images/WhiteBeadChoice.png","null"
"image-keyboard-response","232","476226","0.0-4.0-2.70","17","Low_HMMActual","null","","","","Images/WhiteBeadChoiceWrong.png","null"
"image-keyboard-response","233","476309","0.0-4.0-0.71","17","Low_HMMActual","79.74499999545515","","","","Images/NewTrialBC.png","39"
"image-keyboard-response","234","476718","0.0-4.0-1.71","17","Low_HMMActual","null","","","","Images/WhiteBeadChoice.png","null"
"image-keyboard-response","235","477431","0.0-4.0-2.71","17","Low_HMMActual","null","","","","Images/WhiteBeadChoiceCorrect.png","null"
"image-keyboard-response","236","478405","0.0-4.0-0.72","17","Low_HMMActual","971.5450000949204","","","","Images/NewTrialWC.png","39"
"image-keyboard-response","237","478822","0.0-4.0-1.72","17","Low_HMMActual","null","","","","Images/WhiteBeadChoice.png","null"
"image-keyboard-response","238","479526","0.0-4.0-2.72","17","Low_HMMActual","506.95499987341464","","","","Images/WhiteBeadChoiceCorrect.png","32"
"image-keyboard-response","239","481020","0.0-4.0-0.73","17","Low_HMMActual","1491.7399999685585","","","","Images/NewTrialWC.png","39"
"image-keyboard-response","240","481433","0.0-4.0-1.73","17","Low_HMMActual","null","","","","Images/WhiteBeadChoice.png","null"
"image-keyboard-response","241","482141","0.0-4.0-2.73","17","Low_HMMActual","null","","","","Images/WhiteBeadChoiceCorrect.png","null"
"image-keyboard-response","242","482595","0.0-4.0-0.74","17","Low_HMMActual","450.77500003390014","","","","Images/NewTrialWC.png","39"
"image-keyboard-response","243","483012","0.0-4.0-1.74","17","Low_HMMActual","null","","","","Images/WhiteBeadChoice.png","null"
"image-keyboard-response","244","483716","0.0-4.0-2.74","17","Low_HMMActual","432.32999998144805","","","","Images/WhiteBeadChoiceCorrect.png","39"
"image-keyboard-response","245","484299","0.0-4.0-0.75","17","Low_HMMActual","581.0350000392646","","","","Images/NewTrialWC.png","39"
"image-keyboard-response","246","484702","0.0-4.0-1.75","17","Low_HMMActual","null","","","","Images/WhiteBeadChoice.png","null"
"image-keyboard-response","247","485405","0.0-4.0-2.75","17","Low_HMMActual","null","","","","Images/WhiteBeadChoiceCorrect.png","null"
"image-keyboard-response","248","485923","0.0-4.0-0.76","17","Low_HMMActual","514.3300001509488","","","","Images/NewTrialWC.png","37"
"image-keyboard-response","249","486334","0.0-4.0-1.76","17","Low_HMMActual","null","","","","Images/BlackBeadChoice.png","null"
"image-keyboard-response","250","487037","0.0-4.0-2.76","17","Low_HMMActual","null","","","","Images/BlackBeadChoiceWrong.png","null"
"image-keyboard-response","251","487717","0.0-4.0-0.77","17","Low_HMMActual","676.7049999907613","","","","Images/NewTrialWC.png","37"
"image-keyboard-response","252","488119","0.0-4.0-1.77","17","Low_HMMActual","null","","","","Images/BlackBeadChoice.png","null"
"image-keyboard-response","253","488828","0.0-4.0-2.77","17","Low_HMMActual","null","","","","Images/BlackBeadChoiceWrong.png","null"
"image-keyboard-response","254","489347","0.0-4.0-0.78","17","Low_HMMActual","516.4000000804663","","","","Images/NewTrialWC.png","37"
"image-keyboard-response","255","489753","0.0-4.0-1.78","17","Low_HMMActual","null","","","","Images/BlackBeadChoice.png","null"
"image-keyboard-response","256","490457","0.0-4.0-2.78","17","Low_HMMActual","null","","","","Images/BlackBeadChoiceWrong.png","null"
"image-keyboard-response","257","490871","0.0-4.0-0.79","17","Low_HMMActual","412.5449999701232","","","","Images/NewTrialWC.png","37"
"image-keyboard-response","258","491274","0.0-4.0-1.79","17","Low_HMMActual","null","","","","Images/BlackBeadChoice.png","null"
"image-keyboard-response","259","491992","0.0-4.0-2.79","17","Low_HMMActual","null","","","","Images/BlackBeadChoiceWrong.png","null"
"image-keyboard-response","260","492466","0.0-4.0-0.80","17","Low_HMMActual","471.4899999089539","","","","Images/NewTrialWC.png","37"
"image-keyboard-response","261","492872","0.0-4.0-1.80","17","Low_HMMActual","null","","","","Images/BlackBeadChoice.png","null"
"image-keyboard-response","262","493582","0.0-4.0-2.80","17","Low_HMMActual","null","","","","Images/BlackBeadChoiceWrong.png","null"
"image-keyboard-response","263","493887","0.0-4.0-0.81","17","Low_HMMActual","301.91000015474856","","","","Images/NewTrialWC.png","37"
"image-keyboard-response","264","494291","0.0-4.0-1.81","17","Low_HMMActual","null","","","","Images/BlackBeadChoice.png","null"
"image-keyboard-response","265","495002","0.0-4.0-2.81","17","Low_HMMActual","null","","","","Images/BlackBeadChoiceWrong.png","null"
"image-keyboard-response","266","495387","0.0-4.0-0.82","17","Low_HMMActual","381.919999839738","","","","Images/NewTrialWC.png","37"
"image-keyboard-response","267","495792","0.0-4.0-1.82","17","Low_HMMActual","null","","","","Images/BlackBeadChoice.png","null"
"image-keyboard-response","268","496496","0.0-4.0-2.82","17","Low_HMMActual","null","","","","Images/BlackBeadChoiceWrong.png","null"
"image-keyboard-response","269","497201","0.0-4.0-0.83","17","Low_HMMActual","702.5699999649078","","","","Images/NewTrialWC.png","37"
"image-keyboard-response","270","497608","0.0-4.0-1.83","17","Low_HMMActual","null","","","","Images/BlackBeadChoice.png","null"
"image-keyboard-response","271","498311","0.0-4.0-2.83","17","Low_HMMActual","null","","","","Images/BlackBeadChoiceWrong.png","null"
"image-keyboard-response","272","498577","0.0-4.0-0.84","17","Low_HMMActual","262.59999978356063","","","","Images/NewTrialWC.png","37"
"image-keyboard-response","273","498984","0.0-4.0-1.84","17","Low_HMMActual","null","","","","Images/BlackBeadChoice.png","null"
"image-keyboard-response","274","499697","0.0-4.0-2.84","17","Low_HMMActual","null","","","","Images/BlackBeadChoiceWrong.png","null"
"image-keyboard-response","275","500099","0.0-4.0-0.85","17","Low_HMMActual","398.50999996997416","","","","Images/NewTrialWC.png","39"
"image-keyboard-response","276","500502","0.0-4.0-1.85","17","Low_HMMActual","null","","","","Images/WhiteBeadChoice.png","null"
"image-keyboard-response","277","501211","0.0-4.0-2.85","17","Low_HMMActual","null","","","","Images/WhiteBeadChoiceCorrect.png","null"
"image-keyboard-response","278","501782","0.0-4.0-0.86","17","Low_HMMActual","567.7399998530746","","","","Images/NewTrialWC.png","37"
"image-keyboard-response","279","502192","0.0-4.0-1.86","17","Low_HMMActual","null","","","","Images/BlackBeadChoice.png","null"
"image-keyboard-response","280","502895","0.0-4.0-2.86","17","Low_HMMActual","null","","","","Images/BlackBeadChoiceWrong.png","null"
"image-keyboard-response","281","503206","0.0-4.0-0.87","17","Low_HMMActual","307.7350000385195","","","","Images/NewTrialWC.png","39"
"image-keyboard-response","282","503608","0.0-4.0-1.87","17","Low_HMMActual","null","","","","Images/WhiteBeadChoice.png","null"
"image-keyboard-response","283","504311","0.0-4.0-2.87","17","Low_HMMActual","null","","","","Images/WhiteBeadChoiceCorrect.png","null"
"image-keyboard-response","284","504458","0.0-4.0-0.88","17","Low_HMMActual","144.2449998576194","","","","Images/NewTrialWC.png","39"
"image-keyboard-response","285","504861","0.0-4.0-1.88","17","Low_HMMActual","null","","","","Images/WhiteBeadChoice.png","null"
"image-keyboard-response","286","505564","0.0-4.0-2.88","17","Low_HMMActual","null","","","","Images/WhiteBeadChoiceCorrect.png","null"
"image-keyboard-response","287","506136","0.0-4.0-0.89","17","Low_HMMActual","570.2249999158084","","","","Images/NewTrialWC.png","39"
"image-keyboard-response","288","506539","0.0-4.0-1.89","17","Low_HMMActual","null","","","","Images/WhiteBeadChoice.png","null"
"image-keyboard-response","289","507252","0.0-4.0-2.89","17","Low_HMMActual","null","","","","Images/WhiteBeadChoiceCorrect.png","null"
"image-keyboard-response","290","507361","0.0-4.0-0.90","17","Low_HMMActual","106.4549998845905","","","","Images/NewTrialWC.png","39"
"image-keyboard-response","291","507769","0.0-4.0-1.90","17","Low_HMMActual","null","","","","Images/WhiteBeadChoice.png","null"
"image-keyboard-response","292","508475","0.0-4.0-2.90","17","Low_HMMActual","543.4099999256432","","","","Images/WhiteBeadChoiceCorrect.png","39"
"image-keyboard-response","293","509208","0.0-4.0-0.91","17","Low_HMMActual","731.0000001452863","","","","Images/NewTrialWC.png","39"
"image-keyboard-response","294","509616","0.0-4.0-1.91","17","Low_HMMActual","null","","","","Images/WhiteBeadChoice.png","null"
"image-keyboard-response","295","510320","0.0-4.0-2.91","17","Low_HMMActual","null","","","","Images/WhiteBeadChoiceCorrect.png","null"
"image-keyboard-response","296","510633","0.0-4.0-0.92","17","Low_HMMActual","309.37999999150634","","","","Images/NewTrialWC.png","37"
"image-keyboard-response","297","511044","0.0-4.0-1.92","17","Low_HMMActual","null","","","","Images/BlackBeadChoice.png","null"
"image-keyboard-response","298","511752","0.0-4.0-2.92","17","Low_HMMActual","532.490000128746","","","","Images/BlackBeadChoiceWrong.png","39"
"image-keyboard-response","299","512331","0.0-4.0-0.93","17","Low_HMMActual","576.2450001202524","","","","Images/NewTrialWC.png","39"
"image-keyboard-response","300","512748","0.0-4.0-1.93","17","Low_HMMActual","null","","","","Images/WhiteBeadChoice.png","null"
"image-keyboard-response","301","513460","0.0-4.0-2.93","17","Low_HMMActual","null","","","","Images/WhiteBeadChoiceCorrect.png","null"
"image-keyboard-response","302","513887","0.0-4.0-0.94","17","Low_HMMActual","425.7950000464916","","","","Images/NewTrialWC.png","39"
"image-keyboard-response","303","514300","0.0-4.0-1.94","17","Low_HMMActual","null","","","","Images/WhiteBeadChoice.png","null"
"image-keyboard-response","304","515014","0.0-4.0-2.94","17","Low_HMMActual","null","","","","Images/WhiteBeadChoiceCorrect.png","null"
"image-keyboard-response","305","515214","0.0-4.0-0.95","17","Low_HMMActual","196.63499994203448","","","","Images/NewTrialWC.png","39"
"image-keyboard-response","306","515619","0.0-4.0-1.95","17","Low_HMMActual","null","","","","Images/WhiteBeadChoice.png","null"
"image-keyboard-response","307","516324","0.0-4.0-2.95","17","Low_HMMActual","null","","","","Images/WhiteBeadChoiceCorrect.png","null"
"image-keyboard-response","308","516628","0.0-4.0-0.96","17","Low_HMMActual","301.0200001299381","","","","Images/NewTrialWC.png","39"
"image-keyboard-response","309","517043","0.0-4.0-1.96","17","Low_HMMActual","null","","","","Images/WhiteBeadChoice.png","null"
"image-keyboard-response","310","517757","0.0-4.0-2.96","17","Low_HMMActual","null","","","","Images/WhiteBeadChoiceCorrect.png","null"
"image-keyboard-response","311","518058","0.0-4.0-0.97","17","Low_HMMActual","298.59500005841255","","","","Images/NewTrialWC.png","39"
"image-keyboard-response","312","518460","0.0-4.0-1.97","17","Low_HMMActual","null","","","","Images/WhiteBeadChoice.png","null"
"image-keyboard-response","313","519166","0.0-4.0-2.97","17","Low_HMMActual","null","","","","Images/WhiteBeadChoiceCorrect.png","null"
"image-keyboard-response","314","519551","0.0-4.0-0.98","17","Low_HMMActual","381.67000003159046","","","","Images/NewTrialWC.png","39"
"image-keyboard-response","315","519964","0.0-4.0-1.98","17","Low_HMMActual","null","","","","Images/WhiteBeadChoice.png","null"
"image-keyboard-response","316","520669","0.0-4.0-2.98","17","Low_HMMActual","null","","","","Images/WhiteBeadChoiceCorrect.png","null"
"image-keyboard-response","317","520955","0.0-4.0-0.99","17","Low_HMMActual","284.12500000558794","","","","Images/NewTrialWC.png","39"
"image-keyboard-response","318","521370","0.0-4.0-1.99","17","Low_HMMActual","null","","","","Images/WhiteBeadChoice.png","null"
"image-keyboard-response","319","522088","0.0-4.0-2.99","17","Low_HMMActual","null","","","","Images/WhiteBeadChoiceWrong.png","null"
"image-keyboard-response","320","522292","0.0-4.0-0.100","17","Low_HMMActual","200.9399998933077","","","","Images/NewTrialBC.png","39"
"image-keyboard-response","321","522695","0.0-4.0-1.100","17","Low_HMMActual","null","","","","Images/WhiteBeadChoice.png","null"
"image-keyboard-response","322","523399","0.0-4.0-2.100","17","Low_HMMActual","null","","","","Images/WhiteBeadChoiceCorrect.png","null"
"image-keyboard-response","323","523963","0.0-4.0-0.101","17","Low_HMMActual","561.0599999781698","","","","Images/NewTrialWC.png","39"
"image-keyboard-response","324","524378","0.0-4.0-1.101","17","Low_HMMActual","null","","","","Images/WhiteBeadChoice.png","null"
"image-keyboard-response","325","525096","0.0-4.0-2.101","17","Low_HMMActual","null","","","","Images/WhiteBeadChoiceCorrect.png","null"
"image-keyboard-response","326","525391","0.0-4.0-0.102","17","Low_HMMActual","291.68999986723065","","","","Images/NewTrialWC.png","39"
"image-keyboard-response","327","525807","0.0-4.0-1.102","17","Low_HMMActual","null","","","","Images/WhiteBeadChoice.png","null"
"image-keyboard-response","328","526515","0.0-4.0-2.102","17","Low_HMMActual","535.3050001431257","","","","Images/WhiteBeadChoiceCorrect.png","39"
"image-keyboard-response","329","527015","0.0-4.0-0.103","17","Low_HMMActual","498.1500001158565","","","","Images/NewTrialWC.png","39"
"image-keyboard-response","330","527432","0.0-4.0-1.103","17","Low_HMMActual","null","","","","Images/WhiteBeadChoice.png","null"
"image-keyboard-response","331","528135","0.0-4.0-2.103","17","Low_HMMActual","652.4600000120699","","","","Images/WhiteBeadChoiceCorrect.png","37"
"image-keyboard-response","332","528953","0.0-4.0-0.104","17","Low_HMMActual","815.7699999865144","","","","Images/NewTrialWC.png","37"
"image-keyboard-response","333","529359","0.0-4.0-1.104","17","Low_HMMActual","null","","","","Images/BlackBeadChoice.png","null"
"image-keyboard-response","334","530076","0.0-4.0-2.104","17","Low_HMMActual","null","","","","Images/BlackBeadChoiceWrong.png","null"
"image-keyboard-response","335","530521","0.0-4.0-0.105","17","Low_HMMActual","442.0549999922514","","","","Images/NewTrialWC.png","39"
"image-keyboard-response","336","530933","0.0-4.0-1.105","17","Low_HMMActual","null","","","","Images/WhiteBeadChoice.png","null"
"image-keyboard-response","337","531640","0.0-4.0-2.105","17","Low_HMMActual","null","","","","Images/WhiteBeadChoiceCorrect.png","null"
"image-keyboard-response","338","531982","0.0-4.0-0.106","17","Low_HMMActual","339.56999983638525","","","","Images/NewTrialWC.png","39"
"image-keyboard-response","339","532393","0.0-4.0-1.106","17","Low_HMMActual","null","","","","Images/WhiteBeadChoice.png","null"
"image-keyboard-response","340","533104","0.0-4.0-2.106","17","Low_HMMActual","null","","","","Images/WhiteBeadChoiceCorrect.png","null"
"image-keyboard-response","341","533292","0.0-4.0-0.107","17","Low_HMMActual","185.71000010706484","","","","Images/NewTrialWC.png","39"
"image-keyboard-response","342","533703","0.0-4.0-1.107","17","Low_HMMActual","null","","","","Images/WhiteBeadChoice.png","null"
"image-keyboard-response","343","534405","0.0-4.0-2.107","17","Low_HMMActual","null","","","","Images/WhiteBeadChoiceCorrect.png","null"
"image-keyboard-response","344","534628","0.0-4.0-0.108","17","Low_HMMActual","220.2849998138845","","","","Images/NewTrialWC.png","39"
"image-keyboard-response","345","535042","0.0-4.0-1.108","17","Low_HMMActual","null","","","","Images/WhiteBeadChoice.png","null"
"image-keyboard-response","346","535757","0.0-4.0-2.108","17","Low_HMMActual","null","","","","Images/WhiteBeadChoiceCorrect.png","null"
"image-keyboard-response","347","536318","0.0-4.0-0.109","17","Low_HMMActual","558.564999839291","","","","Images/NewTrialWC.png","39"
"image-keyboard-response","348","536723","0.0-4.0-1.109","17","Low_HMMActual","null","","","","Images/WhiteBeadChoice.png","null"
"image-keyboard-response","349","537440","0.0-4.0-2.109","17","Low_HMMActual","null","","","","Images/WhiteBeadChoiceCorrect.png","null"
"image-keyboard-response","350","537802","0.0-4.0-0.110","17","Low_HMMActual","360.80999998375773","","","","Images/NewTrialWC.png","39"
"image-keyboard-response","351","538208","0.0-4.0-1.110","17","Low_HMMActual","null","","","","Images/WhiteBeadChoice.png","null"
"image-keyboard-response","352","538912","0.0-4.0-2.110","17","Low_HMMActual","null","","","","Images/WhiteBeadChoiceWrong.png","null"
"image-keyboard-response","353","539557","0.0-4.0-0.111","17","Low_HMMActual","642.1650000847876","","","","Images/NewTrialBC.png","39"
"image-keyboard-response","354","539960","0.0-4.0-1.111","17","Low_HMMActual","null","","","","Images/WhiteBeadChoice.png","null"
"image-keyboard-response","355","540664","0.0-4.0-2.111","17","Low_HMMActual","null","","","","Images/WhiteBeadChoiceCorrect.png","null"
"image-keyboard-response","356","540938","0.0-4.0-0.112","17","Low_HMMActual","270.7499999087304","","","","Images/NewTrialWC.png","37"
"image-keyboard-response","357","541347","0.0-4.0-1.112","17","Low_HMMActual","null","","","","Images/BlackBeadChoice.png","null"
"image-keyboard-response","358","542059","0.0-4.0-2.112","17","Low_HMMActual","null","","","","Images/BlackBeadChoiceWrong.png","null"
"image-keyboard-response","359","542108","0.0-4.0-0.113","17","Low_HMMActual","45.79500015825033","","","","Images/NewTrialWC.png","39"
"image-keyboard-response","360","542521","0.0-4.0-1.113","17","Low_HMMActual","null","","","","Images/WhiteBeadChoice.png","null"
"image-keyboard-response","361","543224","0.0-4.0-2.113","17","Low_HMMActual","null","","","","Images/WhiteBeadChoiceCorrect.png","null"
"image-keyboard-response","362","543537","0.0-4.0-0.114","17","Low_HMMActual","310.9599999152124","","","","Images/NewTrialWC.png","39"
"image-keyboard-response","363","543941","0.0-4.0-1.114","17","Low_HMMActual","null","","","","Images/WhiteBeadChoice.png","null"
"image-keyboard-response","364","544644","0.0-4.0-2.114","17","Low_HMMActual","null","","","","Images/WhiteBeadChoiceCorrect.png","null"
"image-keyboard-response","365","545170","0.0-4.0-0.115","17","Low_HMMActual","522.9400000534952","","","","Images/NewTrialWC.png","39"
"image-keyboard-response","366","545577","0.0-4.0-1.115","17","Low_HMMActual","null","","","","Images/WhiteBeadChoice.png","null"
"image-keyboard-response","367","546282","0.0-4.0-2.115","17","Low_HMMActual","null","","","","Images/WhiteBeadChoiceCorrect.png","null"
"image-keyboard-response","368","546753","0.0-4.0-0.116","17","Low_HMMActual","469.4799999706447","","","","Images/NewTrialWC.png","39"
"image-keyboard-response","369","547165","0.0-4.0-1.116","17","Low_HMMActual","null","","","","Images/WhiteBeadChoice.png","null"
"image-keyboard-response","370","547879","0.0-4.0-2.116","17","Low_HMMActual","null","","","","Images/WhiteBeadChoiceCorrect.png","null"
"image-keyboard-response","371","548368","0.0-4.0-0.117","17","Low_HMMActual","486.80999991483986","","","","Images/NewTrialWC.png","37"
"image-keyboard-response","372","548773","0.0-4.0-1.117","17","Low_HMMActual","null","","","","Images/BlackBeadChoice.png","null"
"image-keyboard-response","373","549479","0.0-4.0-2.117","17","Low_HMMActual","null","","","","Images/BlackBeadChoiceCorrect.png","null"
"image-keyboard-response","374","550286","0.0-4.0-0.118","17","Low_HMMActual","805.699999909848","","","","Images/NewTrialBC.png","39"
"image-keyboard-response","375","550699","0.0-4.0-1.118","17","Low_HMMActual","null","","","","Images/WhiteBeadChoice.png","null"
"image-keyboard-response","376","551403","0.0-4.0-2.118","17","Low_HMMActual","null","","","","Images/WhiteBeadChoiceCorrect.png","null"
"image-keyboard-response","377","551876","0.0-4.0-0.119","17","Low_HMMActual","470.194999827072","","","","Images/NewTrialWC.png","39"
"image-keyboard-response","378","552293","0.0-4.0-1.119","17","Low_HMMActual","null","","","","Images/WhiteBeadChoice.png","null"
"image-keyboard-response","379","553007","0.0-4.0-2.119","17","Low_HMMActual","null","","","","Images/WhiteBeadChoiceCorrect.png","null"
"image-keyboard-response","380","553779","0.0-4.0-0.120","17","Low_HMMActual","769.2950000055134","","","","Images/NewTrialWC.png","39"
"image-keyboard-response","381","554187","0.0-4.0-1.120","17","Low_HMMActual","null","","","","Images/WhiteBeadChoice.png","null"
"image-keyboard-response","382","554889","0.0-4.0-2.120","17","Low_HMMActual","null","","","","Images/WhiteBeadChoiceCorrect.png","null"
"image-keyboard-response","383","555502","0.0-4.0-0.121","17","Low_HMMActual","610.3850000072271","","","","Images/NewTrialWC.png","39"
"image-keyboard-response","384","555908","0.0-4.0-1.121","17","Low_HMMActual","null","","","","Images/WhiteBeadChoice.png","null"
"image-keyboard-response","385","556612","0.0-4.0-2.121","17","Low_HMMActual","null","","","","Images/WhiteBeadChoiceCorrect.png","null"
"image-keyboard-response","386","557358","0.0-4.0-0.122","17","Low_HMMActual","743.5649998951703","","","","Images/NewTrialWC.png","39"
"image-keyboard-response","387","557768","0.0-4.0-1.122","17","Low_HMMActual","null","","","","Images/WhiteBeadChoice.png","null"
"image-keyboard-response","388","558470","0.0-4.0-2.122","17","Low_HMMActual","null","","","","Images/WhiteBeadChoiceCorrect.png","null"
"image-keyboard-response","389","559443","0.0-4.0-0.123","17","Low_HMMActual","970.9799999836832","","","","Images/NewTrialWC.png","39"
"image-keyboard-response","390","559863","0.0-4.0-1.123","17","Low_HMMActual","null","","","","Images/WhiteBeadChoice.png","null"
"image-keyboard-response","391","560581","0.0-4.0-2.123","17","Low_HMMActual","null","","","","Images/WhiteBeadChoiceCorrect.png","null"
"image-keyboard-response","392","561494","0.0-4.0-0.124","17","Low_HMMActual","910.1299999747425","","","","Images/NewTrialWC.png","39"
"image-keyboard-response","393","561902","0.0-4.0-1.124","17","Low_HMMActual","null","","","","Images/WhiteBeadChoice.png","null"
"image-keyboard-response","394","562621","0.0-4.0-2.124","17","Low_HMMActual","null","","","","Images/WhiteBeadChoiceCorrect.png","null"
"image-keyboard-response","395","563226","0.0-4.0-0.125","17","Low_HMMActual","602.625000057742","","","","Images/NewTrialWC.png","39"
"image-keyboard-response","396","563630","0.0-4.0-1.125","17","Low_HMMActual","null","","","","Images/WhiteBeadChoice.png","null"
"image-keyboard-response","397","564338","0.0-4.0-2.125","17","Low_HMMActual","null","","","","Images/WhiteBeadChoiceCorrect.png","null"
"image-keyboard-response","398","564490","0.0-4.0-0.126","17","Low_HMMActual","148.79500004462898","","","","Images/NewTrialWC.png","37"
"image-keyboard-response","399","564892","0.0-4.0-1.126","17","Low_HMMActual","null","","","","Images/BlackBeadChoice.png","null"
"image-keyboard-response","400","565607","0.0-4.0-2.126","17","Low_HMMActual","null","","","","Images/BlackBeadChoiceWrong.png","null"
"image-keyboard-response","401","566012","0.0-4.0-0.127","17","Low_HMMActual","402.8099998831749","","","","Images/NewTrialWC.png","39"
"image-keyboard-response","402","566430","0.0-4.0-1.127","17","Low_HMMActual","null","","","","Images/WhiteBeadChoice.png","null"
"image-keyboard-response","403","567134","0.0-4.0-2.127","17","Low_HMMActual","null","","","","Images/WhiteBeadChoiceCorrect.png","null"
"image-keyboard-response","404","567809","0.0-4.0-0.128","17","Low_HMMActual","672.7849999442697","","","","Images/NewTrialWC.png","39"
"image-keyboard-response","405","568212","0.0-4.0-1.128","17","Low_HMMActual","null","","","","Images/WhiteBeadChoice.png","null"
"image-keyboard-response","406","568914","0.0-4.0-2.128","17","Low_HMMActual","null","","","","Images/WhiteBeadChoiceWrong.png","null"
"image-keyboard-response","407","569219","0.0-4.0-0.129","17","Low_HMMActual","301.3600001577288","","","","Images/NewTrialBC.png","39"
"image-keyboard-response","408","569627","0.0-4.0-1.129","17","Low_HMMActual","null","","","","Images/WhiteBeadChoice.png","null"
"image-keyboard-response","409","570344","0.0-4.0-2.129","17","Low_HMMActual","null","","","","Images/WhiteBeadChoiceCorrect.png","null"
"image-keyboard-response","410","570725","0.0-4.0-0.130","17","Low_HMMActual","378.44500015489757","","","","Images/NewTrialWC.png","39"
"image-keyboard-response","411","571135","0.0-4.0-1.130","17","Low_HMMActual","null","","","","Images/WhiteBeadChoice.png","null"
"image-keyboard-response","412","571841","0.0-4.0-2.130","17","Low_HMMActual","null","","","","Images/WhiteBeadChoiceWrong.png","null"
"image-keyboard-response","413","572058","0.0-4.0-0.131","17","Low_HMMActual","214.00499995797873","","","","Images/NewTrialBC.png","39"
"image-keyboard-response","414","572464","0.0-4.0-1.131","17","Low_HMMActual","null","","","","Images/WhiteBeadChoice.png","null"
"image-keyboard-response","415","573169","0.0-4.0-2.131","17","Low_HMMActual","null","","","","Images/WhiteBeadChoiceCorrect.png","null"
"image-keyboard-response","416","573513","0.0-4.0-0.132","17","Low_HMMActual","342.2049998771399","","","","Images/NewTrialWC.png","37"
"image-keyboard-response","417","573924","0.0-4.0-1.132","17","Low_HMMActual","null","","","","Images/BlackBeadChoice.png","null"
"image-keyboard-response","418","574628","0.0-4.0-2.132","17","Low_HMMActual","534.4899999909103","","","","Images/BlackBeadChoiceWrong.png","39"
"image-keyboard-response","419","575241","0.0-4.0-0.133","17","Low_HMMActual","610.4049999266863","","","","Images/NewTrialWC.png","39"
"image-keyboard-response","420","575644","0.0-4.0-1.133","17","Low_HMMActual","null","","","","Images/WhiteBeadChoice.png","null"
"image-keyboard-response","421","576354","0.0-4.0-2.133","17","Low_HMMActual","661.7650000844151","","","","Images/WhiteBeadChoiceWrong.png","39"
"image-keyboard-response","422","577096","0.0-4.0-0.134","17","Low_HMMActual","737.7799998503178","","","","Images/NewTrialBC.png","39"
"image-keyboard-response","423","577511","0.0-4.0-1.134","17","Low_HMMActual","null","","","","Images/WhiteBeadChoice.png","null"
"image-keyboard-response","424","578213","0.0-4.0-2.134","17","Low_HMMActual","null","","","","Images/WhiteBeadChoiceCorrect.png","null"
"image-keyboard-response","425","578726","0.0-4.0-0.135","17","Low_HMMActual","510.06000000052154","","","","Images/NewTrialWC.png","39"
"image-keyboard-response","426","579144","0.0-4.0-1.135","17","Low_HMMActual","null","","","","Images/WhiteBeadChoice.png","null"
"image-keyboard-response","427","579861","0.0-4.0-2.135","17","Low_HMMActual","null","","","","Images/WhiteBeadChoiceWrong.png","null"
"image-keyboard-response","428","580444","0.0-4.0-0.136","17","Low_HMMActual","590.6150001101196","","","","Images/NewTrialBC.png","39"
"image-keyboard-response","429","580852","0.0-4.0-1.136","17","Low_HMMActual","null","","","","Images/WhiteBeadChoice.png","null"
"image-keyboard-response","430","581558","0.0-4.0-2.136","17","Low_HMMActual","null","","","","Images/WhiteBeadChoiceWrong.png","null"
"image-keyboard-response","431","582443","0.0-4.0-0.137","17","Low_HMMActual","882.054999936372","","","","Images/NewTrialBC.png","39"
"image-keyboard-response","432","582846","0.0-4.0-1.137","17","Low_HMMActual","null","","","","Images/WhiteBeadChoice.png","null"
"image-keyboard-response","433","583560","0.0-4.0-2.137","17","Low_HMMActual","null","","","","Images/WhiteBeadChoiceCorrect.png","null"
"image-keyboard-response","434","584138","0.0-4.0-0.138","17","Low_HMMActual","574.6799998451024","","","","Images/NewTrialWC.png","39"
"image-keyboard-response","435","584549","0.0-4.0-1.138","17","Low_HMMActual","null","","","","Images/WhiteBeadChoice.png","null"
"image-keyboard-response","436","585266","0.0-4.0-2.138","17","Low_HMMActual","null","","","","Images/WhiteBeadChoiceWrong.png","null"
"image-keyboard-response","437","585725","0.0-4.0-0.139","17","Low_HMMActual","455.93499997630715","","","","Images/NewTrialBC.png","39"
"image-keyboard-response","438","586132","0.0-4.0-1.139","17","Low_HMMActual","null","","","","Images/WhiteBeadChoice.png","null"
"image-keyboard-response","439","586848","0.0-4.0-2.139","17","Low_HMMActual","null","","","","Images/WhiteBeadChoiceCorrect.png","null"
"image-keyboard-response","440","587340","0.0-4.0-0.140","17","Low_HMMActual","489.9299999233335","","","","Images/NewTrialWC.png","39"
"image-keyboard-response","441","587755","0.0-4.0-1.140","17","Low_HMMActual","null","","","","Images/WhiteBeadChoice.png","null"
"image-keyboard-response","442","588458","0.0-4.0-2.140","17","Low_HMMActual","null","","","","Images/WhiteBeadChoiceCorrect.png","null"
"image-keyboard-response","443","589076","0.0-4.0-0.141","17","Low_HMMActual","615.8350000623614","","","","Images/NewTrialWC.png","39"
"image-keyboard-response","444","589485","0.0-4.0-1.141","17","Low_HMMActual","null","","","","Images/WhiteBeadChoice.png","null"
"image-keyboard-response","445","590187","0.0-4.0-2.141","17","Low_HMMActual","null","","","","Images/WhiteBeadChoiceWrong.png","null"
"image-keyboard-response","446","590808","0.0-4.0-0.142","17","Low_HMMActual","618.650000076741","","","","Images/NewTrialBC.png","39"
"image-keyboard-response","447","591225","0.0-4.0-1.142","17","Low_HMMActual","null","","","","Images/WhiteBeadChoice.png","null"
"image-keyboard-response","448","591928","0.0-4.0-2.142","17","Low_HMMActual","null","","","","Images/WhiteBeadChoiceCorrect.png","null"
"image-keyboard-response","449","592397","0.0-4.0-0.143","17","Low_HMMActual","467.79500017873943","","","","Images/NewTrialWC.png","39"
"image-keyboard-response","450","592807","0.0-4.0-1.143","17","Low_HMMActual","null","","","","Images/WhiteBeadChoice.png","null"
"image-keyboard-response","451","593509","0.0-4.0-2.143","17","Low_HMMActual","null","","","","Images/WhiteBeadChoiceCorrect.png","null"
"image-keyboard-response","452","594047","0.0-4.0-0.144","17","Low_HMMActual","536.6099998354912","","","","Images/NewTrialWC.png","39"
"image-keyboard-response","453","594455","0.0-4.0-1.144","17","Low_HMMActual","null","","","","Images/WhiteBeadChoice.png","null"
"image-keyboard-response","454","595163","0.0-4.0-2.144","17","Low_HMMActual","null","","","","Images/WhiteBeadChoiceCorrect.png","null"
"image-keyboard-response","455","595603","0.0-4.0-0.145","17","Low_HMMActual","437.8850001376122","","","","Images/NewTrialWC.png","37"
"image-keyboard-response","456","596004","0.0-4.0-1.145","17","Low_HMMActual","null","","","","Images/BlackBeadChoice.png","null"
"image-keyboard-response","457","596718","0.0-4.0-2.145","17","Low_HMMActual","null","","","","Images/BlackBeadChoiceWrong.png","null"
"image-keyboard-response","458","597446","0.0-4.0-0.146","17","Low_HMMActual","727.174999890849","","","","Images/NewTrialWC.png","37"
"image-keyboard-response","459","597849","0.0-4.0-1.146","17","Low_HMMActual","null","","","","Images/BlackBeadChoice.png","null"
"image-keyboard-response","460","598560","0.0-4.0-2.146","17","Low_HMMActual","null","","","","Images/BlackBeadChoiceCorrect.png","null"
"image-keyboard-response","461","599063","0.0-4.0-0.147","17","Low_HMMActual","501.6300000716001","","","","Images/NewTrialBC.png","39"
"image-keyboard-response","462","599477","0.0-4.0-1.147","17","Low_HMMActual","null","","","","Images/WhiteBeadChoice.png","null"
"image-keyboard-response","463","600183","0.0-4.0-2.147","17","Low_HMMActual","null","","","","Images/WhiteBeadChoiceCorrect.png","null"
"image-keyboard-response","464","600674","0.0-4.0-0.148","17","Low_HMMActual","488.9299999922514","","","","Images/NewTrialWC.png","39"
"image-keyboard-response","465","601076","0.0-4.0-1.148","17","Low_HMMActual","null","","","","Images/WhiteBeadChoice.png","null"
"image-keyboard-response","466","601778","0.0-4.0-2.148","17","Low_HMMActual","null","","","","Images/WhiteBeadChoiceWrong.png","null"
"image-keyboard-response","467","602232","0.0-4.0-0.149","17","Low_HMMActual","452.88500003516674","","","","Images/NewTrialBC.png","39"
"image-keyboard-response","468","602643","0.0-4.0-1.149","17","Low_HMMActual","null","","","","Images/WhiteBeadChoice.png","null"
"image-keyboard-response","469","603346","0.0-4.0-2.149","17","Low_HMMActual","null","","","","Images/WhiteBeadChoiceCorrect.png","null"
"image-keyboard-response","470","603691","0.0-4.0-0.150","17","Low_HMMActual","343.42000004835427","","","","Images/NewTrialWC.png","39"
"image-keyboard-response","471","604096","0.0-4.0-1.150","17","Low_HMMActual","null","","","","Images/WhiteBeadChoice.png","null"
"image-keyboard-response","472","604798","0.0-4.0-2.150","17","Low_HMMActual","null","","","","Images/WhiteBeadChoiceCorrect.png","null"
"image-keyboard-response","473","605255","0.0-4.0-0.151","17","Low_HMMActual","455.6200001388788","","","","Images/NewTrialWC.png","39"
"image-keyboard-response","474","605666","0.0-4.0-1.151","17","Low_HMMActual","null","","","","Images/WhiteBeadChoice.png","null"
"image-keyboard-response","475","606383","0.0-4.0-2.151","17","Low_HMMActual","null","","","","Images/WhiteBeadChoiceWrong.png","null"
"image-keyboard-response","476","606806","0.0-4.0-0.152","17","Low_HMMActual","421.23000021092594","","","","Images/NewTrialBC.png","39"
"image-keyboard-response","477","607209","0.0-4.0-1.152","17","Low_HMMActual","null","","","","Images/WhiteBeadChoice.png","null"
"image-keyboard-response","478","607924","0.0-4.0-2.152","17","Low_HMMActual","null","","","","Images/WhiteBeadChoiceWrong.png","null"
"image-keyboard-response","479","608312","0.0-4.0-0.153","17","Low_HMMActual","386.87500008381903","","","","Images/NewTrialBC.png","37"
"image-keyboard-response","480","608722","0.0-4.0-1.153","17","Low_HMMActual","null","","","","Images/BlackBeadChoice.png","null"
"image-keyboard-response","481","609424","0.0-4.0-2.153","17","Low_HMMActual","null","","","","Images/BlackBeadChoiceCorrect.png","null"
"image-keyboard-response","482","609869","0.0-4.0-0.154","17","Low_HMMActual","443.510000128299","","","","Images/NewTrialBC.png","37"
"image-keyboard-response","483","610281","0.0-4.0-1.154","17","Low_HMMActual","null","","","","Images/BlackBeadChoice.png","null"
"image-keyboard-response","484","610988","0.0-4.0-2.154","17","Low_HMMActual","null","","","","Images/BlackBeadChoiceCorrect.png","null"
"image-keyboard-response","485","611432","0.0-4.0-0.155","17","Low_HMMActual","443.3250001166016","","","","Images/NewTrialBC.png","37"
"image-keyboard-response","486","611849","0.0-4.0-1.155","17","Low_HMMActual","null","","","","Images/BlackBeadChoice.png","null"
"image-keyboard-response","487","612552","0.0-4.0-2.155","17","Low_HMMActual","null","","","","Images/BlackBeadChoiceCorrect.png","null"
"image-keyboard-response","488","613034","0.0-4.0-0.156","17","Low_HMMActual","480.57500016875565","","","","Images/NewTrialBC.png","37"
"image-keyboard-response","489","613437","0.0-4.0-1.156","17","Low_HMMActual","null","","","","Images/BlackBeadChoice.png","null"
"image-keyboard-response","490","614146","0.0-4.0-2.156","17","Low_HMMActual","null","","","","Images/BlackBeadChoiceCorrect.png","null"
"image-keyboard-response","491","614524","0.0-4.0-0.157","17","Low_HMMActual","375.9149999823421","","","","Images/NewTrialBC.png","37"
"image-keyboard-response","492","614926","0.0-4.0-1.157","17","Low_HMMActual","null","","","","Images/BlackBeadChoice.png","null"
"image-keyboard-response","493","615628","0.0-4.0-2.157","17","Low_HMMActual","null","","","","Images/BlackBeadChoiceCorrect.png","null"
"image-keyboard-response","494","615888","0.0-4.0-0.158","17","Low_HMMActual","258.53500002995133","","","","Images/NewTrialBC.png","37"
"image-keyboard-response","495","616292","0.0-4.0-1.158","17","Low_HMMActual","null","","","","Images/BlackBeadChoice.png","null"
"image-keyboard-response","496","617007","0.0-4.0-2.158","17","Low_HMMActual","null","","","","Images/BlackBeadChoiceCorrect.png","null"
"image-keyboard-response","497","617189","0.0-4.0-0.159","17","Low_HMMActual","180.44500006362796","","","","Images/NewTrialBC.png","37"
"image-keyboard-response","498","617603","0.0-4.0-1.159","17","Low_HMMActual","null","","","","Images/BlackBeadChoice.png","null"
"image-keyboard-response","499","618306","0.0-4.0-2.159","17","Low_HMMActual","null","","","","Images/BlackBeadChoiceWrong.png","null"
"image-keyboard-response","500","618649","0.0-4.0-0.160","17","Low_HMMActual","342.3699999693781","","","","Images/NewTrialWC.png","39"
"image-keyboard-response","501","619060","0.0-4.0-1.160","17","Low_HMMActual","null","","","","Images/WhiteBeadChoice.png","null"
"image-keyboard-response","502","619762","0.0-4.0-2.160","17","Low_HMMActual","null","","","","Images/WhiteBeadChoiceWrong.png","null"
"image-keyboard-response","503","619881","0.0-4.0-0.161","17","Low_HMMActual","117.27500008419156","","","","Images/NewTrialBC.png","37"
"image-keyboard-response","504","620293","0.0-4.0-1.161","17","Low_HMMActual","null","","","","Images/BlackBeadChoice.png","null"
"image-keyboard-response","505","621006","0.0-4.0-2.161","17","Low_HMMActual","null","","","","Images/BlackBeadChoiceCorrect.png","null"
"image-keyboard-response","506","621126","0.0-4.0-0.162","17","Low_HMMActual","118.52500005625188","","","","Images/NewTrialBC.png","37"
"image-keyboard-response","507","621528","0.0-4.0-1.162","17","Low_HMMActual","null","","","","Images/BlackBeadChoice.png","null"
"image-keyboard-response","508","622237","0.0-4.0-2.162","17","Low_HMMActual","null","","","","Images/BlackBeadChoiceCorrect.png","null"
"image-keyboard-response","509","622414","0.0-4.0-0.163","17","Low_HMMActual","175.38999998942018","","","","Images/NewTrialBC.png","37"
"image-keyboard-response","510","622830","0.0-4.0-1.163","17","Low_HMMActual","null","","","","Images/BlackBeadChoice.png","null"
"image-keyboard-response","511","623542","0.0-4.0-2.163","17","Low_HMMActual","null","","","","Images/BlackBeadChoiceCorrect.png","null"
"image-keyboard-response","512","623632","0.0-4.0-0.164","17","Low_HMMActual","88.43000000342727","","","","Images/NewTrialBC.png","37"
"image-keyboard-response","513","624049","0.0-4.0-1.164","17","Low_HMMActual","null","","","","Images/BlackBeadChoice.png","null"
"image-keyboard-response","514","624756","0.0-4.0-2.164","17","Low_HMMActual","585.505000082776","","","","Images/BlackBeadChoiceCorrect.png","39"
"image-keyboard-response","515","625731","0.0-4.0-0.165","17","Low_HMMActual","972.4399999249727","","","","Images/NewTrialBC.png","39"
"image-keyboard-response","516","626146","0.0-4.0-1.165","17","Low_HMMActual","null","","","","Images/WhiteBeadChoice.png","null"
"image-keyboard-response","517","626854","0.0-4.0-2.165","17","Low_HMMActual","null","","","","Images/WhiteBeadChoiceWrong.png","null"
"image-keyboard-response","518","626926","0.0-4.0-0.166","17","Low_HMMActual","70.69000019691885","","","","Images/NewTrialBC.png","37"
"image-keyboard-response","519","627328","0.0-4.0-1.166","17","Low_HMMActual","null","","","","Images/BlackBeadChoice.png","null"
"image-keyboard-response","520","628041","0.0-4.0-2.166","17","Low_HMMActual","null","","","","Images/BlackBeadChoiceCorrect.png","null"
"image-keyboard-response","521","628094","0.0-4.0-0.167","17","Low_HMMActual","50.654999911785126","","","","Images/NewTrialBC.png","39"
"image-keyboard-response","522","628496","0.0-4.0-1.167","17","Low_HMMActual","null","","","","Images/WhiteBeadChoice.png","null"
"image-keyboard-response","523","629198","0.0-4.0-2.167","17","Low_HMMActual","null","","","","Images/WhiteBeadChoiceCorrect.png","null"
"image-keyboard-response","524","629354","0.0-4.0-0.168","17","Low_HMMActual","154.2899999767542","","","","Images/NewTrialWC.png","37"
"image-keyboard-response","525","629762","0.0-4.0-1.168","17","Low_HMMActual","null","","","","Images/BlackBeadChoice.png","null"
"image-keyboard-response","526","630477","0.0-4.0-2.168","17","Low_HMMActual","null","","","","Images/BlackBeadChoiceWrong.png","null"
"image-keyboard-response","527","630639","0.0-4.0-0.169","17","Low_HMMActual","159.89000000990927","","","","Images/NewTrialWC.png","37"
"image-keyboard-response","528","631053","0.0-4.0-1.169","17","Low_HMMActual","null","","","","Images/BlackBeadChoice.png","null"
"image-keyboard-response","529","631758","0.0-4.0-2.169","17","Low_HMMActual","null","","","","Images/BlackBeadChoiceCorrect.png","null"
"image-keyboard-response","530","631827","0.0-4.0-0.170","17","Low_HMMActual","67.31999991461635","","","","Images/NewTrialBC.png","37"
"image-keyboard-response","531","632229","0.0-4.0-1.170","17","Low_HMMActual","null","","","","Images/BlackBeadChoice.png","null"
"image-keyboard-response","532","632932","0.0-4.0-2.170","17","Low_HMMActual","null","","","","Images/BlackBeadChoiceCorrect.png","null"
"image-keyboard-response","533","633023","0.0-4.0-0.171","17","Low_HMMActual","90.34499991685152","","","","Images/NewTrialBC.png","37"
"image-keyboard-response","534","633425","0.0-4.0-1.171","17","Low_HMMActual","null","","","","Images/BlackBeadChoice.png","null"
"image-keyboard-response","535","634134","0.0-4.0-2.171","17","Low_HMMActual","678.7699998822063","","","","Images/BlackBeadChoiceCorrect.png","37"
"image-keyboard-response","536","634948","0.0-4.0-0.172","17","Low_HMMActual","811.699999962002","","","","Images/NewTrialBC.png","37"
"image-keyboard-response","537","635362","0.0-4.0-1.172","17","Low_HMMActual","null","","","","Images/BlackBeadChoice.png","null"
"image-keyboard-response","538","636074","0.0-4.0-2.172","17","Low_HMMActual","null","","","","Images/BlackBeadChoiceWrong.png","null"
"image-keyboard-response","539","636193","0.0-4.0-0.173","17","Low_HMMActual","117.80000012367964","","","","Images/NewTrialWC.png","37"
"image-keyboard-response","540","636601","0.0-4.0-1.173","17","Low_HMMActual","null","","","","Images/BlackBeadChoice.png","null"
"image-keyboard-response","541","637303","0.0-4.0-2.173","17","Low_HMMActual","null","","","","Images/BlackBeadChoiceCorrect.png","null"
"image-keyboard-response","542","637338","0.0-4.0-0.174","17","Low_HMMActual","33.28000009059906","","","","Images/NewTrialBC.png","39"
"image-keyboard-response","543","637750","0.0-4.0-1.174","17","Low_HMMActual","null","","","","Images/WhiteBeadChoice.png","null"
"image-keyboard-response","544","638452","0.0-4.0-2.174","17","Low_HMMActual","668.5750000178814","","","","Images/WhiteBeadChoiceWrong.png","39"
"image-keyboard-response","545","639356","0.0-4.0-0.175","17","Low_HMMActual","903.2449999358505","","","","Images/NewTrialBC.png","39"
"image-keyboard-response","546","639770","0.0-4.0-1.175","17","Low_HMMActual","null","","","","Images/WhiteBeadChoice.png","null"
"image-keyboard-response","547","640496","0.0-4.0-2.175","17","Low_HMMActual","636.7949999403208","","","","Images/WhiteBeadChoiceWrong.png","37"
"image-keyboard-response","548","641283","0.0-4.0-0.176","17","Low_HMMActual","785.2249999996275","","","","Images/NewTrialBC.png","37"
"image-keyboard-response","549","641696","0.0-4.0-1.176","17","Low_HMMActual","null","","","","Images/BlackBeadChoice.png","null"
"image-keyboard-response","550","642398","0.0-4.0-2.176","17","Low_HMMActual","null","","","","Images/BlackBeadChoiceCorrect.png","null"
"image-keyboard-response","551","642533","0.0-4.0-0.177","17","Low_HMMActual","132.96000007539988","","","","Images/NewTrialBC.png","37"
"image-keyboard-response","552","642939","0.0-4.0-1.177","17","Low_HMMActual","null","","","","Images/BlackBeadChoice.png","null"
"image-keyboard-response","553","643648","0.0-4.0-2.177","17","Low_HMMActual","null","","","","Images/BlackBeadChoiceCorrect.png","null"
"image-keyboard-response","554","643756","0.0-4.0-0.178","17","Low_HMMActual","106.09999997541308","","","","Images/NewTrialBC.png","37"
"image-keyboard-response","555","644158","0.0-4.0-1.178","17","Low_HMMActual","null","","","","Images/BlackBeadChoice.png","null"
"image-keyboard-response","556","644874","0.0-4.0-2.178","17","Low_HMMActual","null","","","","Images/BlackBeadChoiceCorrect.png","null"
"image-keyboard-response","557","644887","0.0-4.0-0.179","17","Low_HMMActual","10.6500000692904","","","","Images/NewTrialBC.png","37"
"image-keyboard-response","558","645292","0.0-4.0-1.179","17","Low_HMMActual","null","","","","Images/BlackBeadChoice.png","null"
"image-keyboard-response","559","646002","0.0-4.0-2.179","17","Low_HMMActual","615.8150001429021","","","","Images/BlackBeadChoiceCorrect.png","37"
"image-keyboard-response","560","646604","0.0-4.0-0.180","17","Low_HMMActual","600.2199999056756","","","","Images/NewTrialBC.png","37"
"image-keyboard-response","561","647015","0.0-4.0-1.180","17","Low_HMMActual","null","","","","Images/BlackBeadChoice.png","null"
"image-keyboard-response","562","647729","0.0-4.0-2.180","17","Low_HMMActual","681.7550000268966","","","","Images/BlackBeadChoiceCorrect.png","39"
"image-keyboard-response","563","648353","0.0-4.0-0.181","17","Low_HMMActual","620.9599999710917","","","","Images/NewTrialBC.png","39"
"image-keyboard-response","564","648759","0.0-4.0-1.181","17","Low_HMMActual","null","","","","Images/WhiteBeadChoice.png","null"
"image-keyboard-response","565","649471","0.0-4.0-2.181","17","Low_HMMActual","null","","","","Images/WhiteBeadChoiceCorrect.png","null"
"image-keyboard-response","566","649943","0.0-4.0-0.182","17","Low_HMMActual","470.41000006720424","","","","Images/NewTrialWC.png","37"
"image-keyboard-response","567","650359","0.0-4.0-1.182","17","Low_HMMActual","null","","","","Images/BlackBeadChoice.png","null"
"image-keyboard-response","568","651076","0.0-4.0-2.182","17","Low_HMMActual","null","","","","Images/BlackBeadChoiceWrong.png","null"
"image-keyboard-response","569","651373","0.0-4.0-0.183","17","Low_HMMActual","295.5100000835955","","","","Images/NewTrialWC.png","37"
"image-keyboard-response","570","651778","0.0-4.0-1.183","17","Low_HMMActual","null","","","","Images/BlackBeadChoice.png","null"
"image-keyboard-response","571","652480","0.0-4.0-2.183","17","Low_HMMActual","null","","","","Images/BlackBeadChoiceCorrect.png","null"
"image-keyboard-response","572","652779","0.0-4.0-0.184","17","Low_HMMActual","297.0249999780208","","","","Images/NewTrialBC.png","37"
"image-keyboard-response","573","653194","0.0-4.0-1.184","17","Low_HMMActual","null","","","","Images/BlackBeadChoice.png","null"
"image-keyboard-response","574","653902","0.0-4.0-2.184","17","Low_HMMActual","null","","","","Images/BlackBeadChoiceCorrect.png","null"
"image-keyboard-response","575","653995","0.0-4.0-0.185","17","Low_HMMActual","91.1899998318404","","","","Images/NewTrialBC.png","37"
"image-keyboard-response","576","654405","0.0-4.0-1.185","17","Low_HMMActual","null","","","","Images/BlackBeadChoice.png","null"
"image-keyboard-response","577","655120","0.0-4.0-2.185","17","Low_HMMActual","null","","","","Images/BlackBeadChoiceWrong.png","null"
"image-keyboard-response","578","655135","0.0-4.0-0.186","17","Low_HMMActual","12.799999909475446","","","","Images/NewTrialWC.png","37"
"image-keyboard-response","579","655541","0.0-4.0-1.186","17","Low_HMMActual","null","","","","Images/BlackBeadChoice.png","null"
"image-keyboard-response","580","656244","0.0-4.0-2.186","17","Low_HMMActual","642.4549999646842","","","","Images/BlackBeadChoiceWrong.png","37"
"image-keyboard-response","581","656875","0.0-4.0-0.187","17","Low_HMMActual","629.3800000566989","","","","Images/NewTrialWC.png","37"
"image-keyboard-response","582","657277","0.0-4.0-1.187","17","Low_HMMActual","null","","","","Images/BlackBeadChoice.png","null"
"image-keyboard-response","583","657980","0.0-4.0-2.187","17","Low_HMMActual","null","","","","Images/BlackBeadChoiceCorrect.png","null"
"image-keyboard-response","584","657999","0.0-4.0-0.188","17","Low_HMMActual","17.914999974891543","","","","Images/NewTrialBC.png","37"
"image-keyboard-response","585","658401","0.0-4.0-1.188","17","Low_HMMActual","null","","","","Images/BlackBeadChoice.png","null"
"image-keyboard-response","586","659115","0.0-4.0-2.188","17","Low_HMMActual","null","","","","Images/BlackBeadChoiceWrong.png","null"
"image-keyboard-response","587","659350","0.0-4.0-0.189","17","Low_HMMActual","234.03499997220933","","","","Images/NewTrialWC.png","37"
"image-keyboard-response","588","659765","0.0-4.0-1.189","17","Low_HMMActual","null","","","","Images/BlackBeadChoice.png","null"
"image-keyboard-response","589","660477","0.0-4.0-2.189","17","Low_HMMActual","null","","","","Images/BlackBeadChoiceWrong.png","null"
"image-keyboard-response","590","660725","0.0-4.0-0.190","17","Low_HMMActual","246.47999997250736","","","","Images/NewTrialWC.png","37"
"image-keyboard-response","591","661133","0.0-4.0-1.190","17","Low_HMMActual","null","","","","Images/BlackBeadChoice.png","null"
"image-keyboard-response","592","661835","0.0-4.0-2.190","17","Low_HMMActual","null","","","","Images/BlackBeadChoiceWrong.png","null"
"image-keyboard-response","593","661940","0.0-4.0-0.191","17","Low_HMMActual","103.51000004447997","","","","Images/NewTrialWC.png","39"
"image-keyboard-response","594","662347","0.0-4.0-1.191","17","Low_HMMActual","null","","","","Images/WhiteBeadChoice.png","null"
"image-keyboard-response","595","663060","0.0-4.0-2.191","17","Low_HMMActual","null","","","","Images/WhiteBeadChoiceCorrect.png","null"
"image-keyboard-response","596","663707","0.0-4.0-0.192","17","Low_HMMActual","645.1250000391155","","","","Images/NewTrialWC.png","39"
"image-keyboard-response","597","664114","0.0-4.0-1.192","17","Low_HMMActual","null","","","","Images/WhiteBeadChoice.png","null"
"image-keyboard-response","598","664817","0.0-4.0-2.192","17","Low_HMMActual","null","","","","Images/WhiteBeadChoiceCorrect.png","null"
"image-keyboard-response","599","665305","0.0-4.0-0.193","17","Low_HMMActual","486.1699999310076","","","","Images/NewTrialWC.png","39"
"image-keyboard-response","600","665712","0.0-4.0-1.193","17","Low_HMMActual","null","","","","Images/WhiteBeadChoice.png","null"
"image-keyboard-response","601","666414","0.0-4.0-2.193","17","Low_HMMActual","null","","","","Images/WhiteBeadChoiceCorrect.png","null"
"image-keyboard-response","602","666880","0.0-4.0-0.194","17","Low_HMMActual","464.81999987736344","","","","Images/NewTrialWC.png","39"
"image-keyboard-response","603","667282","0.0-4.0-1.194","17","Low_HMMActual","null","","","","Images/WhiteBeadChoice.png","null"
"image-keyboard-response","604","667984","0.0-4.0-2.194","17","Low_HMMActual","null","","","","Images/WhiteBeadChoiceCorrect.png","null"
"image-keyboard-response","605","668396","0.0-4.0-0.195","17","Low_HMMActual","410.0600001402199","","","","Images/NewTrialWC.png","37"
"image-keyboard-response","606","668808","0.0-4.0-1.195","17","Low_HMMActual","null","","","","Images/BlackBeadChoice.png","null"
"image-keyboard-response","607","669513","0.0-4.0-2.195","17","Low_HMMActual","null","","","","Images/BlackBeadChoiceWrong.png","null"
"image-keyboard-response","608","670027","0.0-4.0-0.196","17","Low_HMMActual","511.9900000281632","","","","Images/NewTrialWC.png","37"
"image-keyboard-response","609","670440","0.0-4.0-1.196","17","Low_HMMActual","null","","","","Images/BlackBeadChoice.png","null"
"image-keyboard-response","610","671145","0.0-4.0-2.196","17","Low_HMMActual","null","","","","Images/BlackBeadChoiceWrong.png","null"
"image-keyboard-response","611","671568","0.0-4.0-0.197","17","Low_HMMActual","421.5750000439584","","","","Images/NewTrialWC.png","39"
"image-keyboard-response","612","671980","0.0-4.0-1.197","17","Low_HMMActual","null","","","","Images/WhiteBeadChoice.png","null"
"image-keyboard-response","613","672685","0.0-4.0-2.197","17","Low_HMMActual","null","","","","Images/WhiteBeadChoiceWrong.png","null"
"image-keyboard-response","614","673206","0.0-4.0-0.198","17","Low_HMMActual","519.0500000026077","","","","Images/NewTrialBC.png","39"
"image-keyboard-response","615","673608","0.0-4.0-1.198","17","Low_HMMActual","null","","","","Images/WhiteBeadChoice.png","null"
"image-keyboard-response","616","674314","0.0-4.0-2.198","17","Low_HMMActual","null","","","","Images/WhiteBeadChoiceCorrect.png","null"
"image-keyboard-response","617","674785","0.0-4.0-0.199","17","Low_HMMActual","469.36500002630055","","","","Images/NewTrialWC.png","39"
"image-keyboard-response","618","675191","0.0-4.0-1.199","17","Low_HMMActual","null","","","","Images/WhiteBeadChoice.png","null"
"image-keyboard-response","619","675902","0.0-4.0-2.199","17","Low_HMMActual","null","","","","Images/WhiteBeadChoiceCorrect.png","null"
"image-keyboard-response","620","676041","0.0-4.0-0.200","17","Low_HMMActual","137.8049999475479","","","","Images/NewTrialWC.png","39"
"image-keyboard-response","621","676450","0.0-4.0-1.200","17","Low_HMMActual","null","","","","Images/WhiteBeadChoice.png","null"
"image-keyboard-response","622","677165","0.0-4.0-2.200","17","Low_HMMActual","null","","","","Images/WhiteBeadChoiceWrong.png","null"
"image-keyboard-response","623","677420","0.0-4.0-0.201","17","Low_HMMActual","252.63500004075468","","","","Images/NewTrialBC.png","39"
"image-keyboard-response","624","677826","0.0-4.0-1.201","17","Low_HMMActual","null","","","","Images/WhiteBeadChoice.png","null"
"image-keyboard-response","625","678529","0.0-4.0-2.201","17","Low_HMMActual","null","","","","Images/WhiteBeadChoiceCorrect.png","null"
"image-keyboard-response","626","678831","0.0-4.0-0.202","17","Low_HMMActual","300.99000013433397","","","","Images/NewTrialWC.png","39"
"image-keyboard-response","627","679242","0.0-4.0-1.202","17","Low_HMMActual","null","","","","Images/WhiteBeadChoice.png","null"
"image-keyboard-response","628","679944","0.0-4.0-2.202","17","Low_HMMActual","null","","","","Images/WhiteBeadChoiceCorrect.png","null"
"image-keyboard-response","629","680255","0.0-4.0-0.203","17","Low_HMMActual","309.3900000676513","","","","Images/NewTrialWC.png","39"
"image-keyboard-response","630","680658","0.0-4.0-1.203","17","Low_HMMActual","null","","","","Images/WhiteBeadChoice.png","null"
"image-keyboard-response","631","681365","0.0-4.0-2.203","17","Low_HMMActual","null","","","","Images/WhiteBeadChoiceCorrect.png","null"
"image-keyboard-response","632","681710","0.0-4.0-0.204","17","Low_HMMActual","343.59499998390675","","","","Images/NewTrialWC.png","39"
"image-keyboard-response","633","682115","0.0-4.0-1.204","17","Low_HMMActual","null","","","","Images/WhiteBeadChoice.png","null"
"image-keyboard-response","634","682817","0.0-4.0-2.204","17","Low_HMMActual","null","","","","Images/WhiteBeadChoiceCorrect.png","null"
"image-keyboard-response","635","683147","0.0-4.0-0.205","17","Low_HMMActual","328.38000007905066","","","","Images/NewTrialWC.png","37"
"image-keyboard-response","636","683549","0.0-4.0-1.205","17","Low_HMMActual","null","","","","Images/BlackBeadChoice.png","null"
"image-keyboard-response","637","684256","0.0-4.0-2.205","17","Low_HMMActual","null","","","","Images/BlackBeadChoiceWrong.png","null"
"image-keyboard-response","638","684432","0.0-4.0-0.206","17","Low_HMMActual","175.1149999909103","","","","Images/NewTrialWC.png","39"
"image-keyboard-response","639","684838","0.0-4.0-1.206","17","Low_HMMActual","155.67000000737607","","","","Images/WhiteBeadChoice.png","39"
"image-keyboard-response","640","685540","0.0-4.0-2.206","17","Low_HMMActual","null","","","","Images/WhiteBeadChoiceWrong.png","null"
"image-keyboard-response","641","686027","0.0-4.0-0.207","17","Low_HMMActual","485.710000153631","","","","Images/NewTrialBC.png","39"
"image-keyboard-response","642","686443","0.0-4.0-1.207","17","Low_HMMActual","null","","","","Images/WhiteBeadChoice.png","null"
"image-keyboard-response","643","687144","0.0-4.0-2.207","17","Low_HMMActual","null","","","","Images/WhiteBeadChoiceCorrect.png","null"
"image-keyboard-response","644","687409","0.0-4.0-0.208","17","Low_HMMActual","262.8200000617653","","","","Images/NewTrialWC.png","39"
"image-keyboard-response","645","687818","0.0-4.0-1.208","17","Low_HMMActual","null","","","","Images/WhiteBeadChoice.png","null"
"image-keyboard-response","646","688520","0.0-4.0-2.208","17","Low_HMMActual","null","","","","Images/WhiteBeadChoiceCorrect.png","null"
"image-keyboard-response","647","688566","0.0-4.0-0.209","17","Low_HMMActual","44.674999779090285","","","","Images/NewTrialWC.png","39"
"image-keyboard-response","648","688975","0.0-4.0-1.209","17","Low_HMMActual","null","","","","Images/WhiteBeadChoice.png","null"
"image-keyboard-response","649","689684","0.0-4.0-2.209","17","Low_HMMActual","676.6600001137704","","","","Images/WhiteBeadChoiceCorrect.png","39"
"image-keyboard-response","650","690352","0.0-4.0-0.210","17","Low_HMMActual","666.9399999082088","","","","Images/NewTrialWC.png","39"
"image-keyboard-response","651","690764","0.0-4.0-1.210","17","Low_HMMActual","null","","","","Images/WhiteBeadChoice.png","null"
"image-keyboard-response","652","691479","0.0-4.0-2.210","17","Low_HMMActual","null","","","","Images/WhiteBeadChoiceCorrect.png","null"
"image-keyboard-response","653","691999","0.0-4.0-0.211","17","Low_HMMActual","518.6150001827627","","","","Images/NewTrialWC.png","39"
"image-keyboard-response","654","692401","0.0-4.0-1.211","17","Low_HMMActual","null","","","","Images/WhiteBeadChoice.png","null"
"image-keyboard-response","655","693104","0.0-4.0-2.211","17","Low_HMMActual","null","","","","Images/WhiteBeadChoiceCorrect.png","null"
"image-keyboard-response","656","693466","0.0-4.0-0.212","17","Low_HMMActual","360.1850001141429","","","","Images/NewTrialWC.png","37"
"image-keyboard-response","657","693869","0.0-4.0-1.212","17","Low_HMMActual","null","","","","Images/BlackBeadChoice.png","null"
"image-keyboard-response","658","694577","0.0-4.0-2.212","17","Low_HMMActual","null","","","","Images/BlackBeadChoiceWrong.png","null"
"image-keyboard-response","659","695099","0.0-4.0-0.213","17","Low_HMMActual","519.984999904409","","","","Images/NewTrialWC.png","39"
"image-keyboard-response","660","695508","0.0-4.0-1.213","17","Low_HMMActual","null","","","","Images/WhiteBeadChoice.png","null"
"image-keyboard-response","661","696217","0.0-4.0-2.213","17","Low_HMMActual","null","","","","Images/WhiteBeadChoiceWrong.png","null"
"image-keyboard-response","662","696597","0.0-4.0-0.214","17","Low_HMMActual","378.16999992355704","","","","Images/NewTrialBC.png","39"
"image-keyboard-response","663","696998","0.0-4.0-1.214","17","Low_HMMActual","null","","","","Images/WhiteBeadChoice.png","null"
"image-keyboard-response","664","697700","0.0-4.0-2.214","17","Low_HMMActual","null","","","","Images/WhiteBeadChoiceCorrect.png","null"
"image-keyboard-response","665","698060","0.0-4.0-0.215","17","Low_HMMActual","357.9949999693781","","","","Images/NewTrialWC.png","39"
"image-keyboard-response","666","698462","0.0-4.0-1.215","17","Low_HMMActual","null","","","","Images/WhiteBeadChoice.png","null"
"image-keyboard-response","667","699175","0.0-4.0-2.215","17","Low_HMMActual","null","","","","Images/WhiteBeadChoiceCorrect.png","null"
"image-keyboard-response","668","699554","0.0-4.0-0.216","17","Low_HMMActual","377.97500006854534","","","","Images/NewTrialWC.png","39"
"image-keyboard-response","669","699967","0.0-4.0-1.216","17","Low_HMMActual","null","","","","Images/WhiteBeadChoice.png","null"
"image-keyboard-response","670","700681","0.0-4.0-2.216","17","Low_HMMActual","null","","","","Images/WhiteBeadChoiceCorrect.png","null"
"image-keyboard-response","671","701221","0.0-4.0-0.217","17","Low_HMMActual","539.2650000285357","","","","Images/NewTrialWC.png","39"
"image-keyboard-response","672","701629","0.0-4.0-1.217","17","Low_HMMActual","null","","","","Images/WhiteBeadChoice.png","null"
"image-keyboard-response","673","702340","0.0-4.0-2.217","17","Low_HMMActual","null","","","","Images/WhiteBeadChoiceCorrect.png","null"
"image-keyboard-response","674","702797","0.0-4.0-0.218","17","Low_HMMActual","455.6299999821931","","","","Images/NewTrialWC.png","39"
"image-keyboard-response","675","703210","0.0-4.0-1.218","17","Low_HMMActual","null","","","","Images/WhiteBeadChoice.png","null"
"image-keyboard-response","676","703912","0.0-4.0-2.218","17","Low_HMMActual","null","","","","Images/WhiteBeadChoiceCorrect.png","null"
"image-keyboard-response","677","704153","0.0-4.0-0.219","17","Low_HMMActual","239.2249999102205","","","","Images/NewTrialWC.png","39"
"image-keyboard-response","678","704557","0.0-4.0-1.219","17","Low_HMMActual","null","","","","Images/WhiteBeadChoice.png","null"
"image-keyboard-response","679","705261","0.0-4.0-2.219","17","Low_HMMActual","null","","","","Images/WhiteBeadChoiceCorrect.png","null"
"image-keyboard-response","680","705347","0.0-4.0-0.220","17","Low_HMMActual","84.25499987788498","","","","Images/NewTrialWC.png","39"
"image-keyboard-response","681","705759","0.0-4.0-1.220","17","Low_HMMActual","null","","","","Images/WhiteBeadChoice.png","null"
"image-keyboard-response","682","706472","0.0-4.0-2.220","17","Low_HMMActual","null","","","","Images/WhiteBeadChoiceWrong.png","null"
"image-keyboard-response","683","707153","0.0-4.0-0.221","17","Low_HMMActual","679.6800000593066","","","","Images/NewTrialBC.png","37"
"image-keyboard-response","684","707555","0.0-4.0-1.221","17","Low_HMMActual","null","","","","Images/BlackBeadChoice.png","null"
"image-keyboard-response","685","708267","0.0-4.0-2.221","17","Low_HMMActual","null","","","","Images/BlackBeadChoiceWrong.png","null"
"image-keyboard-response","686","708332","0.0-4.0-0.222","17","Low_HMMActual","63.0449999589473","","","","Images/NewTrialWC.png","39"
"image-keyboard-response","687","708733","0.0-4.0-1.222","17","Low_HMMActual","null","","","","Images/WhiteBeadChoice.png","null"
"image-keyboard-response","688","709441","0.0-4.0-2.222","17","Low_HMMActual","null","","","","Images/WhiteBeadChoiceCorrect.png","null"
"image-keyboard-response","689","709511","0.0-4.0-0.223","17","Low_HMMActual","68.75500013120472","","","","Images/NewTrialWC.png","39"
"image-keyboard-response","690","709922","0.0-4.0-1.223","17","Low_HMMActual","null","","","","Images/WhiteBeadChoice.png","null"
"image-keyboard-response","691","710636","0.0-4.0-2.223","17","Low_HMMActual","null","","","","Images/WhiteBeadChoiceCorrect.png","null"
"image-keyboard-response","692","710639","0.0-4.0-0.224","17","Low_HMMActual","0.7000002078711987","","","","Images/NewTrialWC.png","39"
"image-keyboard-response","693","711040","0.0-4.0-1.224","17","Low_HMMActual","null","","","","Images/WhiteBeadChoice.png","null"
"image-keyboard-response","694","711746","0.0-4.0-2.224","17","Low_HMMActual","657.890000147745","","","","Images/WhiteBeadChoiceWrong.png","39"
"image-keyboard-response","695","712464","0.0-4.0-0.225","17","Low_HMMActual","715.824999846518","","","","Images/NewTrialBC.png","39"
"image-keyboard-response","696","712869","0.0-4.0-1.225","17","Low_HMMActual","null","","","","Images/WhiteBeadChoice.png","null"
"image-keyboard-response","697","713570","0.0-4.0-2.225","17","Low_HMMActual","660.9250002074987","","","","Images/WhiteBeadChoiceCorrect.png","39"
"image-keyboard-response","698","714227","0.0-4.0-0.226","17","Low_HMMActual","655.060000019148","","","","Images/NewTrialWC.png","39"
"image-keyboard-response","699","714628","0.0-4.0-1.226","17","Low_HMMActual","null","","","","Images/WhiteBeadChoice.png","null"
"image-keyboard-response","700","715343","0.0-4.0-2.226","17","Low_HMMActual","null","","","","Images/WhiteBeadChoiceWrong.png","null"
"image-keyboard-response","701","715479","0.0-4.0-0.227","17","Low_HMMActual","135.36000018939376","","","","Images/NewTrialBC.png","39"
"image-keyboard-response","702","715896","0.0-4.0-1.227","17","Low_HMMActual","null","","","","Images/WhiteBeadChoice.png","null"
"image-keyboard-response","703","716602","0.0-4.0-2.227","17","Low_HMMActual","null","","","","Images/WhiteBeadChoiceWrong.png","null"
"image-keyboard-response","704","716691","0.0-4.0-0.228","17","Low_HMMActual","87.89000008255243","","","","Images/NewTrialBC.png","37"
"image-keyboard-response","705","717096","0.0-4.0-1.228","17","Low_HMMActual","null","","","","Images/BlackBeadChoice.png","null"
"image-keyboard-response","706","717804","0.0-4.0-2.228","17","Low_HMMActual","null","","","","Images/BlackBeadChoiceCorrect.png","null"
"image-keyboard-response","707","717891","0.0-4.0-0.229","17","Low_HMMActual","85.39999998174608","","","","Images/NewTrialBC.png","37"
"image-keyboard-response","708","718306","0.0-4.0-1.229","17","Low_HMMActual","null","","","","Images/BlackBeadChoice.png","null"
"image-keyboard-response","709","719014","0.0-4.0-2.229","17","Low_HMMActual","null","","","","Images/BlackBeadChoiceWrong.png","null"
"image-keyboard-response","710","719185","0.0-4.0-0.230","17","Low_HMMActual","169.34000002220273","","","","Images/NewTrialWC.png","37"
"image-keyboard-response","711","719588","0.0-4.0-1.230","17","Low_HMMActual","null","","","","Images/BlackBeadChoice.png","null"
"image-keyboard-response","712","720304","0.0-4.0-2.230","17","Low_HMMActual","699.0650000516325","","","","Images/BlackBeadChoiceWrong.png","37"
"image-keyboard-response","713","720874","0.0-4.0-0.231","17","Low_HMMActual","569.2300000227988","","","","Images/NewTrialWC.png","37"
"image-keyboard-response","714","721278","0.0-4.0-1.231","17","Low_HMMActual","null","","","","Images/BlackBeadChoice.png","null"
"image-keyboard-response","715","721985","0.0-4.0-2.231","17","Low_HMMActual","628.1649998854846","","","","Images/BlackBeadChoiceWrong.png","37"
"image-keyboard-response","716","722437","0.0-4.0-0.232","17","Low_HMMActual","450.4350000061095","","","","Images/NewTrialWC.png","37"
"image-keyboard-response","717","722846","0.0-4.0-1.232","17","Low_HMMActual","null","","","","Images/BlackBeadChoice.png","null"
"image-keyboard-response","718","723547","0.0-4.0-2.232","17","Low_HMMActual","694.2699998617172","","","","Images/BlackBeadChoiceWrong.png","39"
"image-keyboard-response","719","724406","0.0-4.0-0.233","17","Low_HMMActual","857.2949999943376","","","","Images/NewTrialWC.png","39"
