"trial_type","trial_index","time_elapsed","internal_node_id","Script_Picker","Block_Type","rt","url","responses","question_order","stimulus","key_press"
"pavlovia","0","3","0.0-0.0","4","Low_HMMActual","","","","","",""
"external-html","1","43859","0.0-1.0-0.0","4","Low_HMMActual","43812.06500000553","consent.html","","","",""
"survey-multi-choice","2","53997","0.0-1.0-1.0","4","Low_HMMActual","10136.415000015404","","{""Q0"":""Male"",""Q1"":""White""}","[0,1]","",""
"survey-text","3","57278","0.0-1.0-2.0","4","Low_HMMActual","3278.814999968745","","{""Q0"":""36""}","","",""
"survey-text","4","62697","0.0-1.0-3.0","4","Low_HMMActual","5316.005000029691","","{""Q0"":""5eb2fb46015ad10ca062f378""}","","",""
"html-keyboard-response","5","106713","0.0-2.0-0.0","4","Low_HMMActual","43909.49999995064","","","","<div class=""container"" style=""height:800px;width:800px;display:flex;flex-direction:column;justify-content:center;align-items:center;text-align:center;font-weight:normal;font-family:Arial;font-size:20px""><p>In this task you will see black or white beads being pulled from jars. <br><br>On each trial, a bead will be pulled from one of two jars. Once you see this bead, your goal is to predict the color of NEXT bead that will be pulled. <br> <br>Every time you correctly guess the color of the NEXT bead, you will get a point. <br><br>Press the SPACEBAR to continue.</p><div>","32"
"html-keyboard-response","6","123062","0.0-2.0-1.0","4","Low_HMMActual","16348.200000007637","","","","<div class=""container"" style=""height:800px;width:800px;display:flex;flex-direction:column;justify-content:center;align-items:center;text-align:center;font-weight:normal;font-family:Arial;font-size:20px""><p>Jars are filled with 80% white or black beads and 20% of the opposite color mixed in.<br><br>Press the SPACEBAR to continue. </p><div>","32"
"image-keyboard-response","7","131679","0.0-2.0-2.0","4","Low_HMMActual","8613.494999997783","","","","resources/WhiteJar_HMM.png","32"
"image-keyboard-response","8","136086","0.0-2.0-3.0","4","Low_HMMActual","4405.780000030063","","","","resources/BlackJar_HMM.png","32"
"html-keyboard-response","9","142951","0.0-2.0-4.0","4","Low_HMMActual","6863.390000013169","","","","<div class=""container"" style=""height:800px;width:800px;display:flex;flex-direction:column;justify-content:center;align-items:center;text-align:center;font-weight:normal;font-family:Arial;font-size:20px""><p>There will be two blocks of trials. Each block will contain 500 trials. <br><br>Here are examples of what you will see on each trial.<br><br>Press the SPACEBAR to continue. </p><div>","32"
"image-keyboard-response","10","156406","0.0-2.0-5.0","4","Low_HMMActual","13453.475000045728","","","","Images/NoChoice.png","32"
"html-keyboard-response","11","226279","0.0-2.0-6.0","4","Low_HMMActual","69870.51499995869","","","","<div class=""container"" style=""height:800px;width:800px;display:flex;flex-direction:column;justify-content:center;align-items:center;text-align:center;font-weight:normal;font-family:Arial;font-size:20px""><p> The jar the beads are pulled from is NOT choosen at random on each trial.<br><br>After each prediction, there will be a chance that the jars will switch, and that the next bead will be pulled from the opposite jar as the previous trial.<br><br>In each block, the chance that a jar will switch will either be LOW (the jars will not switch very often), or HIGH (the jars will switch almost all the time).<br><br>At the start of each block, you will be told the probability that the jars will switch on each trial. This switch probability will stay constant throughout the block.<br><br>We will now show you some examples of beads being drawn from jars. The bead will appear in the middle of the screen, and the jar the bead was pulled from will be indicated with a black rectangle.<br><br>Press the SPACEBAR to continue. </p><div>","32"
"image-keyboard-response","12","233974","0.0-2.0-7.0","4","Low_HMMActual","7693.6749999877065","","","","Images/TutorialWhiteJarDrawHMMC.png","32"
"image-keyboard-response","13","239422","0.0-2.0-8.0","4","Low_HMMActual","5446.379999979399","","","","Images/TutorialBlackJarDrawHMMC.png","32"
"image-keyboard-response","14","241782","0.0-2.0-9.0","4","Low_HMMActual","2358.1750000012107","","","","Images/TutorialBlackJarDrawHMMI.png","32"
"html-keyboard-response","15","273719","0.0-2.0-10.0","4","Low_HMMActual","31935.289999993984","","","","<div class=""container"" style=""height:800px;width:800px;display:flex;flex-direction:column;justify-content:center;align-items:center;text-align:center;font-weight:normal;font-family:Arial;font-size:20px""><p> As you observed, a white bead was pulled from a 80% white jar, the jars switched and a black bead was pulled from the 80% black jar, but then a low-probability white bead was pulled from the 80% black jar. <br><br>This means that the color of the bead will not always match to the color of the jar it was pulled from.<br><br>Press SPACEBAR to conitnue.</p><div>","32"
"html-keyboard-response","16","276318","0.0-2.0-11.0","4","Low_HMMActual","2598.485000024084","","","","<div class=""container"" style=""height:800px;width:800px;display:flex;flex-direction:column;justify-content:center;align-items:center;text-align:center;font-weight:normal;font-family:Arial;font-size:20px""><p> You will now be given a 2 question quiz to make sure you understand the task. </p><div>","32"
"image-keyboard-response","17","285255","0.0-2.0-12.0","4","Low_HMMActual","8934.149999986403","","","","Images/TutorialQuestion1.png","39"
"image-keyboard-response","18","293694","0.0-2.0-13.0","4","Low_HMMActual","6489.285000017844","","","","Images/TutorialQuestion2.png","38"
"html-keyboard-response","19","310360","0.0-3.0","4","Low_HMMActual","15325.605000020005","","","","<div class=""container"" style=""height:800px;width:800px;display:flex;flex-direction:column;justify-content:center;align-items:center;text-align:center;font-weight:normal;font-family:Arial;font-size:20px""><p>Loading episode&hellip;</p><div>","32"
"image-keyboard-response","20","319342","0.0-4.0-0.0","4","Low_HMMActual","8979.859999963082","","","","Images/NoChoice.png","37"
"image-keyboard-response","21","319748","0.0-4.0-1.0","4","Low_HMMActual","null","","","","Images/BlackBeadChoice.png","null"
"image-keyboard-response","22","320450","0.0-4.0-2.0","4","Low_HMMActual","null","","","","Images/BlackBeadChoiceCorrect.png","null"
"image-keyboard-response","23","323983","0.0-4.0-0.1","4","Low_HMMActual","3530.094999994617","","","","Images/NewTrialBC.png","37"
"image-keyboard-response","24","324386","0.0-4.0-1.1","4","Low_HMMActual","null","","","","Images/BlackBeadChoice.png","null"
"image-keyboard-response","25","325089","0.0-4.0-2.1","4","Low_HMMActual","null","","","","Images/BlackBeadChoiceCorrect.png","null"
"image-keyboard-response","26","326094","0.0-4.0-0.2","4","Low_HMMActual","1003.4049999667332","","","","Images/NewTrialBC.png","37"
"image-keyboard-response","27","326496","0.0-4.0-1.2","4","Low_HMMActual","null","","","","Images/BlackBeadChoice.png","null"
"image-keyboard-response","28","327199","0.0-4.0-2.2","4","Low_HMMActual","null","","","","Images/BlackBeadChoiceCorrect.png","null"
"image-keyboard-response","29","328039","0.0-4.0-0.3","4","Low_HMMActual","837.4149999581277","","","","Images/NewTrialBC.png","37"
"image-keyboard-response","30","328441","0.0-4.0-1.3","4","Low_HMMActual","null","","","","Images/BlackBeadChoice.png","null"
"image-keyboard-response","31","329144","0.0-4.0-2.3","4","Low_HMMActual","null","","","","Images/BlackBeadChoiceCorrect.png","null"
"image-keyboard-response","32","330623","0.0-4.0-0.4","4","Low_HMMActual","1476.250000006985","","","","Images/NewTrialBC.png","37"
"image-keyboard-response","33","331025","0.0-4.0-1.4","4","Low_HMMActual","null","","","","Images/BlackBeadChoice.png","null"
"image-keyboard-response","34","331728","0.0-4.0-2.4","4","Low_HMMActual","null","","","","Images/BlackBeadChoiceCorrect.png","null"
"image-keyboard-response","35","333086","0.0-4.0-0.5","4","Low_HMMActual","1356.0399999842048","","","","Images/NewTrialBC.png","37"
"image-keyboard-response","36","333490","0.0-4.0-1.5","4","Low_HMMActual","null","","","","Images/BlackBeadChoice.png","null"
"image-keyboard-response","37","334193","0.0-4.0-2.5","4","Low_HMMActual","null","","","","Images/BlackBeadChoiceCorrect.png","null"
"image-keyboard-response","38","335303","0.0-4.0-0.6","4","Low_HMMActual","1108.1649999832734","","","","Images/NewTrialBC.png","37"
"image-keyboard-response","39","335705","0.0-4.0-1.6","4","Low_HMMActual","null","","","","Images/BlackBeadChoice.png","null"
"image-keyboard-response","40","336408","0.0-4.0-2.6","4","Low_HMMActual","null","","","","Images/BlackBeadChoiceCorrect.png","null"
"image-keyboard-response","41","341166","0.0-4.0-0.7","4","Low_HMMActual","4756.764999998268","","","","Images/NewTrialBC.png","39"
"image-keyboard-response","42","341569","0.0-4.0-1.7","4","Low_HMMActual","null","","","","Images/WhiteBeadChoice.png","null"
"image-keyboard-response","43","342272","0.0-4.0-2.7","4","Low_HMMActual","null","","","","Images/WhiteBeadChoiceWrong.png","null"
"image-keyboard-response","44","343678","0.0-4.0-0.8","4","Low_HMMActual","1404.225000005681","","","","Images/NewTrialBC.png","37"
"image-keyboard-response","45","344080","0.0-4.0-1.8","4","Low_HMMActual","null","","","","Images/BlackBeadChoice.png","null"
"image-keyboard-response","46","344783","0.0-4.0-2.8","4","Low_HMMActual","null","","","","Images/BlackBeadChoiceCorrect.png","null"
"image-keyboard-response","47","345495","0.0-4.0-0.9","4","Low_HMMActual","709.4299999880604","","","","Images/NewTrialBC.png","37"
"image-keyboard-response","48","345897","0.0-4.0-1.9","4","Low_HMMActual","null","","","","Images/BlackBeadChoice.png","null"
"image-keyboard-response","49","346600","0.0-4.0-2.9","4","Low_HMMActual","null","","","","Images/BlackBeadChoiceCorrect.png","null"
"image-keyboard-response","50","347494","0.0-4.0-0.10","4","Low_HMMActual","892.6900000078604","","","","Images/NewTrialBC.png","37"
"image-keyboard-response","51","347899","0.0-4.0-1.10","4","Low_HMMActual","null","","","","Images/BlackBeadChoice.png","null"
"image-keyboard-response","52","348602","0.0-4.0-2.10","4","Low_HMMActual","null","","","","Images/BlackBeadChoiceCorrect.png","null"
"image-keyboard-response","53","349894","0.0-4.0-0.11","4","Low_HMMActual","1289.9150000303052","","","","Images/NewTrialBC.png","37"
"image-keyboard-response","54","350298","0.0-4.0-1.11","4","Low_HMMActual","null","","","","Images/BlackBeadChoice.png","null"
"image-keyboard-response","55","351000","0.0-4.0-2.11","4","Low_HMMActual","null","","","","Images/BlackBeadChoiceWrong.png","null"
"image-keyboard-response","56","353702","0.0-4.0-0.12","4","Low_HMMActual","2700.7599999778904","","","","Images/NewTrialWC.png","39"
"image-keyboard-response","57","354105","0.0-4.0-1.12","4","Low_HMMActual","null","","","","Images/WhiteBeadChoice.png","null"
"image-keyboard-response","58","354808","0.0-4.0-2.12","4","Low_HMMActual","null","","","","Images/WhiteBeadChoiceWrong.png","null"
"image-keyboard-response","59","361390","0.0-4.0-0.13","4","Low_HMMActual","6580.725000007078","","","","Images/NewTrialBC.png","37"
"image-keyboard-response","60","361792","0.0-4.0-1.13","4","Low_HMMActual","null","","","","Images/BlackBeadChoice.png","null"
"image-keyboard-response","61","362495","0.0-4.0-2.13","4","Low_HMMActual","null","","","","Images/BlackBeadChoiceWrong.png","null"
"image-keyboard-response","62","363982","0.0-4.0-0.14","4","Low_HMMActual","1485.4200000409037","","","","Images/NewTrialWC.png","39"
"image-keyboard-response","63","364386","0.0-4.0-1.14","4","Low_HMMActual","null","","","","Images/WhiteBeadChoice.png","null"
"image-keyboard-response","64","365087","0.0-4.0-2.14","4","Low_HMMActual","null","","","","Images/WhiteBeadChoiceCorrect.png","null"
"image-keyboard-response","65","367062","0.0-4.0-0.15","4","Low_HMMActual","1973.3199999900535","","","","Images/NewTrialWC.png","37"
"image-keyboard-response","66","367466","0.0-4.0-1.15","4","Low_HMMActual","null","","","","Images/BlackBeadChoice.png","null"
"image-keyboard-response","67","368169","0.0-4.0-2.15","4","Low_HMMActual","null","","","","Images/BlackBeadChoiceWrong.png","null"
"image-keyboard-response","68","368710","0.0-4.0-0.16","4","Low_HMMActual","539.4949999754317","","","","Images/NewTrialWC.png","37"
"image-keyboard-response","69","369116","0.0-4.0-1.16","4","Low_HMMActual","null","","","","Images/BlackBeadChoice.png","null"
"image-keyboard-response","70","369819","0.0-4.0-2.16","4","Low_HMMActual","null","","","","Images/BlackBeadChoiceWrong.png","null"
"image-keyboard-response","71","370182","0.0-4.0-0.17","4","Low_HMMActual","361.17000004742295","","","","Images/NewTrialWC.png","39"
"image-keyboard-response","72","370584","0.0-4.0-1.17","4","Low_HMMActual","null","","","","Images/WhiteBeadChoice.png","null"
"image-keyboard-response","73","371288","0.0-4.0-2.17","4","Low_HMMActual","null","","","","Images/WhiteBeadChoiceCorrect.png","null"
"image-keyboard-response","74","371671","0.0-4.0-0.18","4","Low_HMMActual","381.40500005101785","","","","Images/NewTrialWC.png","39"
"image-keyboard-response","75","372073","0.0-4.0-1.18","4","Low_HMMActual","null","","","","Images/WhiteBeadChoice.png","null"
"image-keyboard-response","76","372777","0.0-4.0-2.18","4","Low_HMMActual","null","","","","Images/WhiteBeadChoiceCorrect.png","null"
"image-keyboard-response","77","373334","0.0-4.0-0.19","4","Low_HMMActual","556.0549999936484","","","","Images/NewTrialWC.png","39"
"image-keyboard-response","78","373738","0.0-4.0-1.19","4","Low_HMMActual","null","","","","Images/WhiteBeadChoice.png","null"
"image-keyboard-response","79","374440","0.0-4.0-2.19","4","Low_HMMActual","null","","","","Images/WhiteBeadChoiceWrong.png","null"
"image-keyboard-response","80","375190","0.0-4.0-0.20","4","Low_HMMActual","748.5699999961071","","","","Images/NewTrialBC.png","39"
"image-keyboard-response","81","375593","0.0-4.0-1.20","4","Low_HMMActual","null","","","","Images/WhiteBeadChoice.png","null"
"image-keyboard-response","82","376295","0.0-4.0-2.20","4","Low_HMMActual","null","","","","Images/WhiteBeadChoiceCorrect.png","null"
"image-keyboard-response","83","376742","0.0-4.0-0.21","4","Low_HMMActual","445.22500003222376","","","","Images/NewTrialWC.png","39"
"image-keyboard-response","84","377144","0.0-4.0-1.21","4","Low_HMMActual","null","","","","Images/WhiteBeadChoice.png","null"
"image-keyboard-response","85","377847","0.0-4.0-2.21","4","Low_HMMActual","null","","","","Images/WhiteBeadChoiceCorrect.png","null"
"image-keyboard-response","86","378367","0.0-4.0-0.22","4","Low_HMMActual","517.7699999767356","","","","Images/NewTrialWC.png","39"
"image-keyboard-response","87","378768","0.0-4.0-1.22","4","Low_HMMActual","null","","","","Images/WhiteBeadChoice.png","null"
"image-keyboard-response","88","379472","0.0-4.0-2.22","4","Low_HMMActual","null","","","","Images/WhiteBeadChoiceCorrect.png","null"
"image-keyboard-response","89","380151","0.0-4.0-0.23","4","Low_HMMActual","677.1349999471568","","","","Images/NewTrialWC.png","39"
"image-keyboard-response","90","380554","0.0-4.0-1.23","4","Low_HMMActual","null","","","","Images/WhiteBeadChoice.png","null"
"image-keyboard-response","91","381256","0.0-4.0-2.23","4","Low_HMMActual","null","","","","Images/WhiteBeadChoiceCorrect.png","null"
"image-keyboard-response","92","391519","0.0-4.0-0.24","4","Low_HMMActual","10261.41000003554","","","","Images/NewTrialWC.png","39"
"image-keyboard-response","93","391921","0.0-4.0-1.24","4","Low_HMMActual","null","","","","Images/WhiteBeadChoice.png","null"
"image-keyboard-response","94","392624","0.0-4.0-2.24","4","Low_HMMActual","null","","","","Images/WhiteBeadChoiceWrong.png","null"
"image-keyboard-response","95","392990","0.0-4.0-0.25","4","Low_HMMActual","364.16499997721985","","","","Images/NewTrialBC.png","39"
"image-keyboard-response","96","393392","0.0-4.0-1.25","4","Low_HMMActual","null","","","","Images/WhiteBeadChoice.png","null"
"image-keyboard-response","97","394096","0.0-4.0-2.25","4","Low_HMMActual","null","","","","Images/WhiteBeadChoiceCorrect.png","null"
"image-keyboard-response","98","394398","0.0-4.0-0.26","4","Low_HMMActual","300.7849999703467","","","","Images/NewTrialWC.png","39"
"image-keyboard-response","99","394802","0.0-4.0-1.26","4","Low_HMMActual","null","","","","Images/WhiteBeadChoice.png","null"
"image-keyboard-response","100","395505","0.0-4.0-2.26","4","Low_HMMActual","null","","","","Images/WhiteBeadChoiceWrong.png","null"
"image-keyboard-response","101","395830","0.0-4.0-0.27","4","Low_HMMActual","323.6299999989569","","","","Images/NewTrialBC.png","39"
"image-keyboard-response","102","396233","0.0-4.0-1.27","4","Low_HMMActual","null","","","","Images/WhiteBeadChoice.png","null"
"image-keyboard-response","103","396936","0.0-4.0-2.27","4","Low_HMMActual","null","","","","Images/WhiteBeadChoiceCorrect.png","null"
"image-keyboard-response","104","397486","0.0-4.0-0.28","4","Low_HMMActual","548.3750000130385","","","","Images/NewTrialWC.png","39"
"image-keyboard-response","105","397888","0.0-4.0-1.28","4","Low_HMMActual","null","","","","Images/WhiteBeadChoice.png","null"
"image-keyboard-response","106","398590","0.0-4.0-2.28","4","Low_HMMActual","null","","","","Images/WhiteBeadChoiceCorrect.png","null"
"image-keyboard-response","107","399134","0.0-4.0-0.29","4","Low_HMMActual","542.0349999913014","","","","Images/NewTrialWC.png","39"
"image-keyboard-response","108","399537","0.0-4.0-1.29","4","Low_HMMActual","null","","","","Images/WhiteBeadChoice.png","null"
"image-keyboard-response","109","400239","0.0-4.0-2.29","4","Low_HMMActual","null","","","","Images/WhiteBeadChoiceCorrect.png","null"
"image-keyboard-response","110","400774","0.0-4.0-0.30","4","Low_HMMActual","533.255000016652","","","","Images/NewTrialWC.png","39"
"image-keyboard-response","111","401178","0.0-4.0-1.30","4","Low_HMMActual","null","","","","Images/WhiteBeadChoice.png","null"
"image-keyboard-response","112","401880","0.0-4.0-2.30","4","Low_HMMActual","null","","","","Images/WhiteBeadChoiceCorrect.png","null"
"image-keyboard-response","113","402463","0.0-4.0-0.31","4","Low_HMMActual","581.389999948442","","","","Images/NewTrialWC.png","39"
"image-keyboard-response","114","402865","0.0-4.0-1.31","4","Low_HMMActual","null","","","","Images/WhiteBeadChoice.png","null"
"image-keyboard-response","115","403568","0.0-4.0-2.31","4","Low_HMMActual","null","","","","Images/WhiteBeadChoiceWrong.png","null"
"image-keyboard-response","116","403934","0.0-4.0-0.32","4","Low_HMMActual","364.3349999911152","","","","Images/NewTrialBC.png","39"
"image-keyboard-response","117","404336","0.0-4.0-1.32","4","Low_HMMActual","null","","","","Images/WhiteBeadChoice.png","null"
"image-keyboard-response","118","405039","0.0-4.0-2.32","4","Low_HMMActual","null","","","","Images/WhiteBeadChoiceWrong.png","null"
"image-keyboard-response","119","405358","0.0-4.0-0.33","4","Low_HMMActual","317.08999996772036","","","","Images/NewTrialBC.png","39"
"image-keyboard-response","120","405760","0.0-4.0-1.33","4","Low_HMMActual","null","","","","Images/WhiteBeadChoice.png","null"
"image-keyboard-response","121","406464","0.0-4.0-2.33","4","Low_HMMActual","null","","","","Images/WhiteBeadChoiceCorrect.png","null"
"image-keyboard-response","122","407062","0.0-4.0-0.34","4","Low_HMMActual","597.0499999821186","","","","Images/NewTrialWC.png","39"
"image-keyboard-response","123","407466","0.0-4.0-1.34","4","Low_HMMActual","null","","","","Images/WhiteBeadChoice.png","null"
"image-keyboard-response","124","408168","0.0-4.0-2.34","4","Low_HMMActual","null","","","","Images/WhiteBeadChoiceCorrect.png","null"
"image-keyboard-response","125","408766","0.0-4.0-0.35","4","Low_HMMActual","596.4299999759533","","","","Images/NewTrialWC.png","39"
"image-keyboard-response","126","409168","0.0-4.0-1.35","4","Low_HMMActual","null","","","","Images/WhiteBeadChoice.png","null"
"image-keyboard-response","127","409870","0.0-4.0-2.35","4","Low_HMMActual","null","","","","Images/WhiteBeadChoiceCorrect.png","null"
"image-keyboard-response","128","410479","0.0-4.0-0.36","4","Low_HMMActual","606.2099999981001","","","","Images/NewTrialWC.png","39"
"image-keyboard-response","129","410882","0.0-4.0-1.36","4","Low_HMMActual","null","","","","Images/WhiteBeadChoice.png","null"
"image-keyboard-response","130","411585","0.0-4.0-2.36","4","Low_HMMActual","null","","","","Images/WhiteBeadChoiceCorrect.png","null"
"image-keyboard-response","131","412567","0.0-4.0-0.37","4","Low_HMMActual","980.3400000091642","","","","Images/NewTrialWC.png","39"
"image-keyboard-response","132","412969","0.0-4.0-1.37","4","Low_HMMActual","null","","","","Images/WhiteBeadChoice.png","null"
"image-keyboard-response","133","413672","0.0-4.0-2.37","4","Low_HMMActual","null","","","","Images/WhiteBeadChoiceCorrect.png","null"
"image-keyboard-response","134","414399","0.0-4.0-0.38","4","Low_HMMActual","724.3599999928847","","","","Images/NewTrialWC.png","39"
"image-keyboard-response","135","414801","0.0-4.0-1.38","4","Low_HMMActual","null","","","","Images/WhiteBeadChoice.png","null"
"image-keyboard-response","136","415503","0.0-4.0-2.38","4","Low_HMMActual","null","","","","Images/WhiteBeadChoiceCorrect.png","null"
"image-keyboard-response","137","416111","0.0-4.0-0.39","4","Low_HMMActual","605.2500000223517","","","","Images/NewTrialWC.png","39"
"image-keyboard-response","138","416514","0.0-4.0-1.39","4","Low_HMMActual","null","","","","Images/WhiteBeadChoice.png","null"
"image-keyboard-response","139","417217","0.0-4.0-2.39","4","Low_HMMActual","null","","","","Images/WhiteBeadChoiceCorrect.png","null"
"image-keyboard-response","140","417638","0.0-4.0-0.40","4","Low_HMMActual","419.690000009723","","","","Images/NewTrialWC.png","39"
"image-keyboard-response","141","418041","0.0-4.0-1.40","4","Low_HMMActual","null","","","","Images/WhiteBeadChoice.png","null"
"image-keyboard-response","142","418744","0.0-4.0-2.40","4","Low_HMMActual","null","","","","Images/WhiteBeadChoiceCorrect.png","null"
"image-keyboard-response","143","419159","0.0-4.0-0.41","4","Low_HMMActual","413.2350000436418","","","","Images/NewTrialWC.png","39"
"image-keyboard-response","144","419562","0.0-4.0-1.41","4","Low_HMMActual","null","","","","Images/WhiteBeadChoice.png","null"
"image-keyboard-response","145","420265","0.0-4.0-2.41","4","Low_HMMActual","null","","","","Images/WhiteBeadChoiceCorrect.png","null"
"image-keyboard-response","146","420711","0.0-4.0-0.42","4","Low_HMMActual","443.97000002209097","","","","Images/NewTrialWC.png","39"
"image-keyboard-response","147","421112","0.0-4.0-1.42","4","Low_HMMActual","null","","","","Images/WhiteBeadChoice.png","null"
"image-keyboard-response","148","421815","0.0-4.0-2.42","4","Low_HMMActual","null","","","","Images/WhiteBeadChoiceCorrect.png","null"
"image-keyboard-response","149","422327","0.0-4.0-0.43","4","Low_HMMActual","510.0749999983236","","","","Images/NewTrialWC.png","39"
"image-keyboard-response","150","422728","0.0-4.0-1.43","4","Low_HMMActual","null","","","","Images/WhiteBeadChoice.png","null"
"image-keyboard-response","151","423430","0.0-4.0-2.43","4","Low_HMMActual","null","","","","Images/WhiteBeadChoiceCorrect.png","null"
"image-keyboard-response","152","424327","0.0-4.0-0.44","4","Low_HMMActual","894.8899999959394","","","","Images/NewTrialWC.png","39"
"image-keyboard-response","153","424729","0.0-4.0-1.44","4","Low_HMMActual","null","","","","Images/WhiteBeadChoice.png","null"
"image-keyboard-response","154","425431","0.0-4.0-2.44","4","Low_HMMActual","null","","","","Images/WhiteBeadChoiceCorrect.png","null"
"image-keyboard-response","155","425806","0.0-4.0-0.45","4","Low_HMMActual","373.57500003417954","","","","Images/NewTrialWC.png","39"
"image-keyboard-response","156","426210","0.0-4.0-1.45","4","Low_HMMActual","null","","","","Images/WhiteBeadChoice.png","null"
"image-keyboard-response","157","426913","0.0-4.0-2.45","4","Low_HMMActual","null","","","","Images/WhiteBeadChoiceCorrect.png","null"
"image-keyboard-response","158","427278","0.0-4.0-0.46","4","Low_HMMActual","363.57499996665865","","","","Images/NewTrialWC.png","39"
"image-keyboard-response","159","427681","0.0-4.0-1.46","4","Low_HMMActual","null","","","","Images/WhiteBeadChoice.png","null"
"image-keyboard-response","160","428384","0.0-4.0-2.46","4","Low_HMMActual","null","","","","Images/WhiteBeadChoiceCorrect.png","null"
"image-keyboard-response","161","428750","0.0-4.0-0.47","4","Low_HMMActual","364.48500002734363","","","","Images/NewTrialWC.png","39"
"image-keyboard-response","162","429154","0.0-4.0-1.47","4","Low_HMMActual","null","","","","Images/WhiteBeadChoice.png","null"
"image-keyboard-response","163","429856","0.0-4.0-2.47","4","Low_HMMActual","null","","","","Images/WhiteBeadChoiceCorrect.png","null"
"image-keyboard-response","164","430294","0.0-4.0-0.48","4","Low_HMMActual","436.48999999277294","","","","Images/NewTrialWC.png","39"
"image-keyboard-response","165","430697","0.0-4.0-1.48","4","Low_HMMActual","null","","","","Images/WhiteBeadChoice.png","null"
"image-keyboard-response","166","431399","0.0-4.0-2.48","4","Low_HMMActual","null","","","","Images/WhiteBeadChoiceWrong.png","null"
"image-keyboard-response","167","431782","0.0-4.0-0.49","4","Low_HMMActual","381.5700000268407","","","","Images/NewTrialBC.png","39"
"image-keyboard-response","168","432186","0.0-4.0-1.49","4","Low_HMMActual","null","","","","Images/WhiteBeadChoice.png","null"
"image-keyboard-response","169","432889","0.0-4.0-2.49","4","Low_HMMActual","null","","","","Images/WhiteBeadChoiceWrong.png","null"
"image-keyboard-response","170","433167","0.0-4.0-0.50","4","Low_HMMActual","275.8599999942817","","","","Images/NewTrialBC.png","39"
"image-keyboard-response","171","433569","0.0-4.0-1.50","4","Low_HMMActual","null","","","","Images/WhiteBeadChoice.png","null"
"image-keyboard-response","172","434272","0.0-4.0-2.50","4","Low_HMMActual","null","","","","Images/WhiteBeadChoiceWrong.png","null"
"image-keyboard-response","173","434911","0.0-4.0-0.51","4","Low_HMMActual","636.8650000076741","","","","Images/NewTrialBC.png","39"
"image-keyboard-response","174","435313","0.0-4.0-1.51","4","Low_HMMActual","null","","","","Images/WhiteBeadChoice.png","null"
"image-keyboard-response","175","436017","0.0-4.0-2.51","4","Low_HMMActual","null","","","","Images/WhiteBeadChoiceWrong.png","null"
"image-keyboard-response","176","437951","0.0-4.0-0.52","4","Low_HMMActual","1932.2949999477714","","","","Images/NewTrialBC.png","37"
"image-keyboard-response","177","438352","0.0-4.0-1.52","4","Low_HMMActual","null","","","","Images/BlackBeadChoice.png","null"
"image-keyboard-response","178","439055","0.0-4.0-2.52","4","Low_HMMActual","null","","","","Images/BlackBeadChoiceCorrect.png","null"
"image-keyboard-response","179","439374","0.0-4.0-0.53","4","Low_HMMActual","317.10499996552244","","","","Images/NewTrialBC.png","37"
"image-keyboard-response","180","439777","0.0-4.0-1.53","4","Low_HMMActual","null","","","","Images/BlackBeadChoice.png","null"
"image-keyboard-response","181","440480","0.0-4.0-2.53","4","Low_HMMActual","null","","","","Images/BlackBeadChoiceCorrect.png","null"
"image-keyboard-response","182","440823","0.0-4.0-0.54","4","Low_HMMActual","341.09000000171363","","","","Images/NewTrialBC.png","37"
"image-keyboard-response","183","441225","0.0-4.0-1.54","4","Low_HMMActual","null","","","","Images/BlackBeadChoice.png","null"
"image-keyboard-response","184","441928","0.0-4.0-2.54","4","Low_HMMActual","null","","","","Images/BlackBeadChoiceCorrect.png","null"
"image-keyboard-response","185","442254","0.0-4.0-0.55","4","Low_HMMActual","324.6849999995902","","","","Images/NewTrialBC.png","37"
"image-keyboard-response","186","442658","0.0-4.0-1.55","4","Low_HMMActual","null","","","","Images/BlackBeadChoice.png","null"
"image-keyboard-response","187","443361","0.0-4.0-2.55","4","Low_HMMActual","null","","","","Images/BlackBeadChoiceCorrect.png","null"
"image-keyboard-response","188","443750","0.0-4.0-0.56","4","Low_HMMActual","387.6799999852665","","","","Images/NewTrialBC.png","37"
"image-keyboard-response","189","444154","0.0-4.0-1.56","4","Low_HMMActual","null","","","","Images/BlackBeadChoice.png","null"
"image-keyboard-response","190","444857","0.0-4.0-2.56","4","Low_HMMActual","null","","","","Images/BlackBeadChoiceWrong.png","null"
"image-keyboard-response","191","445399","0.0-4.0-0.57","4","Low_HMMActual","540.2849999954924","","","","Images/NewTrialWC.png","37"
"image-keyboard-response","192","445801","0.0-4.0-1.57","4","Low_HMMActual","null","","","","Images/BlackBeadChoice.png","null"
"image-keyboard-response","193","446504","0.0-4.0-2.57","4","Low_HMMActual","null","","","","Images/BlackBeadChoiceCorrect.png","null"
"image-keyboard-response","194","446830","0.0-4.0-0.58","4","Low_HMMActual","324.8199999798089","","","","Images/NewTrialBC.png","37"
"image-keyboard-response","195","447233","0.0-4.0-1.58","4","Low_HMMActual","null","","","","Images/BlackBeadChoice.png","null"
"image-keyboard-response","196","447936","0.0-4.0-2.58","4","Low_HMMActual","null","","","","Images/BlackBeadChoiceCorrect.png","null"
"image-keyboard-response","197","448270","0.0-4.0-0.59","4","Low_HMMActual","332.7900000149384","","","","Images/NewTrialBC.png","37"
"image-keyboard-response","198","448673","0.0-4.0-1.59","4","Low_HMMActual","null","","","","Images/BlackBeadChoice.png","null"
"image-keyboard-response","199","449376","0.0-4.0-2.59","4","Low_HMMActual","null","","","","Images/BlackBeadChoiceCorrect.png","null"
"image-keyboard-response","200","449702","0.0-4.0-0.60","4","Low_HMMActual","324.78999998420477","","","","Images/NewTrialBC.png","37"
"image-keyboard-response","201","450106","0.0-4.0-1.60","4","Low_HMMActual","null","","","","Images/BlackBeadChoice.png","null"
"image-keyboard-response","202","450809","0.0-4.0-2.60","4","Low_HMMActual","null","","","","Images/BlackBeadChoiceWrong.png","null"
"image-keyboard-response","203","451254","0.0-4.0-0.61","4","Low_HMMActual","443.58500000089407","","","","Images/NewTrialWC.png","37"
"image-keyboard-response","204","451657","0.0-4.0-1.61","4","Low_HMMActual","null","","","","Images/BlackBeadChoice.png","null"
"image-keyboard-response","205","452359","0.0-4.0-2.61","4","Low_HMMActual","null","","","","Images/BlackBeadChoiceCorrect.png","null"
"image-keyboard-response","206","452678","0.0-4.0-0.62","4","Low_HMMActual","317.5850000116043","","","","Images/NewTrialBC.png","37"
"image-keyboard-response","207","453080","0.0-4.0-1.62","4","Low_HMMActual","null","","","","Images/BlackBeadChoice.png","null"
"image-keyboard-response","208","453782","0.0-4.0-2.62","4","Low_HMMActual","null","","","","Images/BlackBeadChoiceCorrect.png","null"
"image-keyboard-response","209","454095","0.0-4.0-0.63","4","Low_HMMActual","310.8350000111386","","","","Images/NewTrialBC.png","37"
"image-keyboard-response","210","454497","0.0-4.0-1.63","4","Low_HMMActual","null","","","","Images/BlackBeadChoice.png","null"
"image-keyboard-response","211","455200","0.0-4.0-2.63","4","Low_HMMActual","null","","","","Images/BlackBeadChoiceCorrect.png","null"
"image-keyboard-response","212","455559","0.0-4.0-0.64","4","Low_HMMActual","356.6949999658391","","","","Images/NewTrialBC.png","37"
"image-keyboard-response","213","455961","0.0-4.0-1.64","4","Low_HMMActual","null","","","","Images/BlackBeadChoice.png","null"
"image-keyboard-response","214","456664","0.0-4.0-2.64","4","Low_HMMActual","null","","","","Images/BlackBeadChoiceCorrect.png","null"
"image-keyboard-response","215","457031","0.0-4.0-0.65","4","Low_HMMActual","364.4349999958649","","","","Images/NewTrialBC.png","37"
"image-keyboard-response","216","457432","0.0-4.0-1.65","4","Low_HMMActual","null","","","","Images/BlackBeadChoice.png","null"
"image-keyboard-response","217","458135","0.0-4.0-2.65","4","Low_HMMActual","null","","","","Images/BlackBeadChoiceCorrect.png","null"
"image-keyboard-response","218","458558","0.0-4.0-0.66","4","Low_HMMActual","420.9499999997206","","","","Images/NewTrialBC.png","37"
"image-keyboard-response","219","458960","0.0-4.0-1.66","4","Low_HMMActual","null","","","","Images/BlackBeadChoice.png","null"
"image-keyboard-response","220","459663","0.0-4.0-2.66","4","Low_HMMActual","null","","","","Images/BlackBeadChoiceCorrect.png","null"
"image-keyboard-response","221","460063","0.0-4.0-0.67","4","Low_HMMActual","397.3049999913201","","","","Images/NewTrialBC.png","37"
"image-keyboard-response","222","460464","0.0-4.0-1.67","4","Low_HMMActual","null","","","","Images/BlackBeadChoice.png","null"
"image-keyboard-response","223","461167","0.0-4.0-2.67","4","Low_HMMActual","null","","","","Images/BlackBeadChoiceCorrect.png","null"
"image-keyboard-response","224","461495","0.0-4.0-0.68","4","Low_HMMActual","325.24500001454726","","","","Images/NewTrialBC.png","37"
"image-keyboard-response","225","461896","0.0-4.0-1.68","4","Low_HMMActual","null","","","","Images/BlackBeadChoice.png","null"
"image-keyboard-response","226","462599","0.0-4.0-2.68","4","Low_HMMActual","null","","","","Images/BlackBeadChoiceCorrect.png","null"
"image-keyboard-response","227","462926","0.0-4.0-0.69","4","Low_HMMActual","325.1799999852665","","","","Images/NewTrialBC.png","37"
"image-keyboard-response","228","463328","0.0-4.0-1.69","4","Low_HMMActual","null","","","","Images/BlackBeadChoice.png","null"
"image-keyboard-response","229","464032","0.0-4.0-2.69","4","Low_HMMActual","null","","","","Images/BlackBeadChoiceCorrect.png","null"
"image-keyboard-response","230","464518","0.0-4.0-0.70","4","Low_HMMActual","484.8049999563955","","","","Images/NewTrialBC.png","37"
"image-keyboard-response","231","464920","0.0-4.0-1.70","4","Low_HMMActual","null","","","","Images/BlackBeadChoice.png","null"
"image-keyboard-response","232","465623","0.0-4.0-2.70","4","Low_HMMActual","null","","","","Images/BlackBeadChoiceCorrect.png","null"
"image-keyboard-response","233","465943","0.0-4.0-0.71","4","Low_HMMActual","317.69999995594844","","","","Images/NewTrialBC.png","37"
"image-keyboard-response","234","466346","0.0-4.0-1.71","4","Low_HMMActual","null","","","","Images/BlackBeadChoice.png","null"
"image-keyboard-response","235","467048","0.0-4.0-2.71","4","Low_HMMActual","null","","","","Images/BlackBeadChoiceCorrect.png","null"
"image-keyboard-response","236","467382","0.0-4.0-0.72","4","Low_HMMActual","331.85499999672174","","","","Images/NewTrialBC.png","37"
"image-keyboard-response","237","467784","0.0-4.0-1.72","4","Low_HMMActual","null","","","","Images/BlackBeadChoice.png","null"
"image-keyboard-response","238","468488","0.0-4.0-2.72","4","Low_HMMActual","null","","","","Images/BlackBeadChoiceWrong.png","null"
"image-keyboard-response","239","468838","0.0-4.0-0.73","4","Low_HMMActual","348.8349999533966","","","","Images/NewTrialWC.png","37"
"image-keyboard-response","240","469242","0.0-4.0-1.73","4","Low_HMMActual","null","","","","Images/BlackBeadChoice.png","null"
"image-keyboard-response","241","469945","0.0-4.0-2.73","4","Low_HMMActual","null","","","","Images/BlackBeadChoiceWrong.png","null"
"image-keyboard-response","242","470206","0.0-4.0-0.74","4","Low_HMMActual","259.52500000130385","","","","Images/NewTrialWC.png","37"
"image-keyboard-response","243","470608","0.0-4.0-1.74","4","Low_HMMActual","null","","","","Images/BlackBeadChoice.png","null"
"image-keyboard-response","244","471311","0.0-4.0-2.74","4","Low_HMMActual","636.7200000095181","","","","Images/BlackBeadChoiceWrong.png","39"
"image-keyboard-response","245","471750","0.0-4.0-0.75","4","Low_HMMActual","437.1899999678135","","","","Images/NewTrialWC.png","39"
"image-keyboard-response","246","472152","0.0-4.0-1.75","4","Low_HMMActual","null","","","","Images/WhiteBeadChoice.png","null"
"image-keyboard-response","247","472855","0.0-4.0-2.75","4","Low_HMMActual","null","","","","Images/WhiteBeadChoiceWrong.png","null"
"image-keyboard-response","248","473102","0.0-4.0-0.76","4","Low_HMMActual","245.5299999564886","","","","Images/NewTrialBC.png","39"
"image-keyboard-response","249","473504","0.0-4.0-1.76","4","Low_HMMActual","null","","","","Images/WhiteBeadChoice.png","null"
"image-keyboard-response","250","474206","0.0-4.0-2.76","4","Low_HMMActual","null","","","","Images/WhiteBeadChoiceWrong.png","null"
"image-keyboard-response","251","474310","0.0-4.0-0.77","4","Low_HMMActual","101.84999997727573","","","","Images/NewTrialBC.png","37"
"image-keyboard-response","252","474712","0.0-4.0-1.77","4","Low_HMMActual","null","","","","Images/BlackBeadChoice.png","null"
"image-keyboard-response","253","475414","0.0-4.0-2.77","4","Low_HMMActual","null","","","","Images/BlackBeadChoiceCorrect.png","null"
"image-keyboard-response","254","475710","0.0-4.0-0.78","4","Low_HMMActual","294.2900000489317","","","","Images/NewTrialBC.png","37"
"image-keyboard-response","255","476112","0.0-4.0-1.78","4","Low_HMMActual","null","","","","Images/BlackBeadChoice.png","null"
"image-keyboard-response","256","476815","0.0-4.0-2.78","4","Low_HMMActual","null","","","","Images/BlackBeadChoiceCorrect.png","null"
"image-keyboard-response","257","477055","0.0-4.0-0.79","4","Low_HMMActual","237.8199999802746","","","","Images/NewTrialBC.png","37"
"image-keyboard-response","258","477459","0.0-4.0-1.79","4","Low_HMMActual","null","","","","Images/BlackBeadChoice.png","null"
"image-keyboard-response","259","478161","0.0-4.0-2.79","4","Low_HMMActual","null","","","","Images/BlackBeadChoiceCorrect.png","null"
"image-keyboard-response","260","478462","0.0-4.0-0.80","4","Low_HMMActual","299.54999999608845","","","","Images/NewTrialBC.png","37"
"image-keyboard-response","261","478864","0.0-4.0-1.80","4","Low_HMMActual","null","","","","Images/BlackBeadChoice.png","null"
"image-keyboard-response","262","479567","0.0-4.0-2.80","4","Low_HMMActual","null","","","","Images/BlackBeadChoiceCorrect.png","null"
"image-keyboard-response","263","479878","0.0-4.0-0.81","4","Low_HMMActual","309.30999998236075","","","","Images/NewTrialBC.png","37"
"image-keyboard-response","264","480280","0.0-4.0-1.81","4","Low_HMMActual","null","","","","Images/BlackBeadChoice.png","null"
"image-keyboard-response","265","480983","0.0-4.0-2.81","4","Low_HMMActual","null","","","","Images/BlackBeadChoiceCorrect.png","null"
"image-keyboard-response","266","481302","0.0-4.0-0.82","4","Low_HMMActual","317.21000000834465","","","","Images/NewTrialBC.png","37"
"image-keyboard-response","267","481705","0.0-4.0-1.82","4","Low_HMMActual","null","","","","Images/BlackBeadChoice.png","null"
"image-keyboard-response","268","482408","0.0-4.0-2.82","4","Low_HMMActual","null","","","","Images/BlackBeadChoiceWrong.png","null"
"image-keyboard-response","269","482838","0.0-4.0-0.83","4","Low_HMMActual","429.2699999641627","","","","Images/NewTrialWC.png","37"
"image-keyboard-response","270","483240","0.0-4.0-1.83","4","Low_HMMActual","null","","","","Images/BlackBeadChoice.png","null"
"image-keyboard-response","271","483943","0.0-4.0-2.83","4","Low_HMMActual","null","","","","Images/BlackBeadChoiceWrong.png","null"
"image-keyboard-response","272","484262","0.0-4.0-0.84","4","Low_HMMActual","317.15000001713634","","","","Images/NewTrialWC.png","37"
"image-keyboard-response","273","484664","0.0-4.0-1.84","4","Low_HMMActual","null","","","","Images/BlackBeadChoice.png","null"
"image-keyboard-response","274","485367","0.0-4.0-2.84","4","Low_HMMActual","null","","","","Images/BlackBeadChoiceCorrect.png","null"
"image-keyboard-response","275","485766","0.0-4.0-0.85","4","Low_HMMActual","397.7900000172667","","","","Images/NewTrialBC.png","37"
"image-keyboard-response","276","486168","0.0-4.0-1.85","4","Low_HMMActual","null","","","","Images/BlackBeadChoice.png","null"
"image-keyboard-response","277","486871","0.0-4.0-2.85","4","Low_HMMActual","null","","","","Images/BlackBeadChoiceWrong.png","null"
"image-keyboard-response","278","487943","0.0-4.0-0.86","4","Low_HMMActual","1069.5050000213087","","","","Images/NewTrialWC.png","39"
"image-keyboard-response","279","488346","0.0-4.0-1.86","4","Low_HMMActual","null","","","","Images/WhiteBeadChoice.png","null"
"image-keyboard-response","280","489049","0.0-4.0-2.86","4","Low_HMMActual","null","","","","Images/WhiteBeadChoiceWrong.png","null"
"image-keyboard-response","281","489334","0.0-4.0-0.87","4","Low_HMMActual","283.69000001112","","","","Images/NewTrialBC.png","39"
"image-keyboard-response","282","489737","0.0-4.0-1.87","4","Low_HMMActual","null","","","","Images/WhiteBeadChoice.png","null"
"image-keyboard-response","283","490439","0.0-4.0-2.87","4","Low_HMMActual","692.2400000039488","","","","Images/WhiteBeadChoiceWrong.png","37"
"image-keyboard-response","284","490926","0.0-4.0-0.88","4","Low_HMMActual","485.564999980852","","","","Images/NewTrialBC.png","37"
"image-keyboard-response","285","491329","0.0-4.0-1.88","4","Low_HMMActual","null","","","","Images/BlackBeadChoice.png","null"
"image-keyboard-response","286","492033","0.0-4.0-2.88","4","Low_HMMActual","null","","","","Images/BlackBeadChoiceWrong.png","null"
"image-keyboard-response","287","492454","0.0-4.0-0.89","4","Low_HMMActual","419.5699999690987","","","","Images/NewTrialWC.png","37"
"image-keyboard-response","288","492856","0.0-4.0-1.89","4","Low_HMMActual","null","","","","Images/BlackBeadChoice.png","null"
"image-keyboard-response","289","493559","0.0-4.0-2.89","4","Low_HMMActual","null","","","","Images/BlackBeadChoiceCorrect.png","null"
"image-keyboard-response","290","493806","0.0-4.0-0.90","4","Low_HMMActual","244.73999999463558","","","","Images/NewTrialBC.png","37"
"image-keyboard-response","291","494208","0.0-4.0-1.90","4","Low_HMMActual","null","","","","Images/BlackBeadChoice.png","null"
"image-keyboard-response","292","494910","0.0-4.0-2.90","4","Low_HMMActual","null","","","","Images/BlackBeadChoiceCorrect.png","null"
"image-keyboard-response","293","495238","0.0-4.0-0.91","4","Low_HMMActual","326.279999979306","","","","Images/NewTrialBC.png","37"
"image-keyboard-response","294","495641","0.0-4.0-1.91","4","Low_HMMActual","null","","","","Images/BlackBeadChoice.png","null"
"image-keyboard-response","295","496344","0.0-4.0-2.91","4","Low_HMMActual","null","","","","Images/BlackBeadChoiceCorrect.png","null"
"image-keyboard-response","296","496862","0.0-4.0-0.92","4","Low_HMMActual","516.0499999765307","","","","Images/NewTrialBC.png","37"
"image-keyboard-response","297","497266","0.0-4.0-1.92","4","Low_HMMActual","null","","","","Images/BlackBeadChoice.png","null"
"image-keyboard-response","298","497969","0.0-4.0-2.92","4","Low_HMMActual","null","","","","Images/BlackBeadChoiceWrong.png","null"
"image-keyboard-response","299","498415","0.0-4.0-0.93","4","Low_HMMActual","444.0650000469759","","","","Images/NewTrialWC.png","37"
"image-keyboard-response","300","498816","0.0-4.0-1.93","4","Low_HMMActual","null","","","","Images/BlackBeadChoice.png","null"
"image-keyboard-response","301","499519","0.0-4.0-2.93","4","Low_HMMActual","null","","","","Images/BlackBeadChoiceCorrect.png","null"
"image-keyboard-response","302","499830","0.0-4.0-0.94","4","Low_HMMActual","309.76999999256805","","","","Images/NewTrialBC.png","37"
"image-keyboard-response","303","500234","0.0-4.0-1.94","4","Low_HMMActual","null","","","","Images/BlackBeadChoice.png","null"
"image-keyboard-response","304","500937","0.0-4.0-2.94","4","Low_HMMActual","null","","","","Images/BlackBeadChoiceCorrect.png","null"
"image-keyboard-response","305","501318","0.0-4.0-0.95","4","Low_HMMActual","379.37999999849126","","","","Images/NewTrialBC.png","37"
"image-keyboard-response","306","501721","0.0-4.0-1.95","4","Low_HMMActual","null","","","","Images/BlackBeadChoice.png","null"
"image-keyboard-response","307","502424","0.0-4.0-2.95","4","Low_HMMActual","null","","","","Images/BlackBeadChoiceWrong.png","null"
"image-keyboard-response","308","502814","0.0-4.0-0.96","4","Low_HMMActual","388.4449999895878","","","","Images/NewTrialWC.png","37"
"image-keyboard-response","309","503221","0.0-4.0-1.96","4","Low_HMMActual","null","","","","Images/BlackBeadChoice.png","null"
"image-keyboard-response","310","503923","0.0-4.0-2.96","4","Low_HMMActual","null","","","","Images/BlackBeadChoiceCorrect.png","null"
"image-keyboard-response","311","504238","0.0-4.0-0.97","4","Low_HMMActual","313.39000002481043","","","","Images/NewTrialBC.png","37"
"image-keyboard-response","312","504640","0.0-4.0-1.97","4","Low_HMMActual","null","","","","Images/BlackBeadChoice.png","null"
"image-keyboard-response","313","505343","0.0-4.0-2.97","4","Low_HMMActual","null","","","","Images/BlackBeadChoiceCorrect.png","null"
"image-keyboard-response","314","505743","0.0-4.0-0.98","4","Low_HMMActual","397.42500003194436","","","","Images/NewTrialBC.png","37"
"image-keyboard-response","315","506146","0.0-4.0-1.98","4","Low_HMMActual","null","","","","Images/BlackBeadChoice.png","null"
"image-keyboard-response","316","506849","0.0-4.0-2.98","4","Low_HMMActual","null","","","","Images/BlackBeadChoiceCorrect.png","null"
"image-keyboard-response","317","507567","0.0-4.0-0.99","4","Low_HMMActual","715.6200000317767","","","","Images/NewTrialBC.png","37"
"image-keyboard-response","318","507969","0.0-4.0-1.99","4","Low_HMMActual","null","","","","Images/BlackBeadChoice.png","null"
"image-keyboard-response","319","508672","0.0-4.0-2.99","4","Low_HMMActual","null","","","","Images/BlackBeadChoiceCorrect.png","null"
"image-keyboard-response","320","509015","0.0-4.0-0.100","4","Low_HMMActual","340.8049999852665","","","","Images/NewTrialBC.png","37"
"image-keyboard-response","321","509417","0.0-4.0-1.100","4","Low_HMMActual","null","","","","Images/BlackBeadChoice.png","null"
"image-keyboard-response","322","510118","0.0-4.0-2.100","4","Low_HMMActual","null","","","","Images/BlackBeadChoiceCorrect.png","null"
"image-keyboard-response","323","510743","0.0-4.0-0.101","4","Low_HMMActual","622.1149999764748","","","","Images/NewTrialBC.png","37"
"image-keyboard-response","324","511145","0.0-4.0-1.101","4","Low_HMMActual","null","","","","Images/BlackBeadChoice.png","null"
"image-keyboard-response","325","511848","0.0-4.0-2.101","4","Low_HMMActual","null","","","","Images/BlackBeadChoiceCorrect.png","null"
"image-keyboard-response","326","512262","0.0-4.0-0.102","4","Low_HMMActual","412.66999999061227","","","","Images/NewTrialBC.png","37"
"image-keyboard-response","327","512664","0.0-4.0-1.102","4","Low_HMMActual","null","","","","Images/BlackBeadChoice.png","null"
"image-keyboard-response","328","513368","0.0-4.0-2.102","4","Low_HMMActual","null","","","","Images/BlackBeadChoiceCorrect.png","null"
"image-keyboard-response","329","513702","0.0-4.0-0.103","4","Low_HMMActual","332.77999999700114","","","","Images/NewTrialBC.png","37"
"image-keyboard-response","330","514106","0.0-4.0-1.103","4","Low_HMMActual","null","","","","Images/BlackBeadChoice.png","null"
"image-keyboard-response","331","514809","0.0-4.0-2.103","4","Low_HMMActual","null","","","","Images/BlackBeadChoiceWrong.png","null"
"image-keyboard-response","332","515391","0.0-4.0-0.104","4","Low_HMMActual","579.9499999848194","","","","Images/NewTrialWC.png","37"
"image-keyboard-response","333","515793","0.0-4.0-1.104","4","Low_HMMActual","null","","","","Images/BlackBeadChoice.png","null"
"image-keyboard-response","334","516495","0.0-4.0-2.104","4","Low_HMMActual","null","","","","Images/BlackBeadChoiceCorrect.png","null"
"image-keyboard-response","335","516830","0.0-4.0-0.105","4","Low_HMMActual","333.0299999797717","","","","Images/NewTrialBC.png","37"
"image-keyboard-response","336","517232","0.0-4.0-1.105","4","Low_HMMActual","null","","","","Images/BlackBeadChoice.png","null"
"image-keyboard-response","337","517934","0.0-4.0-2.105","4","Low_HMMActual","null","","","","Images/BlackBeadChoiceCorrect.png","null"
"image-keyboard-response","338","518215","0.0-4.0-0.106","4","Low_HMMActual","277.85999997286126","","","","Images/NewTrialBC.png","37"
"image-keyboard-response","339","518617","0.0-4.0-1.106","4","Low_HMMActual","null","","","","Images/BlackBeadChoice.png","null"
"image-keyboard-response","340","519321","0.0-4.0-2.106","4","Low_HMMActual","null","","","","Images/BlackBeadChoiceCorrect.png","null"
"image-keyboard-response","341","519639","0.0-4.0-0.107","4","Low_HMMActual","316.2900000461377","","","","Images/NewTrialBC.png","37"
"image-keyboard-response","342","520041","0.0-4.0-1.107","4","Low_HMMActual","null","","","","Images/BlackBeadChoice.png","null"
"image-keyboard-response","343","520744","0.0-4.0-2.107","4","Low_HMMActual","null","","","","Images/BlackBeadChoiceWrong.png","null"
"image-keyboard-response","344","521326","0.0-4.0-0.108","4","Low_HMMActual","580.6999999913387","","","","Images/NewTrialWC.png","37"
"image-keyboard-response","345","521729","0.0-4.0-1.108","4","Low_HMMActual","null","","","","Images/BlackBeadChoice.png","null"
"image-keyboard-response","346","522431","0.0-4.0-2.108","4","Low_HMMActual","null","","","","Images/BlackBeadChoiceWrong.png","null"
"image-keyboard-response","347","522870","0.0-4.0-0.109","4","Low_HMMActual","436.88499997369945","","","","Images/NewTrialWC.png","37"
"image-keyboard-response","348","523272","0.0-4.0-1.109","4","Low_HMMActual","null","","","","Images/BlackBeadChoice.png","null"
"image-keyboard-response","349","523975","0.0-4.0-2.109","4","Low_HMMActual","null","","","","Images/BlackBeadChoiceWrong.png","null"
"image-keyboard-response","350","524110","0.0-4.0-0.110","4","Low_HMMActual","132.99499999266118","","","","Images/NewTrialWC.png","39"
"image-keyboard-response","351","524516","0.0-4.0-1.110","4","Low_HMMActual","null","","","","Images/WhiteBeadChoice.png","null"
"image-keyboard-response","352","525218","0.0-4.0-2.110","4","Low_HMMActual","null","","","","Images/WhiteBeadChoiceWrong.png","null"
"image-keyboard-response","353","525470","0.0-4.0-0.111","4","Low_HMMActual","250.42999995639548","","","","Images/NewTrialBC.png","39"
"image-keyboard-response","354","525872","0.0-4.0-1.111","4","Low_HMMActual","null","","","","Images/WhiteBeadChoice.png","null"
"image-keyboard-response","355","526574","0.0-4.0-2.111","4","Low_HMMActual","null","","","","Images/WhiteBeadChoiceWrong.png","null"
"image-keyboard-response","356","526918","0.0-4.0-0.112","4","Low_HMMActual","342.27500000270084","","","","Images/NewTrialBC.png","39"
"image-keyboard-response","357","527320","0.0-4.0-1.112","4","Low_HMMActual","null","","","","Images/WhiteBeadChoice.png","null"
"image-keyboard-response","358","528023","0.0-4.0-2.112","4","Low_HMMActual","null","","","","Images/WhiteBeadChoiceWrong.png","null"
"image-keyboard-response","359","528598","0.0-4.0-0.113","4","Low_HMMActual","572.8349999990314","","","","Images/NewTrialBC.png","37"
"image-keyboard-response","360","529000","0.0-4.0-1.113","4","Low_HMMActual","null","","","","Images/BlackBeadChoice.png","null"
"image-keyboard-response","361","529703","0.0-4.0-2.113","4","Low_HMMActual","null","","","","Images/BlackBeadChoiceCorrect.png","null"
"image-keyboard-response","362","529983","0.0-4.0-0.114","4","Low_HMMActual","278.0750000383705","","","","Images/NewTrialBC.png","37"
"image-keyboard-response","363","530385","0.0-4.0-1.114","4","Low_HMMActual","null","","","","Images/BlackBeadChoice.png","null"
"image-keyboard-response","364","531088","0.0-4.0-2.114","4","Low_HMMActual","null","","","","Images/BlackBeadChoiceCorrect.png","null"
"image-keyboard-response","365","531382","0.0-4.0-0.115","4","Low_HMMActual","292.22499998286366","","","","Images/NewTrialBC.png","37"
"image-keyboard-response","366","531785","0.0-4.0-1.115","4","Low_HMMActual","null","","","","Images/BlackBeadChoice.png","null"
"image-keyboard-response","367","532488","0.0-4.0-2.115","4","Low_HMMActual","null","","","","Images/BlackBeadChoiceCorrect.png","null"
"image-keyboard-response","368","532782","0.0-4.0-0.116","4","Low_HMMActual","291.9050000491552","","","","Images/NewTrialBC.png","37"
"image-keyboard-response","369","533186","0.0-4.0-1.116","4","Low_HMMActual","null","","","","Images/BlackBeadChoice.png","null"
"image-keyboard-response","370","533888","0.0-4.0-2.116","4","Low_HMMActual","null","","","","Images/BlackBeadChoiceCorrect.png","null"
"image-keyboard-response","371","534262","0.0-4.0-0.117","4","Low_HMMActual","372.58000002475455","","","","Images/NewTrialBC.png","37"
"image-keyboard-response","372","534665","0.0-4.0-1.117","4","Low_HMMActual","null","","","","Images/BlackBeadChoice.png","null"
"image-keyboard-response","373","535369","0.0-4.0-2.117","4","Low_HMMActual","null","","","","Images/BlackBeadChoiceCorrect.png","null"
"image-keyboard-response","374","535662","0.0-4.0-0.118","4","Low_HMMActual","291.3950000074692","","","","Images/NewTrialBC.png","37"
"image-keyboard-response","375","536064","0.0-4.0-1.118","4","Low_HMMActual","null","","","","Images/BlackBeadChoice.png","null"
"image-keyboard-response","376","536767","0.0-4.0-2.118","4","Low_HMMActual","null","","","","Images/BlackBeadChoiceCorrect.png","null"
"image-keyboard-response","377","537086","0.0-4.0-0.119","4","Low_HMMActual","317.36499996623024","","","","Images/NewTrialBC.png","37"
"image-keyboard-response","378","537488","0.0-4.0-1.119","4","Low_HMMActual","null","","","","Images/BlackBeadChoice.png","null"
"image-keyboard-response","379","538191","0.0-4.0-2.119","4","Low_HMMActual","null","","","","Images/BlackBeadChoiceCorrect.png","null"
"image-keyboard-response","380","538566","0.0-4.0-0.120","4","Low_HMMActual","373.02500003715977","","","","Images/NewTrialBC.png","37"
"image-keyboard-response","381","538968","0.0-4.0-1.120","4","Low_HMMActual","null","","","","Images/BlackBeadChoice.png","null"
"image-keyboard-response","382","539671","0.0-4.0-2.120","4","Low_HMMActual","null","","","","Images/BlackBeadChoiceWrong.png","null"
"image-keyboard-response","383","540335","0.0-4.0-0.121","4","Low_HMMActual","661.7000000551343","","","","Images/NewTrialWC.png","37"
"image-keyboard-response","384","540737","0.0-4.0-1.121","4","Low_HMMActual","null","","","","Images/BlackBeadChoice.png","null"
"image-keyboard-response","385","541439","0.0-4.0-2.121","4","Low_HMMActual","null","","","","Images/BlackBeadChoiceCorrect.png","null"
"image-keyboard-response","386","541710","0.0-4.0-0.122","4","Low_HMMActual","268.804999999702","","","","Images/NewTrialBC.png","37"
"image-keyboard-response","387","542114","0.0-4.0-1.122","4","Low_HMMActual","null","","","","Images/BlackBeadChoice.png","null"
"image-keyboard-response","388","542816","0.0-4.0-2.122","4","Low_HMMActual","null","","","","Images/BlackBeadChoiceWrong.png","null"
"image-keyboard-response","389","543406","0.0-4.0-0.123","4","Low_HMMActual","588.5450000059791","","","","Images/NewTrialWC.png","37"
"image-keyboard-response","390","543808","0.0-4.0-1.123","4","Low_HMMActual","null","","","","Images/BlackBeadChoice.png","null"
"image-keyboard-response","391","544511","0.0-4.0-2.123","4","Low_HMMActual","null","","","","Images/BlackBeadChoiceCorrect.png","null"
"image-keyboard-response","392","544814","0.0-4.0-0.124","4","Low_HMMActual","301.45000002812594","","","","Images/NewTrialBC.png","37"
"image-keyboard-response","393","545216","0.0-4.0-1.124","4","Low_HMMActual","null","","","","Images/BlackBeadChoice.png","null"
"image-keyboard-response","394","545919","0.0-4.0-2.124","4","Low_HMMActual","null","","","","Images/BlackBeadChoiceCorrect.png","null"
"image-keyboard-response","395","546174","0.0-4.0-0.125","4","Low_HMMActual","253.53500002529472","","","","Images/NewTrialBC.png","37"
"image-keyboard-response","396","546578","0.0-4.0-1.125","4","Low_HMMActual","null","","","","Images/BlackBeadChoice.png","null"
"image-keyboard-response","397","547280","0.0-4.0-2.125","4","Low_HMMActual","null","","","","Images/BlackBeadChoiceCorrect.png","null"
"image-keyboard-response","398","547558","0.0-4.0-0.126","4","Low_HMMActual","276.39000001363456","","","","Images/NewTrialBC.png","37"
"image-keyboard-response","399","547960","0.0-4.0-1.126","4","Low_HMMActual","null","","","","Images/BlackBeadChoice.png","null"
"image-keyboard-response","400","548662","0.0-4.0-2.126","4","Low_HMMActual","null","","","","Images/BlackBeadChoiceCorrect.png","null"
"image-keyboard-response","401","548974","0.0-4.0-0.127","4","Low_HMMActual","310.170000011567","","","","Images/NewTrialBC.png","37"
"image-keyboard-response","402","549376","0.0-4.0-1.127","4","Low_HMMActual","null","","","","Images/BlackBeadChoice.png","null"
"image-keyboard-response","403","550078","0.0-4.0-2.127","4","Low_HMMActual","null","","","","Images/BlackBeadChoiceCorrect.png","null"
"image-keyboard-response","404","550334","0.0-4.0-0.128","4","Low_HMMActual","253.79500002600253","","","","Images/NewTrialBC.png","37"
"image-keyboard-response","405","550737","0.0-4.0-1.128","4","Low_HMMActual","null","","","","Images/BlackBeadChoice.png","null"
"image-keyboard-response","406","551440","0.0-4.0-2.128","4","Low_HMMActual","null","","","","Images/BlackBeadChoiceCorrect.png","null"
"image-keyboard-response","407","551823","0.0-4.0-0.129","4","Low_HMMActual","381.1449999921024","","","","Images/NewTrialBC.png","37"
"image-keyboard-response","408","552225","0.0-4.0-1.129","4","Low_HMMActual","null","","","","Images/BlackBeadChoice.png","null"
"image-keyboard-response","409","552928","0.0-4.0-2.129","4","Low_HMMActual","null","","","","Images/BlackBeadChoiceWrong.png","null"
"image-keyboard-response","410","553198","0.0-4.0-0.130","4","Low_HMMActual","268.4599999920465","","","","Images/NewTrialWC.png","37"
"image-keyboard-response","411","553600","0.0-4.0-1.130","4","Low_HMMActual","null","","","","Images/BlackBeadChoice.png","null"
"image-keyboard-response","412","554302","0.0-4.0-2.130","4","Low_HMMActual","null","","","","Images/BlackBeadChoiceCorrect.png","null"
"image-keyboard-response","413","554510","0.0-4.0-0.131","4","Low_HMMActual","206.13499998580664","","","","Images/NewTrialBC.png","37"
"image-keyboard-response","414","554912","0.0-4.0-1.131","4","Low_HMMActual","null","","","","Images/BlackBeadChoice.png","null"
"image-keyboard-response","415","555615","0.0-4.0-2.131","4","Low_HMMActual","null","","","","Images/BlackBeadChoiceCorrect.png","null"
"image-keyboard-response","416","555926","0.0-4.0-0.132","4","Low_HMMActual","308.8450000504963","","","","Images/NewTrialBC.png","37"
"image-keyboard-response","417","556330","0.0-4.0-1.132","4","Low_HMMActual","null","","","","Images/BlackBeadChoice.png","null"
"image-keyboard-response","418","557033","0.0-4.0-2.132","4","Low_HMMActual","null","","","","Images/BlackBeadChoiceCorrect.png","null"
"image-keyboard-response","419","557326","0.0-4.0-0.133","4","Low_HMMActual","291.35000001406297","","","","Images/NewTrialBC.png","37"
"image-keyboard-response","420","557729","0.0-4.0-1.133","4","Low_HMMActual","null","","","","Images/BlackBeadChoice.png","null"
"image-keyboard-response","421","558432","0.0-4.0-2.133","4","Low_HMMActual","null","","","","Images/BlackBeadChoiceCorrect.png","null"
"image-keyboard-response","422","558846","0.0-4.0-0.134","4","Low_HMMActual","412.25500003201887","","","","Images/NewTrialBC.png","37"
"image-keyboard-response","423","559248","0.0-4.0-1.134","4","Low_HMMActual","null","","","","Images/BlackBeadChoice.png","null"
"image-keyboard-response","424","559950","0.0-4.0-2.134","4","Low_HMMActual","null","","","","Images/BlackBeadChoiceCorrect.png","null"
"image-keyboard-response","425","560262","0.0-4.0-0.135","4","Low_HMMActual","310.1899999892339","","","","Images/NewTrialBC.png","37"
"image-keyboard-response","426","560664","0.0-4.0-1.135","4","Low_HMMActual","null","","","","Images/BlackBeadChoice.png","null"
"image-keyboard-response","427","561367","0.0-4.0-2.135","4","Low_HMMActual","null","","","","Images/BlackBeadChoiceCorrect.png","null"
"image-keyboard-response","428","561662","0.0-4.0-0.136","4","Low_HMMActual","292.9700000095181","","","","Images/NewTrialBC.png","37"
"image-keyboard-response","429","562064","0.0-4.0-1.136","4","Low_HMMActual","null","","","","Images/BlackBeadChoice.png","null"
"image-keyboard-response","430","562767","0.0-4.0-2.136","4","Low_HMMActual","null","","","","Images/BlackBeadChoiceCorrect.png","null"
"image-keyboard-response","431","563031","0.0-4.0-0.137","4","Low_HMMActual","261.4049999974668","","","","Images/NewTrialBC.png","37"
"image-keyboard-response","432","563433","0.0-4.0-1.137","4","Low_HMMActual","null","","","","Images/BlackBeadChoice.png","null"
"image-keyboard-response","433","564135","0.0-4.0-2.137","4","Low_HMMActual","null","","","","Images/BlackBeadChoiceCorrect.png","null"
"image-keyboard-response","434","564510","0.0-4.0-0.138","4","Low_HMMActual","373.3850000426173","","","","Images/NewTrialBC.png","37"
"image-keyboard-response","435","564912","0.0-4.0-1.138","4","Low_HMMActual","null","","","","Images/BlackBeadChoice.png","null"
"image-keyboard-response","436","565615","0.0-4.0-2.138","4","Low_HMMActual","null","","","","Images/BlackBeadChoiceCorrect.png","null"
"image-keyboard-response","437","566054","0.0-4.0-0.139","4","Low_HMMActual","437.5700000091456","","","","Images/NewTrialBC.png","37"
"image-keyboard-response","438","566457","0.0-4.0-1.139","4","Low_HMMActual","null","","","","Images/BlackBeadChoice.png","null"
"image-keyboard-response","439","567161","0.0-4.0-2.139","4","Low_HMMActual","null","","","","Images/BlackBeadChoiceCorrect.png","null"
"image-keyboard-response","440","567485","0.0-4.0-0.140","4","Low_HMMActual","322.4599999957718","","","","Images/NewTrialBC.png","37"
"image-keyboard-response","441","567887","0.0-4.0-1.140","4","Low_HMMActual","null","","","","Images/BlackBeadChoice.png","null"
"image-keyboard-response","442","568590","0.0-4.0-2.140","4","Low_HMMActual","null","","","","Images/BlackBeadChoiceWrong.png","null"
"image-keyboard-response","443","568974","0.0-4.0-0.141","4","Low_HMMActual","382.3349999729544","","","","Images/NewTrialWC.png","37"
"image-keyboard-response","444","569378","0.0-4.0-1.141","4","Low_HMMActual","null","","","","Images/BlackBeadChoice.png","null"
"image-keyboard-response","445","570081","0.0-4.0-2.141","4","Low_HMMActual","null","","","","Images/BlackBeadChoiceCorrect.png","null"
"image-keyboard-response","446","570366","0.0-4.0-0.142","4","Low_HMMActual","283.5400000330992","","","","Images/NewTrialBC.png","37"
"image-keyboard-response","447","570770","0.0-4.0-1.142","4","Low_HMMActual","null","","","","Images/BlackBeadChoice.png","null"
"image-keyboard-response","448","571473","0.0-4.0-2.142","4","Low_HMMActual","null","","","","Images/BlackBeadChoiceCorrect.png","null"
"image-keyboard-response","449","571766","0.0-4.0-0.143","4","Low_HMMActual","291.16000002250075","","","","Images/NewTrialBC.png","37"
"image-keyboard-response","450","572168","0.0-4.0-1.143","4","Low_HMMActual","null","","","","Images/BlackBeadChoice.png","null"
"image-keyboard-response","451","572871","0.0-4.0-2.143","4","Low_HMMActual","null","","","","Images/BlackBeadChoiceCorrect.png","null"
"image-keyboard-response","452","573175","0.0-4.0-0.144","4","Low_HMMActual","301.64499999955297","","","","Images/NewTrialBC.png","37"
"image-keyboard-response","453","573576","0.0-4.0-1.144","4","Low_HMMActual","null","","","","Images/BlackBeadChoice.png","null"
"image-keyboard-response","454","574280","0.0-4.0-2.144","4","Low_HMMActual","null","","","","Images/BlackBeadChoiceWrong.png","null"
"image-keyboard-response","455","574622","0.0-4.0-0.145","4","Low_HMMActual","340.5100000090897","","","","Images/NewTrialWC.png","37"
"image-keyboard-response","456","575026","0.0-4.0-1.145","4","Low_HMMActual","null","","","","Images/BlackBeadChoice.png","null"
"image-keyboard-response","457","575729","0.0-4.0-2.145","4","Low_HMMActual","null","","","","Images/BlackBeadChoiceCorrect.png","null"
"image-keyboard-response","458","576022","0.0-4.0-0.146","4","Low_HMMActual","291.4849999942817","","","","Images/NewTrialBC.png","37"
"image-keyboard-response","459","576424","0.0-4.0-1.146","4","Low_HMMActual","null","","","","Images/BlackBeadChoice.png","null"
"image-keyboard-response","460","577127","0.0-4.0-2.146","4","Low_HMMActual","null","","","","Images/BlackBeadChoiceCorrect.png","null"
"image-keyboard-response","461","577342","0.0-4.0-0.147","4","Low_HMMActual","213.2700000074692","","","","Images/NewTrialBC.png","37"
"image-keyboard-response","462","577745","0.0-4.0-1.147","4","Low_HMMActual","null","","","","Images/BlackBeadChoice.png","null"
"image-keyboard-response","463","578447","0.0-4.0-2.147","4","Low_HMMActual","null","","","","Images/BlackBeadChoiceWrong.png","null"
"image-keyboard-response","464","578734","0.0-4.0-0.148","4","Low_HMMActual","284.685000020545","","","","Images/NewTrialWC.png","37"
"image-keyboard-response","465","579138","0.0-4.0-1.148","4","Low_HMMActual","null","","","","Images/BlackBeadChoice.png","null"
"image-keyboard-response","466","579841","0.0-4.0-2.148","4","Low_HMMActual","null","","","","Images/BlackBeadChoiceCorrect.png","null"
"image-keyboard-response","467","580094","0.0-4.0-0.149","4","Low_HMMActual","251.76000001374632","","","","Images/NewTrialBC.png","37"
"image-keyboard-response","468","580498","0.0-4.0-1.149","4","Low_HMMActual","null","","","","Images/BlackBeadChoice.png","null"
"image-keyboard-response","469","581200","0.0-4.0-2.149","4","Low_HMMActual","null","","","","Images/BlackBeadChoiceCorrect.png","null"
"image-keyboard-response","470","581446","0.0-4.0-0.150","4","Low_HMMActual","243.94000001484528","","","","Images/NewTrialBC.png","37"
"image-keyboard-response","471","581848","0.0-4.0-1.150","4","Low_HMMActual","null","","","","Images/BlackBeadChoice.png","null"
"image-keyboard-response","472","582550","0.0-4.0-2.150","4","Low_HMMActual","null","","","","Images/BlackBeadChoiceCorrect.png","null"
"image-keyboard-response","473","582814","0.0-4.0-0.151","4","Low_HMMActual","261.71999995131046","","","","Images/NewTrialBC.png","37"
"image-keyboard-response","474","583218","0.0-4.0-1.151","4","Low_HMMActual","null","","","","Images/BlackBeadChoice.png","null"
"image-keyboard-response","475","583920","0.0-4.0-2.151","4","Low_HMMActual","null","","","","Images/BlackBeadChoiceCorrect.png","null"
"image-keyboard-response","476","584479","0.0-4.0-0.152","4","Low_HMMActual","556.6649999818765","","","","Images/NewTrialBC.png","37"
"image-keyboard-response","477","584881","0.0-4.0-1.152","4","Low_HMMActual","null","","","","Images/BlackBeadChoice.png","null"
"image-keyboard-response","478","585583","0.0-4.0-2.152","4","Low_HMMActual","null","","","","Images/BlackBeadChoiceCorrect.png","null"
"image-keyboard-response","479","585814","0.0-4.0-0.153","4","Low_HMMActual","228.66500000236556","","","","Images/NewTrialBC.png","37"
"image-keyboard-response","480","586216","0.0-4.0-1.153","4","Low_HMMActual","null","","","","Images/BlackBeadChoice.png","null"
"image-keyboard-response","481","586918","0.0-4.0-2.153","4","Low_HMMActual","null","","","","Images/BlackBeadChoiceCorrect.png","null"
"image-keyboard-response","482","587166","0.0-4.0-0.154","4","Low_HMMActual","246.0549999959767","","","","Images/NewTrialBC.png","37"
"image-keyboard-response","483","587568","0.0-4.0-1.154","4","Low_HMMActual","null","","","","Images/BlackBeadChoice.png","null"
"image-keyboard-response","484","588270","0.0-4.0-2.154","4","Low_HMMActual","null","","","","Images/BlackBeadChoiceCorrect.png","null"
"image-keyboard-response","485","588622","0.0-4.0-0.155","4","Low_HMMActual","349.86999997636303","","","","Images/NewTrialBC.png","37"
"image-keyboard-response","486","589024","0.0-4.0-1.155","4","Low_HMMActual","null","","","","Images/BlackBeadChoice.png","null"
"image-keyboard-response","487","589727","0.0-4.0-2.155","4","Low_HMMActual","null","","","","Images/BlackBeadChoiceCorrect.png","null"
"image-keyboard-response","488","590398","0.0-4.0-0.156","4","Low_HMMActual","669.0550000057556","","","","Images/NewTrialBC.png","37"
"image-keyboard-response","489","590802","0.0-4.0-1.156","4","Low_HMMActual","null","","","","Images/BlackBeadChoice.png","null"
"image-keyboard-response","490","591505","0.0-4.0-2.156","4","Low_HMMActual","null","","","","Images/BlackBeadChoiceCorrect.png","null"
"image-keyboard-response","491","591814","0.0-4.0-0.157","4","Low_HMMActual","307.38499999279156","","","","Images/NewTrialBC.png","37"
"image-keyboard-response","492","592216","0.0-4.0-1.157","4","Low_HMMActual","null","","","","Images/BlackBeadChoice.png","null"
"image-keyboard-response","493","592919","0.0-4.0-2.157","4","Low_HMMActual","null","","","","Images/BlackBeadChoiceCorrect.png","null"
"image-keyboard-response","494","593310","0.0-4.0-0.158","4","Low_HMMActual","389.13999998476356","","","","Images/NewTrialBC.png","37"
"image-keyboard-response","495","593713","0.0-4.0-1.158","4","Low_HMMActual","null","","","","Images/BlackBeadChoice.png","null"
"image-keyboard-response","496","594416","0.0-4.0-2.158","4","Low_HMMActual","null","","","","Images/BlackBeadChoiceCorrect.png","null"
"image-keyboard-response","497","597983","0.0-4.0-0.159","4","Low_HMMActual","3565.085000009276","","","","Images/NewTrialBC.png","37"
"image-keyboard-response","498","598385","0.0-4.0-1.159","4","Low_HMMActual","null","","","","Images/BlackBeadChoice.png","null"
"image-keyboard-response","499","599087","0.0-4.0-2.159","4","Low_HMMActual","null","","","","Images/BlackBeadChoiceCorrect.png","null"
"image-keyboard-response","500","600790","0.0-4.0-0.160","4","Low_HMMActual","1700.8999999961816","","","","Images/NewTrialBC.png","37"
"image-keyboard-response","501","601193","0.0-4.0-1.160","4","Low_HMMActual","null","","","","Images/BlackBeadChoice.png","null"
"image-keyboard-response","502","601896","0.0-4.0-2.160","4","Low_HMMActual","null","","","","Images/BlackBeadChoiceCorrect.png","null"
"image-keyboard-response","503","602374","0.0-4.0-0.161","4","Low_HMMActual","476.51999996742234","","","","Images/NewTrialBC.png","37"
"image-keyboard-response","504","602777","0.0-4.0-1.161","4","Low_HMMActual","null","","","","Images/BlackBeadChoice.png","null"
"image-keyboard-response","505","603480","0.0-4.0-2.161","4","Low_HMMActual","null","","","","Images/BlackBeadChoiceCorrect.png","null"
"image-keyboard-response","506","608006","0.0-4.0-0.162","4","Low_HMMActual","4523.194999957923","","","","Images/NewTrialBC.png","37"
"image-keyboard-response","507","608409","0.0-4.0-1.162","4","Low_HMMActual","null","","","","Images/BlackBeadChoice.png","null"
"image-keyboard-response","508","609113","0.0-4.0-2.162","4","Low_HMMActual","null","","","","Images/BlackBeadChoiceCorrect.png","null"
"image-keyboard-response","509","609414","0.0-4.0-0.163","4","Low_HMMActual","299.5249999803491","","","","Images/NewTrialBC.png","37"
"image-keyboard-response","510","609817","0.0-4.0-1.163","4","Low_HMMActual","null","","","","Images/BlackBeadChoice.png","null"
"image-keyboard-response","511","610520","0.0-4.0-2.163","4","Low_HMMActual","null","","","","Images/BlackBeadChoiceCorrect.png","null"
"image-keyboard-response","512","610846","0.0-4.0-0.164","4","Low_HMMActual","324.46999999228865","","","","Images/NewTrialBC.png","37"
"image-keyboard-response","513","611248","0.0-4.0-1.164","4","Low_HMMActual","null","","","","Images/BlackBeadChoice.png","null"
"image-keyboard-response","514","611950","0.0-4.0-2.164","4","Low_HMMActual","null","","","","Images/BlackBeadChoiceCorrect.png","null"
"image-keyboard-response","515","612486","0.0-4.0-0.165","4","Low_HMMActual","534.3400000128895","","","","Images/NewTrialBC.png","37"
"image-keyboard-response","516","612889","0.0-4.0-1.165","4","Low_HMMActual","null","","","","Images/BlackBeadChoice.png","null"
"image-keyboard-response","517","613593","0.0-4.0-2.165","4","Low_HMMActual","null","","","","Images/BlackBeadChoiceCorrect.png","null"
"image-keyboard-response","518","613847","0.0-4.0-0.166","4","Low_HMMActual","252.14499997673556","","","","Images/NewTrialBC.png","37"
"image-keyboard-response","519","614249","0.0-4.0-1.166","4","Low_HMMActual","null","","","","Images/BlackBeadChoice.png","null"
"image-keyboard-response","520","614951","0.0-4.0-2.166","4","Low_HMMActual","null","","","","Images/BlackBeadChoiceWrong.png","null"
"image-keyboard-response","521","615238","0.0-4.0-0.167","4","Low_HMMActual","285.3499999619089","","","","Images/NewTrialWC.png","37"
"image-keyboard-response","522","615641","0.0-4.0-1.167","4","Low_HMMActual","null","","","","Images/BlackBeadChoice.png","null"
"image-keyboard-response","523","616345","0.0-4.0-2.167","4","Low_HMMActual","null","","","","Images/BlackBeadChoiceCorrect.png","null"
"image-keyboard-response","524","616606","0.0-4.0-0.168","4","Low_HMMActual","259.4350000144914","","","","Images/NewTrialBC.png","37"
"image-keyboard-response","525","617009","0.0-4.0-1.168","4","Low_HMMActual","null","","","","Images/BlackBeadChoice.png","null"
"image-keyboard-response","526","617712","0.0-4.0-2.168","4","Low_HMMActual","null","","","","Images/BlackBeadChoiceCorrect.png","null"
"image-keyboard-response","527","617966","0.0-4.0-0.169","4","Low_HMMActual","251.6400000313297","","","","Images/NewTrialBC.png","37"
"image-keyboard-response","528","618370","0.0-4.0-1.169","4","Low_HMMActual","null","","","","Images/BlackBeadChoice.png","null"
"image-keyboard-response","529","619072","0.0-4.0-2.169","4","Low_HMMActual","null","","","","Images/BlackBeadChoiceWrong.png","null"
"image-keyboard-response","530","619358","0.0-4.0-0.170","4","Low_HMMActual","284.2650000238791","","","","Images/NewTrialWC.png","37"
"image-keyboard-response","531","619761","0.0-4.0-1.170","4","Low_HMMActual","null","","","","Images/BlackBeadChoice.png","null"
"image-keyboard-response","532","620464","0.0-4.0-2.170","4","Low_HMMActual","null","","","","Images/BlackBeadChoiceCorrect.png","null"
"image-keyboard-response","533","620614","0.0-4.0-0.171","4","Low_HMMActual","148.15000002272427","","","","Images/NewTrialBC.png","37"
"image-keyboard-response","534","621018","0.0-4.0-1.171","4","Low_HMMActual","null","","","","Images/BlackBeadChoice.png","null"
"image-keyboard-response","535","621721","0.0-4.0-2.171","4","Low_HMMActual","null","","","","Images/BlackBeadChoiceWrong.png","null"
"image-keyboard-response","536","621990","0.0-4.0-0.172","4","Low_HMMActual","267.39999995334074","","","","Images/NewTrialWC.png","37"
"image-keyboard-response","537","622392","0.0-4.0-1.172","4","Low_HMMActual","null","","","","Images/BlackBeadChoice.png","null"
"image-keyboard-response","538","623094","0.0-4.0-2.172","4","Low_HMMActual","null","","","","Images/BlackBeadChoiceCorrect.png","null"
"image-keyboard-response","539","623334","0.0-4.0-0.173","4","Low_HMMActual","238.0500000435859","","","","Images/NewTrialBC.png","37"
"image-keyboard-response","540","623737","0.0-4.0-1.173","4","Low_HMMActual","null","","","","Images/BlackBeadChoice.png","null"
"image-keyboard-response","541","624439","0.0-4.0-2.173","4","Low_HMMActual","null","","","","Images/BlackBeadChoiceCorrect.png","null"
"image-keyboard-response","542","624663","0.0-4.0-0.174","4","Low_HMMActual","221.30500001367182","","","","Images/NewTrialBC.png","37"
"image-keyboard-response","543","625066","0.0-4.0-1.174","4","Low_HMMActual","null","","","","Images/BlackBeadChoice.png","null"
"image-keyboard-response","544","625769","0.0-4.0-2.174","4","Low_HMMActual","null","","","","Images/BlackBeadChoiceWrong.png","null"
"image-keyboard-response","545","626071","0.0-4.0-0.175","4","Low_HMMActual","299.49000000488013","","","","Images/NewTrialWC.png","37"
"image-keyboard-response","546","626473","0.0-4.0-1.175","4","Low_HMMActual","null","","","","Images/BlackBeadChoice.png","null"
"image-keyboard-response","547","627176","0.0-4.0-2.175","4","Low_HMMActual","null","","","","Images/BlackBeadChoiceCorrect.png","null"
"image-keyboard-response","548","627390","0.0-4.0-0.176","4","Low_HMMActual","211.48499997798353","","","","Images/NewTrialBC.png","37"
"image-keyboard-response","549","627792","0.0-4.0-1.176","4","Low_HMMActual","null","","","","Images/BlackBeadChoice.png","null"
"image-keyboard-response","550","628494","0.0-4.0-2.176","4","Low_HMMActual","null","","","","Images/BlackBeadChoiceWrong.png","null"
"image-keyboard-response","551","628734","0.0-4.0-0.177","4","Low_HMMActual","238.49499999778345","","","","Images/NewTrialWC.png","37"
"image-keyboard-response","552","629136","0.0-4.0-1.177","4","Low_HMMActual","null","","","","Images/BlackBeadChoice.png","null"
"image-keyboard-response","553","629839","0.0-4.0-2.177","4","Low_HMMActual","null","","","","Images/BlackBeadChoiceWrong.png","null"
"image-keyboard-response","554","629894","0.0-4.0-0.178","4","Low_HMMActual","53.09499998111278","","","","Images/NewTrialWC.png","37"
"image-keyboard-response","555","630296","0.0-4.0-1.178","4","Low_HMMActual","null","","","","Images/BlackBeadChoice.png","null"
"image-keyboard-response","556","630999","0.0-4.0-2.178","4","Low_HMMActual","null","","","","Images/BlackBeadChoiceCorrect.png","null"
"image-keyboard-response","557","631094","0.0-4.0-0.179","4","Low_HMMActual","93.30500004580244","","","","Images/NewTrialBC.png","37"
"image-keyboard-response","558","631498","0.0-4.0-1.179","4","Low_HMMActual","null","","","","Images/BlackBeadChoice.png","null"
"image-keyboard-response","559","632200","0.0-4.0-2.179","4","Low_HMMActual","null","","","","Images/BlackBeadChoiceCorrect.png","null"
"image-keyboard-response","560","632446","0.0-4.0-0.180","4","Low_HMMActual","244.330000015907","","","","Images/NewTrialBC.png","37"
"image-keyboard-response","561","632848","0.0-4.0-1.180","4","Low_HMMActual","null","","","","Images/BlackBeadChoice.png","null"
"image-keyboard-response","562","633550","0.0-4.0-2.180","4","Low_HMMActual","null","","","","Images/BlackBeadChoiceCorrect.png","null"
"image-keyboard-response","563","633662","0.0-4.0-0.181","4","Low_HMMActual","109.98499998822808","","","","Images/NewTrialBC.png","37"
"image-keyboard-response","564","634064","0.0-4.0-1.181","4","Low_HMMActual","null","","","","Images/BlackBeadChoice.png","null"
"image-keyboard-response","565","634766","0.0-4.0-2.181","4","Low_HMMActual","null","","","","Images/BlackBeadChoiceWrong.png","null"
"image-keyboard-response","566","634815","0.0-4.0-0.182","4","Low_HMMActual","46.77000001538545","","","","Images/NewTrialWC.png","37"
"image-keyboard-response","567","635219","0.0-4.0-1.182","4","Low_HMMActual","null","","","","Images/BlackBeadChoice.png","null"
"image-keyboard-response","568","635922","0.0-4.0-2.182","4","Low_HMMActual","null","","","","Images/BlackBeadChoiceCorrect.png","null"
"image-keyboard-response","569","636302","0.0-4.0-0.183","4","Low_HMMActual","378.1699999817647","","","","Images/NewTrialBC.png","37"
"image-keyboard-response","570","636706","0.0-4.0-1.183","4","Low_HMMActual","null","","","","Images/BlackBeadChoice.png","null"
"image-keyboard-response","571","637409","0.0-4.0-2.183","4","Low_HMMActual","null","","","","Images/BlackBeadChoiceCorrect.png","null"
"image-keyboard-response","572","637598","0.0-4.0-0.184","4","Low_HMMActual","187.34000000404194","","","","Images/NewTrialBC.png","37"
"image-keyboard-response","573","638000","0.0-4.0-1.184","4","Low_HMMActual","null","","","","Images/BlackBeadChoice.png","null"
"image-keyboard-response","574","638703","0.0-4.0-2.184","4","Low_HMMActual","null","","","","Images/BlackBeadChoiceCorrect.png","null"
"image-keyboard-response","575","638878","0.0-4.0-0.185","4","Low_HMMActual","172.81999997794628","","","","Images/NewTrialBC.png","37"
"image-keyboard-response","576","639280","0.0-4.0-1.185","4","Low_HMMActual","null","","","","Images/BlackBeadChoice.png","null"
"image-keyboard-response","577","639982","0.0-4.0-2.185","4","Low_HMMActual","null","","","","Images/BlackBeadChoiceCorrect.png","null"
"image-keyboard-response","578","640134","0.0-4.0-0.186","4","Low_HMMActual","150.28000000165775","","","","Images/NewTrialBC.png","37"
"image-keyboard-response","579","640536","0.0-4.0-1.186","4","Low_HMMActual","null","","","","Images/BlackBeadChoice.png","null"
"image-keyboard-response","580","641239","0.0-4.0-2.186","4","Low_HMMActual","null","","","","Images/BlackBeadChoiceCorrect.png","null"
"image-keyboard-response","581","641334","0.0-4.0-0.187","4","Low_HMMActual","93.46499998355284","","","","Images/NewTrialBC.png","37"
"image-keyboard-response","582","641737","0.0-4.0-1.187","4","Low_HMMActual","null","","","","Images/BlackBeadChoice.png","null"
"image-keyboard-response","583","642440","0.0-4.0-2.187","4","Low_HMMActual","658.6150000221096","","","","Images/BlackBeadChoiceWrong.png","37"
"image-keyboard-response","584","643078","0.0-4.0-0.188","4","Low_HMMActual","636.1850000103004","","","","Images/NewTrialWC.png","37"
"image-keyboard-response","585","643482","0.0-4.0-1.188","4","Low_HMMActual","null","","","","Images/BlackBeadChoice.png","null"
"image-keyboard-response","586","644185","0.0-4.0-2.188","4","Low_HMMActual","null","","","","Images/BlackBeadChoiceCorrect.png","null"
"image-keyboard-response","587","644222","0.0-4.0-0.189","4","Low_HMMActual","35.499999998137355","","","","Images/NewTrialBC.png","37"
"image-keyboard-response","588","644625","0.0-4.0-1.189","4","Low_HMMActual","null","","","","Images/BlackBeadChoice.png","null"
"image-keyboard-response","589","645328","0.0-4.0-2.189","4","Low_HMMActual","null","","","","Images/BlackBeadChoiceCorrect.png","null"
"image-keyboard-response","590","645455","0.0-4.0-0.190","4","Low_HMMActual","125.01999997766688","","","","Images/NewTrialBC.png","37"
"image-keyboard-response","591","645857","0.0-4.0-1.190","4","Low_HMMActual","null","","","","Images/BlackBeadChoice.png","null"
"image-keyboard-response","592","646559","0.0-4.0-2.190","4","Low_HMMActual","null","","","","Images/BlackBeadChoiceCorrect.png","null"
"image-keyboard-response","593","646702","0.0-4.0-0.191","4","Low_HMMActual","140.06999996490777","","","","Images/NewTrialBC.png","37"
"image-keyboard-response","594","647105","0.0-4.0-1.191","4","Low_HMMActual","null","","","","Images/BlackBeadChoice.png","null"
"image-keyboard-response","595","647808","0.0-4.0-2.191","4","Low_HMMActual","null","","","","Images/BlackBeadChoiceCorrect.png","null"
"image-keyboard-response","596","648046","0.0-4.0-0.192","4","Low_HMMActual","236.24499997822568","","","","Images/NewTrialBC.png","37"
"image-keyboard-response","597","648449","0.0-4.0-1.192","4","Low_HMMActual","null","","","","Images/BlackBeadChoice.png","null"
"image-keyboard-response","598","649151","0.0-4.0-2.192","4","Low_HMMActual","null","","","","Images/BlackBeadChoiceCorrect.png","null"
"image-keyboard-response","599","649352","0.0-4.0-0.193","4","Low_HMMActual","197.9000000283122","","","","Images/NewTrialBC.png","37"
"image-keyboard-response","600","649755","0.0-4.0-1.193","4","Low_HMMActual","null","","","","Images/BlackBeadChoice.png","null"
"image-keyboard-response","601","650457","0.0-4.0-2.193","4","Low_HMMActual","null","","","","Images/BlackBeadChoiceCorrect.png","null"
"image-keyboard-response","602","650670","0.0-4.0-0.194","4","Low_HMMActual","211.22499997727573","","","","Images/NewTrialBC.png","37"
"image-keyboard-response","603","651072","0.0-4.0-1.194","4","Low_HMMActual","null","","","","Images/BlackBeadChoice.png","null"
"image-keyboard-response","604","651775","0.0-4.0-2.194","4","Low_HMMActual","null","","","","Images/BlackBeadChoiceWrong.png","null"
"image-keyboard-response","605","652022","0.0-4.0-0.195","4","Low_HMMActual","244.83999999938533","","","","Images/NewTrialWC.png","37"
"image-keyboard-response","606","652426","0.0-4.0-1.195","4","Low_HMMActual","null","","","","Images/BlackBeadChoice.png","null"
"image-keyboard-response","607","653128","0.0-4.0-2.195","4","Low_HMMActual","null","","","","Images/BlackBeadChoiceWrong.png","null"
"image-keyboard-response","608","653262","0.0-4.0-0.196","4","Low_HMMActual","132.3199999751523","","","","Images/NewTrialWC.png","37"
"image-keyboard-response","609","653665","0.0-4.0-1.196","4","Low_HMMActual","null","","","","Images/BlackBeadChoice.png","null"
"image-keyboard-response","610","654368","0.0-4.0-2.196","4","Low_HMMActual","null","","","","Images/BlackBeadChoiceCorrect.png","null"
"image-keyboard-response","611","654486","0.0-4.0-0.197","4","Low_HMMActual","116.6850000154227","","","","Images/NewTrialBC.png","37"
"image-keyboard-response","612","654889","0.0-4.0-1.197","4","Low_HMMActual","null","","","","Images/BlackBeadChoice.png","null"
"image-keyboard-response","613","655591","0.0-4.0-2.197","4","Low_HMMActual","null","","","","Images/BlackBeadChoiceWrong.png","null"
"image-keyboard-response","614","656991","0.0-4.0-0.198","4","Low_HMMActual","1397.6249999832362","","","","Images/NewTrialWC.png","39"
"image-keyboard-response","615","657394","0.0-4.0-1.198","4","Low_HMMActual","null","","","","Images/WhiteBeadChoice.png","null"
"image-keyboard-response","616","658098","0.0-4.0-2.198","4","Low_HMMActual","null","","","","Images/WhiteBeadChoiceCorrect.png","null"
"image-keyboard-response","617","658446","0.0-4.0-0.199","4","Low_HMMActual","346.7200000304729","","","","Images/NewTrialWC.png","39"
"image-keyboard-response","618","658849","0.0-4.0-1.199","4","Low_HMMActual","null","","","","Images/WhiteBeadChoice.png","null"
"image-keyboard-response","619","659553","0.0-4.0-2.199","4","Low_HMMActual","null","","","","Images/WhiteBeadChoiceWrong.png","null"
"image-keyboard-response","620","661054","0.0-4.0-0.200","4","Low_HMMActual","1499.6749999700114","","","","Images/NewTrialBC.png","37"
"image-keyboard-response","621","661457","0.0-4.0-1.200","4","Low_HMMActual","null","","","","Images/BlackBeadChoice.png","null"
"image-keyboard-response","622","662161","0.0-4.0-2.200","4","Low_HMMActual","null","","","","Images/BlackBeadChoiceCorrect.png","null"
"image-keyboard-response","623","662406","0.0-4.0-0.201","4","Low_HMMActual","243.4000000357628","","","","Images/NewTrialBC.png","37"
"image-keyboard-response","624","662808","0.0-4.0-1.201","4","Low_HMMActual","null","","","","Images/BlackBeadChoice.png","null"
"image-keyboard-response","625","663510","0.0-4.0-2.201","4","Low_HMMActual","null","","","","Images/BlackBeadChoiceCorrect.png","null"
"image-keyboard-response","626","663654","0.0-4.0-0.202","4","Low_HMMActual","142.1449999907054","","","","Images/NewTrialBC.png","37"
"image-keyboard-response","627","664057","0.0-4.0-1.202","4","Low_HMMActual","null","","","","Images/BlackBeadChoice.png","null"
"image-keyboard-response","628","664759","0.0-4.0-2.202","4","Low_HMMActual","null","","","","Images/BlackBeadChoiceCorrect.png","null"
"image-keyboard-response","629","664919","0.0-4.0-0.203","4","Low_HMMActual","158.0750000430271","","","","Images/NewTrialBC.png","37"
"image-keyboard-response","630","665322","0.0-4.0-1.203","4","Low_HMMActual","null","","","","Images/BlackBeadChoice.png","null"
"image-keyboard-response","631","666024","0.0-4.0-2.203","4","Low_HMMActual","null","","","","Images/BlackBeadChoiceCorrect.png","null"
"image-keyboard-response","632","666326","0.0-4.0-0.204","4","Low_HMMActual","299.80000003706664","","","","Images/NewTrialBC.png","37"
"image-keyboard-response","633","666729","0.0-4.0-1.204","4","Low_HMMActual","null","","","","Images/BlackBeadChoice.png","null"
"image-keyboard-response","634","667432","0.0-4.0-2.204","4","Low_HMMActual","null","","","","Images/BlackBeadChoiceCorrect.png","null"
"image-keyboard-response","635","667591","0.0-4.0-0.205","4","Low_HMMActual","156.4350000116974","","","","Images/NewTrialBC.png","37"
"image-keyboard-response","636","667993","0.0-4.0-1.205","4","Low_HMMActual","null","","","","Images/BlackBeadChoice.png","null"
"image-keyboard-response","637","668695","0.0-4.0-2.205","4","Low_HMMActual","null","","","","Images/BlackBeadChoiceCorrect.png","null"
"image-keyboard-response","638","668950","0.0-4.0-0.206","4","Low_HMMActual","252.84999998984858","","","","Images/NewTrialBC.png","37"
"image-keyboard-response","639","669353","0.0-4.0-1.206","4","Low_HMMActual","null","","","","Images/BlackBeadChoice.png","null"
"image-keyboard-response","640","670056","0.0-4.0-2.206","4","Low_HMMActual","null","","","","Images/BlackBeadChoiceCorrect.png","null"
"image-keyboard-response","641","670142","0.0-4.0-0.207","4","Low_HMMActual","84.61499999975786","","","","Images/NewTrialBC.png","37"
"image-keyboard-response","642","670544","0.0-4.0-1.207","4","Low_HMMActual","null","","","","Images/BlackBeadChoice.png","null"
"image-keyboard-response","643","671246","0.0-4.0-2.207","4","Low_HMMActual","null","","","","Images/BlackBeadChoiceCorrect.png","null"
"image-keyboard-response","644","680847","0.0-4.0-0.208","4","Low_HMMActual","9598.45500002848","","","","Images/NewTrialBC.png","37"
"image-keyboard-response","645","681251","0.0-4.0-1.208","4","Low_HMMActual","null","","","","Images/BlackBeadChoice.png","null"
"image-keyboard-response","646","681954","0.0-4.0-2.208","4","Low_HMMActual","null","","","","Images/BlackBeadChoiceWrong.png","null"
"image-keyboard-response","647","682246","0.0-4.0-0.209","4","Low_HMMActual","290.5350000364706","","","","Images/NewTrialWC.png","37"
"image-keyboard-response","648","682648","0.0-4.0-1.209","4","Low_HMMActual","null","","","","Images/BlackBeadChoice.png","null"
"image-keyboard-response","649","683351","0.0-4.0-2.209","4","Low_HMMActual","null","","","","Images/BlackBeadChoiceCorrect.png","null"
"image-keyboard-response","650","683414","0.0-4.0-0.210","4","Low_HMMActual","61.13499996718019","","","","Images/NewTrialBC.png","37"
"image-keyboard-response","651","683816","0.0-4.0-1.210","4","Low_HMMActual","null","","","","Images/BlackBeadChoice.png","null"
"image-keyboard-response","652","684519","0.0-4.0-2.210","4","Low_HMMActual","null","","","","Images/BlackBeadChoiceWrong.png","null"
"image-keyboard-response","653","684566","0.0-4.0-0.211","4","Low_HMMActual","45.38500000489876","","","","Images/NewTrialWC.png","37"
"image-keyboard-response","654","684969","0.0-4.0-1.211","4","Low_HMMActual","null","","","","Images/BlackBeadChoice.png","null"
"image-keyboard-response","655","685672","0.0-4.0-2.211","4","Low_HMMActual","667.734999966342","","","","Images/BlackBeadChoiceCorrect.png","37"
"image-keyboard-response","656","686190","0.0-4.0-0.212","4","Low_HMMActual","516.509999986738","","","","Images/NewTrialBC.png","37"
"image-keyboard-response","657","686593","0.0-4.0-1.212","4","Low_HMMActual","null","","","","Images/BlackBeadChoice.png","null"
"image-keyboard-response","658","687296","0.0-4.0-2.212","4","Low_HMMActual","null","","","","Images/BlackBeadChoiceWrong.png","null"
"image-keyboard-response","659","687878","0.0-4.0-0.213","4","Low_HMMActual","579.7550000133924","","","","Images/NewTrialWC.png","39"
"image-keyboard-response","660","688282","0.0-4.0-1.213","4","Low_HMMActual","null","","","","Images/WhiteBeadChoice.png","null"
"image-keyboard-response","661","688985","0.0-4.0-2.213","4","Low_HMMActual","null","","","","Images/WhiteBeadChoiceWrong.png","null"
"image-keyboard-response","662","689526","0.0-4.0-0.214","4","Low_HMMActual","539.3199999816716","","","","Images/NewTrialBC.png","39"
"image-keyboard-response","663","689928","0.0-4.0-1.214","4","Low_HMMActual","null","","","","Images/WhiteBeadChoice.png","null"
"image-keyboard-response","664","690630","0.0-4.0-2.214","4","Low_HMMActual","660.0849999813363","","","","Images/WhiteBeadChoiceWrong.png","37"
"image-keyboard-response","665","691063","0.0-4.0-0.215","4","Low_HMMActual","430.3199999849312","","","","Images/NewTrialBC.png","37"
"image-keyboard-response","666","691465","0.0-4.0-1.215","4","Low_HMMActual","null","","","","Images/BlackBeadChoice.png","null"
"image-keyboard-response","667","692167","0.0-4.0-2.215","4","Low_HMMActual","null","","","","Images/BlackBeadChoiceCorrect.png","null"
"image-keyboard-response","668","692342","0.0-4.0-0.216","4","Low_HMMActual","172.68499999772757","","","","Images/NewTrialBC.png","37"
"image-keyboard-response","669","692746","0.0-4.0-1.216","4","Low_HMMActual","null","","","","Images/BlackBeadChoice.png","null"
"image-keyboard-response","670","693448","0.0-4.0-2.216","4","Low_HMMActual","null","","","","Images/BlackBeadChoiceCorrect.png","null"
"image-keyboard-response","671","693646","0.0-4.0-0.217","4","Low_HMMActual","196.18999998783693","","","","Images/NewTrialBC.png","37"
"image-keyboard-response","672","694048","0.0-4.0-1.217","4","Low_HMMActual","null","","","","Images/BlackBeadChoice.png","null"
"image-keyboard-response","673","694750","0.0-4.0-2.217","4","Low_HMMActual","null","","","","Images/BlackBeadChoiceCorrect.png","null"
"image-keyboard-response","674","695006","0.0-4.0-0.218","4","Low_HMMActual","253.6250000121072","","","","Images/NewTrialBC.png","37"
"image-keyboard-response","675","695408","0.0-4.0-1.218","4","Low_HMMActual","null","","","","Images/BlackBeadChoice.png","null"
"image-keyboard-response","676","696109","0.0-4.0-2.218","4","Low_HMMActual","null","","","","Images/BlackBeadChoiceCorrect.png","null"
"image-keyboard-response","677","696478","0.0-4.0-0.219","4","Low_HMMActual","367.2099999967031","","","","Images/NewTrialBC.png","37"
"image-keyboard-response","678","696881","0.0-4.0-1.219","4","Low_HMMActual","null","","","","Images/BlackBeadChoice.png","null"
"image-keyboard-response","679","697584","0.0-4.0-2.219","4","Low_HMMActual","null","","","","Images/BlackBeadChoiceCorrect.png","null"
"image-keyboard-response","680","698310","0.0-4.0-0.220","4","Low_HMMActual","724.2799999658018","","","","Images/NewTrialBC.png","37"
"image-keyboard-response","681","698713","0.0-4.0-1.220","4","Low_HMMActual","null","","","","Images/BlackBeadChoice.png","null"
"image-keyboard-response","682","699416","0.0-4.0-2.220","4","Low_HMMActual","null","","","","Images/BlackBeadChoiceCorrect.png","null"
"image-keyboard-response","683","699742","0.0-4.0-0.221","4","Low_HMMActual","325.64000005368143","","","","Images/NewTrialBC.png","37"
"image-keyboard-response","684","700144","0.0-4.0-1.221","4","Low_HMMActual","null","","","","Images/BlackBeadChoice.png","null"
"image-keyboard-response","685","700847","0.0-4.0-2.221","4","Low_HMMActual","null","","","","Images/BlackBeadChoiceCorrect.png","null"
"image-keyboard-response","686","701191","0.0-4.0-0.222","4","Low_HMMActual","341.7749999789521","","","","Images/NewTrialBC.png","37"
"image-keyboard-response","687","701593","0.0-4.0-1.222","4","Low_HMMActual","null","","","","Images/BlackBeadChoice.png","null"
"image-keyboard-response","688","702296","0.0-4.0-2.222","4","Low_HMMActual","null","","","","Images/BlackBeadChoiceWrong.png","null"
"image-keyboard-response","689","702630","0.0-4.0-0.223","4","Low_HMMActual","331.77500002784654","","","","Images/NewTrialWC.png","37"
"image-keyboard-response","690","703032","0.0-4.0-1.223","4","Low_HMMActual","null","","","","Images/BlackBeadChoice.png","null"
"image-keyboard-response","691","703735","0.0-4.0-2.223","4","Low_HMMActual","null","","","","Images/BlackBeadChoiceCorrect.png","null"
"image-keyboard-response","692","704014","0.0-4.0-0.224","4","Low_HMMActual","276.6449999762699","","","","Images/NewTrialBC.png","37"
"image-keyboard-response","693","704418","0.0-4.0-1.224","4","Low_HMMActual","null","","","","Images/BlackBeadChoice.png","null"
"image-keyboard-response","694","705120","0.0-4.0-2.224","4","Low_HMMActual","null","","","","Images/BlackBeadChoiceCorrect.png","null"
"image-keyboard-response","695","705422","0.0-4.0-0.225","4","Low_HMMActual","300.2449999912642","","","","Images/NewTrialBC.png","37"
"image-keyboard-response","696","705824","0.0-4.0-1.225","4","Low_HMMActual","null","","","","Images/BlackBeadChoice.png","null"
"image-keyboard-response","697","706527","0.0-4.0-2.225","4","Low_HMMActual","null","","","","Images/BlackBeadChoiceWrong.png","null"
"image-keyboard-response","698","706918","0.0-4.0-0.226","4","Low_HMMActual","389.15000000270084","","","","Images/NewTrialWC.png","37"
"image-keyboard-response","699","707321","0.0-4.0-1.226","4","Low_HMMActual","null","","","","Images/BlackBeadChoice.png","null"
"image-keyboard-response","700","708024","0.0-4.0-2.226","4","Low_HMMActual","null","","","","Images/BlackBeadChoiceCorrect.png","null"
"image-keyboard-response","701","708270","0.0-4.0-0.227","4","Low_HMMActual","244.04499999945983","","","","Images/NewTrialBC.png","37"
"image-keyboard-response","702","708672","0.0-4.0-1.227","4","Low_HMMActual","null","","","","Images/BlackBeadChoice.png","null"
"image-keyboard-response","703","709374","0.0-4.0-2.227","4","Low_HMMActual","null","","","","Images/BlackBeadChoiceCorrect.png","null"
"image-keyboard-response","704","709862","0.0-4.0-0.228","4","Low_HMMActual","486.73499998403713","","","","Images/NewTrialBC.png","37"
"image-keyboard-response","705","710264","0.0-4.0-1.228","4","Low_HMMActual","null","","","","Images/BlackBeadChoice.png","null"
"image-keyboard-response","706","710967","0.0-4.0-2.228","4","Low_HMMActual","null","","","","Images/BlackBeadChoiceWrong.png","null"
"image-keyboard-response","707","711327","0.0-4.0-0.229","4","Low_HMMActual","357.56500001298264","","","","Images/NewTrialWC.png","37"
"image-keyboard-response","708","711729","0.0-4.0-1.229","4","Low_HMMActual","null","","","","Images/BlackBeadChoice.png","null"
"image-keyboard-response","709","712432","0.0-4.0-2.229","4","Low_HMMActual","null","","","","Images/BlackBeadChoiceCorrect.png","null"
"image-keyboard-response","710","712790","0.0-4.0-0.230","4","Low_HMMActual","355.70499999448657","","","","Images/NewTrialBC.png","37"
"image-keyboard-response","711","713192","0.0-4.0-1.230","4","Low_HMMActual","null","","","","Images/BlackBeadChoice.png","null"
"image-keyboard-response","712","713895","0.0-4.0-2.230","4","Low_HMMActual","null","","","","Images/BlackBeadChoiceWrong.png","null"
"image-keyboard-response","713","714246","0.0-4.0-0.231","4","Low_HMMActual","348.98000000976026","","","","Images/NewTrialWC.png","37"
"image-keyboard-response","714","714648","0.0-4.0-1.231","4","Low_HMMActual","null","","","","Images/BlackBeadChoice.png","null"
"image-keyboard-response","715","715351","0.0-4.0-2.231","4","Low_HMMActual","null","","","","Images/BlackBeadChoiceCorrect.png","null"
"image-keyboard-response","716","715582","0.0-4.0-0.232","4","Low_HMMActual","228.75000000931323","","","","Images/NewTrialBC.png","37"
"image-keyboard-response","717","715986","0.0-4.0-1.232","4","Low_HMMActual","null","","","","Images/BlackBeadChoice.png","null"
"image-keyboard-response","718","716688","0.0-4.0-2.232","4","Low_HMMActual","null","","","","Images/BlackBeadChoiceWrong.png","null"
"image-keyboard-response","719","719110","0.0-4.0-0.233","4","Low_HMMActual","2420.3449999913573","","","","Images/NewTrialWC.png","39"
"image-keyboard-response","720","719512","0.0-4.0-1.233","4","Low_HMMActual","null","","","","Images/WhiteBeadChoice.png","null"
"image-keyboard-response","721","720215","0.0-4.0-2.233","4","Low_HMMActual","null","","","","Images/WhiteBeadChoiceWrong.png","null"
"image-keyboard-response","722","720614","0.0-4.0-0.234","4","Low_HMMActual","396.7450000345707","","","","Images/NewTrialBC.png","37"
"image-keyboard-response","723","721017","0.0-4.0-1.234","4","Low_HMMActual","null","","","","Images/BlackBeadChoice.png","null"
"image-keyboard-response","724","721720","0.0-4.0-2.234","4","Low_HMMActual","null","","","","Images/BlackBeadChoiceCorrect.png","null"
"image-keyboard-response","725","721983","0.0-4.0-0.235","4","Low_HMMActual","260.3250000393018","","","","Images/NewTrialBC.png","37"
"image-keyboard-response","726","722385","0.0-4.0-1.235","4","Low_HMMActual","null","","","","Images/BlackBeadChoice.png","null"
