"trial_type","trial_index","time_elapsed","internal_node_id","Script_Picker","Block_Type","rt","url","responses","question_order","stimulus","key_press"
"pavlovia","0","4","0.0-0.0","17","Low_HMMActual","","","","","",""
"external-html","1","3400","0.0-1.0-0.0","17","Low_HMMActual","3254.659999976866","consent.html","","","",""
"survey-multi-choice","2","8544","0.0-1.0-1.0","17","Low_HMMActual","5140.849999967031","","{""Q0"":""Male"",""Q1"":""White""}","[0,1]","",""
"survey-text","3","11665","0.0-1.0-2.0","17","Low_HMMActual","3117.2750000841916","","{""Q0"":""28""}","","",""
"survey-text","4","18551","0.0-1.0-3.0","17","Low_HMMActual","6782.245000009425","","{""Q0"":""5bd283469afb5b00015bdd5a""}","","",""
"html-keyboard-response","5","30353","0.0-2.0-0.0","17","Low_HMMActual","11700.470000039786","","","","<div class=""container"" style=""height:800px;width:800px;display:flex;flex-direction:column;justify-content:center;align-items:center;text-align:center;font-weight:normal;font-family:Arial;font-size:20px""><p>In this task you will see black or white beads being pulled from jars. <br><br>On each trial, a bead will be pulled from one of two jars. Once you see this bead, your goal is to predict the color of NEXT bead that will be pulled. <br> <br>Every time you correctly guess the color of the NEXT bead, you will get a point. <br><br>Press the SPACEBAR to continue.</p><div>","32"
"html-keyboard-response","6","38213","0.0-2.0-1.0","17","Low_HMMActual","7859.2850000131875","","","","<div class=""container"" style=""height:800px;width:800px;display:flex;flex-direction:column;justify-content:center;align-items:center;text-align:center;font-weight:normal;font-family:Arial;font-size:20px""><p>Jars are filled with 85% white or black beads and 15% of the opposite color mixed in<br><br>Press the SPACEBAR to continue. </p><div>","32"
"image-keyboard-response","7","46284","0.0-2.0-2.0","17","Low_HMMActual","8069.750000024214","","","","resources/WhiteJar_HMM.png","32"
"image-keyboard-response","8","48628","0.0-2.0-3.0","17","Low_HMMActual","2343.819999950938","","","","resources/BlackJar_HMM.png","32"
"html-keyboard-response","9","52502","0.0-2.0-4.0","17","Low_HMMActual","3873.410000000149","","","","<div class=""container"" style=""height:800px;width:800px;display:flex;flex-direction:column;justify-content:center;align-items:center;text-align:center;font-weight:normal;font-family:Arial;font-size:20px""><p>There will be two blocks of trials. Each block will contain 500 trials. <br><br>Here are examples of what you will see on each trial.<br><br>Press the SPACEBAR to continue. </p><div>","32"
"image-keyboard-response","10","57938","0.0-2.0-5.0","17","Low_HMMActual","5434.149999986403","","","","Images/NoChoice.png","32"
"html-keyboard-response","11","76526","0.0-2.0-6.0","17","Low_HMMActual","18587.15499995742","","","","<div class=""container"" style=""height:800px;width:800px;display:flex;flex-direction:column;justify-content:center;align-items:center;text-align:center;font-weight:normal;font-family:Arial;font-size:20px""><p> The jar the beads are pulled from is NOT choosen at random on each trial.<br><br>After each prediction, there will be a chance that the jars will switch, and that the next bead will be pulled from the opposite jar as the previous trial.<br><br>In each block, the chance that a jar will switch will either be LOW (the jars will not switch very often), or HIGH (the jars will switch almost all the time).<br><br>At the start of each block, you will be told the probability that the jars will switch on each trial. This switch probability will stay constant throughout the block.<br><br>Press the SPACEBAR to continue. </p><div>","32"
"image-keyboard-response","12","90781","0.0-2.0-7.0","17","Low_HMMActual","14253.729999996722","","","","Images/TutorialWhiteJarDrawHMMC.png","32"
"image-keyboard-response","13","97187","0.0-2.0-8.0","17","Low_HMMActual","6404.974999953993","","","","Images/TutorialBlackJarDrawHMMC.png","32"
"image-keyboard-response","14","99851","0.0-2.0-9.0","17","Low_HMMActual","2662.460000021383","","","","Images/TutorialBlackJarDrawHMMI.png","32"
"html-keyboard-response","15","104992","0.0-2.0-10.0","17","Low_HMMActual","5140.08499996271","","","","<div class=""container"" style=""height:800px;width:800px;display:flex;flex-direction:column;justify-content:center;align-items:center;text-align:center;font-weight:normal;font-family:Arial;font-size:20px""><p> As you observed, a white bead was pulled from a 85% white jar, the jars switched and a black bead was pulled from the 85% black jar, but then low-probability white bead was pulled from the 90% black jar. <br><br>In these mixed-jar blocks, you will first have to figure out which jar the current bead was pulled from, then use the jar switch probability to predict the color of the next bead.<br><br>Press SPACEBAR to conitnue.</p><div>","32"
"html-keyboard-response","16","106687","0.0-2.0-11.0","17","Low_HMMActual","1693.9500001026317","","","","<div class=""container"" style=""height:800px;width:800px;display:flex;flex-direction:column;justify-content:center;align-items:center;text-align:center;font-weight:normal;font-family:Arial;font-size:20px""><p> You will now be given a 2 question quiz to make sure you understand the fundamentals. </p><div>","32"
"image-keyboard-response","17","116132","0.0-2.0-12.0","17","Low_HMMActual","9443.360000033863","","","","Images/TutorialQuestion1.png","39"
"image-keyboard-response","18","124573","0.0-2.0-13.0","17","Low_HMMActual","5160.23999999743","","","","Images/TutorialQuestion2.png","38"
"html-keyboard-response","19","135223","0.0-3.0","17","Low_HMMActual","8576.705000014044","","","","<div class=""container"" style=""height:800px;width:800px;display:flex;flex-direction:column;justify-content:center;align-items:center;text-align:center;font-weight:normal;font-family:Arial;font-size:20px""><p>Loading episode&hellip;</p><div>","32"
"image-keyboard-response","20","139581","0.0-4.0-0.0","17","Low_HMMActual","4356.195000000298","","","","Images/NoChoice.png","37"
"image-keyboard-response","21","139833","0.0-4.0-1.0","17","Low_HMMActual","null","","","","Images/BlackBeadChoice.png","null"
"image-keyboard-response","22","140334","0.0-4.0-2.0","17","Low_HMMActual","null","","","","Images/BlackBeadChoiceWrong.png","null"
"image-keyboard-response","23","144273","0.0-4.0-0.1","17","Low_HMMActual","3937.735000043176","","","","Images/NewTrialWC.png","39"
"image-keyboard-response","24","144524","0.0-4.0-1.1","17","Low_HMMActual","null","","","","Images/WhiteBeadChoice.png","null"
"image-keyboard-response","25","145026","0.0-4.0-2.1","17","Low_HMMActual","null","","","","Images/WhiteBeadChoiceCorrect.png","null"
"image-keyboard-response","26","145748","0.0-4.0-0.2","17","Low_HMMActual","720.3250000020489","","","","Images/NewTrialWC.png","39"
"image-keyboard-response","27","145999","0.0-4.0-1.2","17","Low_HMMActual","null","","","","Images/WhiteBeadChoice.png","null"
"image-keyboard-response","28","146501","0.0-4.0-2.2","17","Low_HMMActual","null","","","","Images/WhiteBeadChoiceCorrect.png","null"
"image-keyboard-response","29","147004","0.0-4.0-0.3","17","Low_HMMActual","502.4199999170378","","","","Images/NewTrialWC.png","39"
"image-keyboard-response","30","147256","0.0-4.0-1.3","17","Low_HMMActual","null","","","","Images/WhiteBeadChoice.png","null"
"image-keyboard-response","31","147758","0.0-4.0-2.3","17","Low_HMMActual","null","","","","Images/WhiteBeadChoiceCorrect.png","null"
"image-keyboard-response","32","148233","0.0-4.0-0.4","17","Low_HMMActual","473.5900000669062","","","","Images/NewTrialWC.png","39"
"image-keyboard-response","33","148485","0.0-4.0-1.4","17","Low_HMMActual","null","","","","Images/WhiteBeadChoice.png","null"
"image-keyboard-response","34","148987","0.0-4.0-2.4","17","Low_HMMActual","null","","","","Images/WhiteBeadChoiceWrong.png","null"
"image-keyboard-response","35","150223","0.0-4.0-0.5","17","Low_HMMActual","1234.6550000365824","","","","Images/NewTrialBC.png","37"
"image-keyboard-response","36","150475","0.0-4.0-1.5","17","Low_HMMActual","null","","","","Images/BlackBeadChoice.png","null"
"image-keyboard-response","37","150977","0.0-4.0-2.5","17","Low_HMMActual","null","","","","Images/BlackBeadChoiceWrong.png","null"
"image-keyboard-response","38","151982","0.0-4.0-0.6","17","Low_HMMActual","1003.2950000604615","","","","Images/NewTrialWC.png","39"
"image-keyboard-response","39","152233","0.0-4.0-1.6","17","Low_HMMActual","null","","","","Images/WhiteBeadChoice.png","null"
"image-keyboard-response","40","152735","0.0-4.0-2.6","17","Low_HMMActual","null","","","","Images/WhiteBeadChoiceCorrect.png","null"
"image-keyboard-response","41","153878","0.0-4.0-0.7","17","Low_HMMActual","1142.504999996163","","","","Images/NewTrialWC.png","39"
"image-keyboard-response","42","154130","0.0-4.0-1.7","17","Low_HMMActual","null","","","","Images/WhiteBeadChoice.png","null"
"image-keyboard-response","43","154633","0.0-4.0-2.7","17","Low_HMMActual","null","","","","Images/WhiteBeadChoiceCorrect.png","null"
"image-keyboard-response","44","155101","0.0-4.0-0.8","17","Low_HMMActual","467.6200000103563","","","","Images/NewTrialWC.png","39"
"image-keyboard-response","45","155353","0.0-4.0-1.8","17","Low_HMMActual","null","","","","Images/WhiteBeadChoice.png","null"
"image-keyboard-response","46","155856","0.0-4.0-2.8","17","Low_HMMActual","null","","","","Images/WhiteBeadChoiceCorrect.png","null"
"image-keyboard-response","47","156406","0.0-4.0-0.9","17","Low_HMMActual","549.0399999544024","","","","Images/NewTrialWC.png","39"
"image-keyboard-response","48","156658","0.0-4.0-1.9","17","Low_HMMActual","null","","","","Images/WhiteBeadChoice.png","null"
"image-keyboard-response","49","157161","0.0-4.0-2.9","17","Low_HMMActual","null","","","","Images/WhiteBeadChoiceWrong.png","null"
"image-keyboard-response","50","157545","0.0-4.0-0.10","17","Low_HMMActual","383.2399999955669","","","","Images/NewTrialBC.png","37"
"image-keyboard-response","51","157796","0.0-4.0-1.10","17","Low_HMMActual","null","","","","Images/BlackBeadChoice.png","null"
"image-keyboard-response","52","158299","0.0-4.0-2.10","17","Low_HMMActual","null","","","","Images/BlackBeadChoiceWrong.png","null"
"image-keyboard-response","53","158764","0.0-4.0-0.11","17","Low_HMMActual","464.50000000186265","","","","Images/NewTrialWC.png","39"
"image-keyboard-response","54","159016","0.0-4.0-1.11","17","Low_HMMActual","null","","","","Images/WhiteBeadChoice.png","null"
"image-keyboard-response","55","159518","0.0-4.0-2.11","17","Low_HMMActual","null","","","","Images/WhiteBeadChoiceWrong.png","null"
"image-keyboard-response","56","160698","0.0-4.0-0.12","17","Low_HMMActual","1178.925000014715","","","","Images/NewTrialBC.png","39"
"image-keyboard-response","57","160950","0.0-4.0-1.12","17","Low_HMMActual","null","","","","Images/WhiteBeadChoice.png","null"
"image-keyboard-response","58","161452","0.0-4.0-2.12","17","Low_HMMActual","null","","","","Images/WhiteBeadChoiceWrong.png","null"
"image-keyboard-response","59","162279","0.0-4.0-0.13","17","Low_HMMActual","825.8499999064952","","","","Images/NewTrialBC.png","37"
"image-keyboard-response","60","162530","0.0-4.0-1.13","17","Low_HMMActual","null","","","","Images/BlackBeadChoice.png","null"
"image-keyboard-response","61","163032","0.0-4.0-2.13","17","Low_HMMActual","null","","","","Images/BlackBeadChoiceCorrect.png","null"
"image-keyboard-response","62","163975","0.0-4.0-0.14","17","Low_HMMActual","942.0150000369176","","","","Images/NewTrialBC.png","37"
"image-keyboard-response","63","164228","0.0-4.0-1.14","17","Low_HMMActual","null","","","","Images/BlackBeadChoice.png","null"
"image-keyboard-response","64","164730","0.0-4.0-2.14","17","Low_HMMActual","null","","","","Images/BlackBeadChoiceWrong.png","null"
"image-keyboard-response","65","165706","0.0-4.0-0.15","17","Low_HMMActual","975.3100000089034","","","","Images/NewTrialWC.png","39"
"image-keyboard-response","66","165957","0.0-4.0-1.15","17","Low_HMMActual","null","","","","Images/WhiteBeadChoice.png","null"
"image-keyboard-response","67","166459","0.0-4.0-2.15","17","Low_HMMActual","null","","","","Images/WhiteBeadChoiceWrong.png","null"
"image-keyboard-response","68","166817","0.0-4.0-0.16","17","Low_HMMActual","357.3499999474734","","","","Images/NewTrialBC.png","37"
"image-keyboard-response","69","167071","0.0-4.0-1.16","17","Low_HMMActual","null","","","","Images/BlackBeadChoice.png","null"
"image-keyboard-response","70","167573","0.0-4.0-2.16","17","Low_HMMActual","null","","","","Images/BlackBeadChoiceCorrect.png","null"
"image-keyboard-response","71","167840","0.0-4.0-0.17","17","Low_HMMActual","266.36500004678965","","","","Images/NewTrialBC.png","37"
"image-keyboard-response","72","168092","0.0-4.0-1.17","17","Low_HMMActual","null","","","","Images/BlackBeadChoice.png","null"
"image-keyboard-response","73","168593","0.0-4.0-2.17","17","Low_HMMActual","null","","","","Images/BlackBeadChoiceCorrect.png","null"
"image-keyboard-response","74","168880","0.0-4.0-0.18","17","Low_HMMActual","285.56500002741814","","","","Images/NewTrialBC.png","37"
"image-keyboard-response","75","169131","0.0-4.0-1.18","17","Low_HMMActual","null","","","","Images/BlackBeadChoice.png","null"
"image-keyboard-response","76","169633","0.0-4.0-2.18","17","Low_HMMActual","null","","","","Images/BlackBeadChoiceCorrect.png","null"
"image-keyboard-response","77","169990","0.0-4.0-0.19","17","Low_HMMActual","356.56999994535","","","","Images/NewTrialBC.png","39"
"image-keyboard-response","78","170243","0.0-4.0-1.19","17","Low_HMMActual","null","","","","Images/WhiteBeadChoice.png","null"
"image-keyboard-response","79","170744","0.0-4.0-2.19","17","Low_HMMActual","null","","","","Images/WhiteBeadChoiceWrong.png","null"
"image-keyboard-response","80","171245","0.0-4.0-0.20","17","Low_HMMActual","500.28000003658235","","","","Images/NewTrialBC.png","37"
"image-keyboard-response","81","171496","0.0-4.0-1.20","17","Low_HMMActual","null","","","","Images/BlackBeadChoice.png","null"
"image-keyboard-response","82","171999","0.0-4.0-2.20","17","Low_HMMActual","null","","","","Images/BlackBeadChoiceCorrect.png","null"
"image-keyboard-response","83","172303","0.0-4.0-0.21","17","Low_HMMActual","303.2799999928102","","","","Images/NewTrialBC.png","37"
"image-keyboard-response","84","172554","0.0-4.0-1.21","17","Low_HMMActual","null","","","","Images/BlackBeadChoice.png","null"
"image-keyboard-response","85","173056","0.0-4.0-2.21","17","Low_HMMActual","null","","","","Images/BlackBeadChoiceWrong.png","null"
"image-keyboard-response","86","173319","0.0-4.0-0.22","17","Low_HMMActual","261.17499999236315","","","","Images/NewTrialWC.png","39"
"image-keyboard-response","87","173571","0.0-4.0-1.22","17","Low_HMMActual","null","","","","Images/WhiteBeadChoice.png","null"
"image-keyboard-response","88","174072","0.0-4.0-2.22","17","Low_HMMActual","null","","","","Images/WhiteBeadChoiceWrong.png","null"
"image-keyboard-response","89","174538","0.0-4.0-0.23","17","Low_HMMActual","464.864999987185","","","","Images/NewTrialBC.png","37"
"image-keyboard-response","90","174790","0.0-4.0-1.23","17","Low_HMMActual","null","","","","Images/BlackBeadChoice.png","null"
"image-keyboard-response","91","175292","0.0-4.0-2.23","17","Low_HMMActual","null","","","","Images/BlackBeadChoiceWrong.png","null"
"image-keyboard-response","92","175732","0.0-4.0-0.24","17","Low_HMMActual","438.6950000189245","","","","Images/NewTrialWC.png","39"
"image-keyboard-response","93","175986","0.0-4.0-1.24","17","Low_HMMActual","null","","","","Images/WhiteBeadChoice.png","null"
"image-keyboard-response","94","176487","0.0-4.0-2.24","17","Low_HMMActual","null","","","","Images/WhiteBeadChoiceCorrect.png","null"
"image-keyboard-response","95","176896","0.0-4.0-0.25","17","Low_HMMActual","407.42499998304993","","","","Images/NewTrialWC.png","37"
"image-keyboard-response","96","177147","0.0-4.0-1.25","17","Low_HMMActual","null","","","","Images/BlackBeadChoice.png","null"
"image-keyboard-response","97","177649","0.0-4.0-2.25","17","Low_HMMActual","null","","","","Images/BlackBeadChoiceCorrect.png","null"
"image-keyboard-response","98","178057","0.0-4.0-0.26","17","Low_HMMActual","406.2749999575317","","","","Images/NewTrialBC.png","37"
"image-keyboard-response","99","178309","0.0-4.0-1.26","17","Low_HMMActual","null","","","","Images/BlackBeadChoice.png","null"
"image-keyboard-response","100","178811","0.0-4.0-2.26","17","Low_HMMActual","null","","","","Images/BlackBeadChoiceCorrect.png","null"
"image-keyboard-response","101","179193","0.0-4.0-0.27","17","Low_HMMActual","381.91999995615333","","","","Images/NewTrialBC.png","37"
"image-keyboard-response","102","179445","0.0-4.0-1.27","17","Low_HMMActual","null","","","","Images/BlackBeadChoice.png","null"
"image-keyboard-response","103","179946","0.0-4.0-2.27","17","Low_HMMActual","null","","","","Images/BlackBeadChoiceCorrect.png","null"
"image-keyboard-response","104","180152","0.0-4.0-0.28","17","Low_HMMActual","204.67000000644475","","","","Images/NewTrialBC.png","37"
"image-keyboard-response","105","180403","0.0-4.0-1.28","17","Low_HMMActual","null","","","","Images/BlackBeadChoice.png","null"
"image-keyboard-response","106","180905","0.0-4.0-2.28","17","Low_HMMActual","null","","","","Images/BlackBeadChoiceCorrect.png","null"
"image-keyboard-response","107","181162","0.0-4.0-0.29","17","Low_HMMActual","256.26500009093434","","","","Images/NewTrialBC.png","37"
"image-keyboard-response","108","181414","0.0-4.0-1.29","17","Low_HMMActual","null","","","","Images/BlackBeadChoice.png","null"
"image-keyboard-response","109","181917","0.0-4.0-2.29","17","Low_HMMActual","null","","","","Images/BlackBeadChoiceCorrect.png","null"
"image-keyboard-response","110","182227","0.0-4.0-0.30","17","Low_HMMActual","308.5050000809133","","","","Images/NewTrialBC.png","37"
"image-keyboard-response","111","182479","0.0-4.0-1.30","17","Low_HMMActual","null","","","","Images/BlackBeadChoice.png","null"
"image-keyboard-response","112","182980","0.0-4.0-2.30","17","Low_HMMActual","null","","","","Images/BlackBeadChoiceCorrect.png","null"
"image-keyboard-response","113","183154","0.0-4.0-0.31","17","Low_HMMActual","172.2350000636652","","","","Images/NewTrialBC.png","37"
"image-keyboard-response","114","183406","0.0-4.0-1.31","17","Low_HMMActual","null","","","","Images/BlackBeadChoice.png","null"
"image-keyboard-response","115","183908","0.0-4.0-2.31","17","Low_HMMActual","null","","","","Images/BlackBeadChoiceCorrect.png","null"
"image-keyboard-response","116","184038","0.0-4.0-0.32","17","Low_HMMActual","128.859999938868","","","","Images/NewTrialBC.png","37"
"image-keyboard-response","117","184290","0.0-4.0-1.32","17","Low_HMMActual","null","","","","Images/BlackBeadChoice.png","null"
"image-keyboard-response","118","184792","0.0-4.0-2.32","17","Low_HMMActual","null","","","","Images/BlackBeadChoiceWrong.png","null"
"image-keyboard-response","119","185056","0.0-4.0-0.33","17","Low_HMMActual","263.17499997094274","","","","Images/NewTrialWC.png","39"
"image-keyboard-response","120","185307","0.0-4.0-1.33","17","Low_HMMActual","null","","","","Images/WhiteBeadChoice.png","null"
"image-keyboard-response","121","185808","0.0-4.0-2.33","17","Low_HMMActual","null","","","","Images/WhiteBeadChoiceWrong.png","null"
"image-keyboard-response","122","186115","0.0-4.0-0.34","17","Low_HMMActual","305.49499997869134","","","","Images/NewTrialBC.png","37"
"image-keyboard-response","123","186367","0.0-4.0-1.34","17","Low_HMMActual","null","","","","Images/BlackBeadChoice.png","null"
"image-keyboard-response","124","186870","0.0-4.0-2.34","17","Low_HMMActual","null","","","","Images/BlackBeadChoiceWrong.png","null"
"image-keyboard-response","125","187138","0.0-4.0-0.35","17","Low_HMMActual","267.06999994348735","","","","Images/NewTrialWC.png","39"
"image-keyboard-response","126","187389","0.0-4.0-1.35","17","Low_HMMActual","null","","","","Images/WhiteBeadChoice.png","null"
"image-keyboard-response","127","187891","0.0-4.0-2.35","17","Low_HMMActual","null","","","","Images/WhiteBeadChoiceWrong.png","null"
"image-keyboard-response","128","188128","0.0-4.0-0.36","17","Low_HMMActual","236.03499995078892","","","","Images/NewTrialBC.png","37"
"image-keyboard-response","129","188379","0.0-4.0-1.36","17","Low_HMMActual","null","","","","Images/BlackBeadChoice.png","null"
"image-keyboard-response","130","188882","0.0-4.0-2.36","17","Low_HMMActual","null","","","","Images/BlackBeadChoiceCorrect.png","null"
"image-keyboard-response","131","189155","0.0-4.0-0.37","17","Low_HMMActual","270.5800000112504","","","","Images/NewTrialBC.png","37"
"image-keyboard-response","132","189407","0.0-4.0-1.37","17","Low_HMMActual","null","","","","Images/BlackBeadChoice.png","null"
"image-keyboard-response","133","189909","0.0-4.0-2.37","17","Low_HMMActual","null","","","","Images/BlackBeadChoiceCorrect.png","null"
"image-keyboard-response","134","190188","0.0-4.0-0.38","17","Low_HMMActual","277.9350000200793","","","","Images/NewTrialBC.png","37"
"image-keyboard-response","135","190440","0.0-4.0-1.38","17","Low_HMMActual","null","","","","Images/BlackBeadChoice.png","null"
"image-keyboard-response","136","190942","0.0-4.0-2.38","17","Low_HMMActual","null","","","","Images/BlackBeadChoiceCorrect.png","null"
"image-keyboard-response","137","191239","0.0-4.0-0.39","17","Low_HMMActual","296.0950001142919","","","","Images/NewTrialBC.png","37"
"image-keyboard-response","138","191490","0.0-4.0-1.39","17","Low_HMMActual","null","","","","Images/BlackBeadChoice.png","null"
"image-keyboard-response","139","191992","0.0-4.0-2.39","17","Low_HMMActual","null","","","","Images/BlackBeadChoiceCorrect.png","null"
"image-keyboard-response","140","192293","0.0-4.0-0.40","17","Low_HMMActual","300.14499998651445","","","","Images/NewTrialBC.png","37"
"image-keyboard-response","141","192545","0.0-4.0-1.40","17","Low_HMMActual","null","","","","Images/BlackBeadChoice.png","null"
"image-keyboard-response","142","193047","0.0-4.0-2.40","17","Low_HMMActual","null","","","","Images/BlackBeadChoiceCorrect.png","null"
"image-keyboard-response","143","193370","0.0-4.0-0.41","17","Low_HMMActual","322.5249999668449","","","","Images/NewTrialBC.png","37"
"image-keyboard-response","144","193621","0.0-4.0-1.41","17","Low_HMMActual","null","","","","Images/BlackBeadChoice.png","null"
"image-keyboard-response","145","194122","0.0-4.0-2.41","17","Low_HMMActual","null","","","","Images/BlackBeadChoiceCorrect.png","null"
"image-keyboard-response","146","194373","0.0-4.0-0.42","17","Low_HMMActual","249.91999997291714","","","","Images/NewTrialBC.png","37"
"image-keyboard-response","147","194624","0.0-4.0-1.42","17","Low_HMMActual","null","","","","Images/BlackBeadChoice.png","null"
"image-keyboard-response","148","195126","0.0-4.0-2.42","17","Low_HMMActual","null","","","","Images/BlackBeadChoiceCorrect.png","null"
"image-keyboard-response","149","195444","0.0-4.0-0.43","17","Low_HMMActual","317.06000003032386","","","","Images/NewTrialBC.png","37"
"image-keyboard-response","150","195696","0.0-4.0-1.43","17","Low_HMMActual","null","","","","Images/BlackBeadChoice.png","null"
"image-keyboard-response","151","196198","0.0-4.0-2.43","17","Low_HMMActual","null","","","","Images/BlackBeadChoiceCorrect.png","null"
"image-keyboard-response","152","196447","0.0-4.0-0.44","17","Low_HMMActual","247.60499992407858","","","","Images/NewTrialBC.png","37"
"image-keyboard-response","153","196699","0.0-4.0-1.44","17","Low_HMMActual","null","","","","Images/BlackBeadChoice.png","null"
"image-keyboard-response","154","197201","0.0-4.0-2.44","17","Low_HMMActual","null","","","","Images/BlackBeadChoiceCorrect.png","null"
"image-keyboard-response","155","197463","0.0-4.0-0.45","17","Low_HMMActual","261.9500000728294","","","","Images/NewTrialBC.png","37"
"image-keyboard-response","156","197715","0.0-4.0-1.45","17","Low_HMMActual","null","","","","Images/BlackBeadChoice.png","null"
"image-keyboard-response","157","198218","0.0-4.0-2.45","17","Low_HMMActual","null","","","","Images/BlackBeadChoiceWrong.png","null"
"image-keyboard-response","158","198418","0.0-4.0-0.46","17","Low_HMMActual","197.50999996904284","","","","Images/NewTrialWC.png","39"
"image-keyboard-response","159","198669","0.0-4.0-1.46","17","Low_HMMActual","null","","","","Images/WhiteBeadChoice.png","null"
"image-keyboard-response","160","199170","0.0-4.0-2.46","17","Low_HMMActual","null","","","","Images/WhiteBeadChoiceWrong.png","null"
"image-keyboard-response","161","199274","0.0-4.0-0.47","17","Low_HMMActual","103.03500003647059","","","","Images/NewTrialBC.png","37"
"image-keyboard-response","162","199525","0.0-4.0-1.47","17","Low_HMMActual","null","","","","Images/BlackBeadChoice.png","null"
"image-keyboard-response","163","200028","0.0-4.0-2.47","17","Low_HMMActual","null","","","","Images/BlackBeadChoiceCorrect.png","null"
"image-keyboard-response","164","200074","0.0-4.0-0.48","17","Low_HMMActual","45.84499995689839","","","","Images/NewTrialBC.png","37"
"image-keyboard-response","165","200326","0.0-4.0-1.48","17","Low_HMMActual","null","","","","Images/BlackBeadChoice.png","null"
"image-keyboard-response","166","200828","0.0-4.0-2.48","17","Low_HMMActual","null","","","","Images/BlackBeadChoiceCorrect.png","null"
"image-keyboard-response","167","200829","0.0-4.0-0.49","17","Low_HMMActual","0.22000004537403584","","","","Images/NewTrialBC.png","37"
"image-keyboard-response","168","201081","0.0-4.0-1.49","17","Low_HMMActual","null","","","","Images/BlackBeadChoice.png","null"
"image-keyboard-response","169","201583","0.0-4.0-2.49","17","Low_HMMActual","456.609999993816","","","","Images/BlackBeadChoiceWrong.png","39"
"image-keyboard-response","170","202239","0.0-4.0-0.50","17","Low_HMMActual","654.865000047721","","","","Images/NewTrialWC.png","39"
"image-keyboard-response","171","202491","0.0-4.0-1.50","17","Low_HMMActual","null","","","","Images/WhiteBeadChoice.png","null"
"image-keyboard-response","172","202992","0.0-4.0-2.50","17","Low_HMMActual","null","","","","Images/WhiteBeadChoiceWrong.png","null"
"image-keyboard-response","173","203292","0.0-4.0-0.51","17","Low_HMMActual","299.170000012964","","","","Images/NewTrialBC.png","37"
"image-keyboard-response","174","203544","0.0-4.0-1.51","17","Low_HMMActual","null","","","","Images/BlackBeadChoice.png","null"
"image-keyboard-response","175","204046","0.0-4.0-2.51","17","Low_HMMActual","null","","","","Images/BlackBeadChoiceWrong.png","null"
"image-keyboard-response","176","204208","0.0-4.0-0.52","17","Low_HMMActual","161.09499998856336","","","","Images/NewTrialWC.png","39"
"image-keyboard-response","177","204460","0.0-4.0-1.52","17","Low_HMMActual","null","","","","Images/WhiteBeadChoice.png","null"
"image-keyboard-response","178","204962","0.0-4.0-2.52","17","Low_HMMActual","499.7999999905005","","","","Images/WhiteBeadChoiceCorrect.png","39"
"image-keyboard-response","179","205333","0.0-4.0-0.53","17","Low_HMMActual","370.1349999755621","","","","Images/NewTrialWC.png","39"
"image-keyboard-response","180","205586","0.0-4.0-1.53","17","Low_HMMActual","null","","","","Images/WhiteBeadChoice.png","null"
"image-keyboard-response","181","206088","0.0-4.0-2.53","17","Low_HMMActual","null","","","","Images/WhiteBeadChoiceCorrect.png","null"
"image-keyboard-response","182","206356","0.0-4.0-0.54","17","Low_HMMActual","267.2500000335276","","","","Images/NewTrialWC.png","39"
"image-keyboard-response","183","206608","0.0-4.0-1.54","17","Low_HMMActual","null","","","","Images/WhiteBeadChoice.png","null"
"image-keyboard-response","184","207110","0.0-4.0-2.54","17","Low_HMMActual","null","","","","Images/WhiteBeadChoiceWrong.png","null"
"image-keyboard-response","185","207658","0.0-4.0-0.55","17","Low_HMMActual","547.0600000116974","","","","Images/NewTrialBC.png","39"
"image-keyboard-response","186","207910","0.0-4.0-1.55","17","Low_HMMActual","null","","","","Images/WhiteBeadChoice.png","null"
"image-keyboard-response","187","208411","0.0-4.0-2.55","17","Low_HMMActual","null","","","","Images/WhiteBeadChoiceCorrect.png","null"
"image-keyboard-response","188","208818","0.0-4.0-0.56","17","Low_HMMActual","405.6200000923127","","","","Images/NewTrialWC.png","37"
"image-keyboard-response","189","209070","0.0-4.0-1.56","17","Low_HMMActual","null","","","","Images/BlackBeadChoice.png","null"
"image-keyboard-response","190","209571","0.0-4.0-2.56","17","Low_HMMActual","null","","","","Images/BlackBeadChoiceWrong.png","null"
"image-keyboard-response","191","210120","0.0-4.0-0.57","17","Low_HMMActual","548.1450000079349","","","","Images/NewTrialWC.png","39"
"image-keyboard-response","192","210372","0.0-4.0-1.57","17","Low_HMMActual","null","","","","Images/WhiteBeadChoice.png","null"
"image-keyboard-response","193","210874","0.0-4.0-2.57","17","Low_HMMActual","null","","","","Images/WhiteBeadChoiceCorrect.png","null"
"image-keyboard-response","194","211157","0.0-4.0-0.58","17","Low_HMMActual","281.929999939166","","","","Images/NewTrialWC.png","39"
"image-keyboard-response","195","211408","0.0-4.0-1.58","17","Low_HMMActual","null","","","","Images/WhiteBeadChoice.png","null"
"image-keyboard-response","196","211911","0.0-4.0-2.58","17","Low_HMMActual","null","","","","Images/WhiteBeadChoiceWrong.png","null"
"image-keyboard-response","197","212177","0.0-4.0-0.59","17","Low_HMMActual","265.62999992165715","","","","Images/NewTrialBC.png","37"
"image-keyboard-response","198","212428","0.0-4.0-1.59","17","Low_HMMActual","null","","","","Images/BlackBeadChoice.png","null"
"image-keyboard-response","199","212930","0.0-4.0-2.59","17","Low_HMMActual","null","","","","Images/BlackBeadChoiceWrong.png","null"
"image-keyboard-response","200","213230","0.0-4.0-0.60","17","Low_HMMActual","299.4800000451505","","","","Images/NewTrialWC.png","39"
"image-keyboard-response","201","213481","0.0-4.0-1.60","17","Low_HMMActual","null","","","","Images/WhiteBeadChoice.png","null"
"image-keyboard-response","202","213984","0.0-4.0-2.60","17","Low_HMMActual","null","","","","Images/WhiteBeadChoiceWrong.png","null"
"image-keyboard-response","203","214351","0.0-4.0-0.61","17","Low_HMMActual","366.3149999920279","","","","Images/NewTrialBC.png","37"
"image-keyboard-response","204","214603","0.0-4.0-1.61","17","Low_HMMActual","null","","","","Images/BlackBeadChoice.png","null"
"image-keyboard-response","205","215105","0.0-4.0-2.61","17","Low_HMMActual","null","","","","Images/BlackBeadChoiceWrong.png","null"
"image-keyboard-response","206","215439","0.0-4.0-0.62","17","Low_HMMActual","332.6299999607727","","","","Images/NewTrialWC.png","39"
"image-keyboard-response","207","215690","0.0-4.0-1.62","17","Low_HMMActual","null","","","","Images/WhiteBeadChoice.png","null"
"image-keyboard-response","208","216192","0.0-4.0-2.62","17","Low_HMMActual","null","","","","Images/WhiteBeadChoiceWrong.png","null"
"image-keyboard-response","209","216544","0.0-4.0-0.63","17","Low_HMMActual","351.84999997727573","","","","Images/NewTrialBC.png","37"
"image-keyboard-response","210","216796","0.0-4.0-1.63","17","Low_HMMActual","null","","","","Images/BlackBeadChoice.png","null"
"image-keyboard-response","211","217298","0.0-4.0-2.63","17","Low_HMMActual","null","","","","Images/BlackBeadChoiceCorrect.png","null"
"image-keyboard-response","212","217565","0.0-4.0-0.64","17","Low_HMMActual","265.9850000636652","","","","Images/NewTrialBC.png","37"
"image-keyboard-response","213","217816","0.0-4.0-1.64","17","Low_HMMActual","null","","","","Images/BlackBeadChoice.png","null"
"image-keyboard-response","214","218318","0.0-4.0-2.64","17","Low_HMMActual","null","","","","Images/BlackBeadChoiceCorrect.png","null"
"image-keyboard-response","215","218666","0.0-4.0-0.65","17","Low_HMMActual","346.49999998509884","","","","Images/NewTrialBC.png","37"
"image-keyboard-response","216","218918","0.0-4.0-1.65","17","Low_HMMActual","null","","","","Images/BlackBeadChoice.png","null"
"image-keyboard-response","217","219421","0.0-4.0-2.65","17","Low_HMMActual","null","","","","Images/BlackBeadChoiceCorrect.png","null"
"image-keyboard-response","218","219710","0.0-4.0-0.66","17","Low_HMMActual","287.4799999408424","","","","Images/NewTrialBC.png","37"
"image-keyboard-response","219","219961","0.0-4.0-1.66","17","Low_HMMActual","null","","","","Images/BlackBeadChoice.png","null"
"image-keyboard-response","220","220463","0.0-4.0-2.66","17","Low_HMMActual","null","","","","Images/BlackBeadChoiceCorrect.png","null"
"image-keyboard-response","221","220767","0.0-4.0-0.67","17","Low_HMMActual","302.76500002946705","","","","Images/NewTrialBC.png","37"
"image-keyboard-response","222","221019","0.0-4.0-1.67","17","Low_HMMActual","null","","","","Images/BlackBeadChoice.png","null"
"image-keyboard-response","223","221521","0.0-4.0-2.67","17","Low_HMMActual","null","","","","Images/BlackBeadChoiceCorrect.png","null"
"image-keyboard-response","224","221867","0.0-4.0-0.68","17","Low_HMMActual","345.5499999690801","","","","Images/NewTrialBC.png","37"
"image-keyboard-response","225","222119","0.0-4.0-1.68","17","Low_HMMActual","null","","","","Images/BlackBeadChoice.png","null"
"image-keyboard-response","226","222622","0.0-4.0-2.68","17","Low_HMMActual","null","","","","Images/BlackBeadChoiceWrong.png","null"
"image-keyboard-response","227","223045","0.0-4.0-0.69","17","Low_HMMActual","422.52499994356185","","","","Images/NewTrialWC.png","39"
"image-keyboard-response","228","223298","0.0-4.0-1.69","17","Low_HMMActual","null","","","","Images/WhiteBeadChoice.png","null"
"image-keyboard-response","229","223799","0.0-4.0-2.69","17","Low_HMMActual","null","","","","Images/WhiteBeadChoiceWrong.png","null"
"image-keyboard-response","230","224113","0.0-4.0-0.70","17","Low_HMMActual","313.0200000014156","","","","Images/NewTrialBC.png","37"
"image-keyboard-response","231","224365","0.0-4.0-1.70","17","Low_HMMActual","null","","","","Images/BlackBeadChoice.png","null"
"image-keyboard-response","232","224867","0.0-4.0-2.70","17","Low_HMMActual","null","","","","Images/BlackBeadChoiceWrong.png","null"
"image-keyboard-response","233","225215","0.0-4.0-0.71","17","Low_HMMActual","347.2150000743568","","","","Images/NewTrialWC.png","39"
"image-keyboard-response","234","225467","0.0-4.0-1.71","17","Low_HMMActual","null","","","","Images/WhiteBeadChoice.png","null"
"image-keyboard-response","235","225968","0.0-4.0-2.71","17","Low_HMMActual","null","","","","Images/WhiteBeadChoiceCorrect.png","null"
"image-keyboard-response","236","226266","0.0-4.0-0.72","17","Low_HMMActual","297.3100000526756","","","","Images/NewTrialWC.png","39"
"image-keyboard-response","237","226518","0.0-4.0-1.72","17","Low_HMMActual","null","","","","Images/WhiteBeadChoice.png","null"
"image-keyboard-response","238","227021","0.0-4.0-2.72","17","Low_HMMActual","null","","","","Images/WhiteBeadChoiceWrong.png","null"
"image-keyboard-response","239","227377","0.0-4.0-0.73","17","Low_HMMActual","354.894999996759","","","","Images/NewTrialBC.png","37"
"image-keyboard-response","240","227629","0.0-4.0-1.73","17","Low_HMMActual","null","","","","Images/BlackBeadChoice.png","null"
"image-keyboard-response","241","228130","0.0-4.0-2.73","17","Low_HMMActual","null","","","","Images/BlackBeadChoiceWrong.png","null"
"image-keyboard-response","242","228985","0.0-4.0-0.74","17","Low_HMMActual","853.4750000108033","","","","Images/NewTrialWC.png","39"
"image-keyboard-response","243","229236","0.0-4.0-1.74","17","Low_HMMActual","null","","","","Images/WhiteBeadChoice.png","null"
"image-keyboard-response","244","229738","0.0-4.0-2.74","17","Low_HMMActual","null","","","","Images/WhiteBeadChoiceCorrect.png","null"
"image-keyboard-response","245","230109","0.0-4.0-0.75","17","Low_HMMActual","370.060000102967","","","","Images/NewTrialWC.png","39"
"image-keyboard-response","246","230361","0.0-4.0-1.75","17","Low_HMMActual","null","","","","Images/WhiteBeadChoice.png","null"
"image-keyboard-response","247","230863","0.0-4.0-2.75","17","Low_HMMActual","null","","","","Images/WhiteBeadChoiceWrong.png","null"
"image-keyboard-response","248","231183","0.0-4.0-0.76","17","Low_HMMActual","318.3000000426546","","","","Images/NewTrialBC.png","37"
"image-keyboard-response","249","231435","0.0-4.0-1.76","17","Low_HMMActual","null","","","","Images/BlackBeadChoice.png","null"
"image-keyboard-response","250","231937","0.0-4.0-2.76","17","Low_HMMActual","null","","","","Images/BlackBeadChoiceWrong.png","null"
"image-keyboard-response","251","232239","0.0-4.0-0.77","17","Low_HMMActual","301.0850000428036","","","","Images/NewTrialWC.png","39"
"image-keyboard-response","252","232491","0.0-4.0-1.77","17","Low_HMMActual","null","","","","Images/WhiteBeadChoice.png","null"
"image-keyboard-response","253","232993","0.0-4.0-2.77","17","Low_HMMActual","null","","","","Images/WhiteBeadChoiceCorrect.png","null"
"image-keyboard-response","254","233179","0.0-4.0-0.78","17","Low_HMMActual","185.57999993208796","","","","Images/NewTrialWC.png","39"
"image-keyboard-response","255","233430","0.0-4.0-1.78","17","Low_HMMActual","null","","","","Images/WhiteBeadChoice.png","null"
"image-keyboard-response","256","233932","0.0-4.0-2.78","17","Low_HMMActual","null","","","","Images/WhiteBeadChoiceCorrect.png","null"
"image-keyboard-response","257","234083","0.0-4.0-0.79","17","Low_HMMActual","149.31000000797212","","","","Images/NewTrialWC.png","39"
"image-keyboard-response","258","234334","0.0-4.0-1.79","17","Low_HMMActual","null","","","","Images/WhiteBeadChoice.png","null"
"image-keyboard-response","259","234836","0.0-4.0-2.79","17","Low_HMMActual","null","","","","Images/WhiteBeadChoiceCorrect.png","null"
"image-keyboard-response","260","235082","0.0-4.0-0.80","17","Low_HMMActual","245.34500006120652","","","","Images/NewTrialWC.png","39"
"image-keyboard-response","261","235334","0.0-4.0-1.80","17","Low_HMMActual","null","","","","Images/WhiteBeadChoice.png","null"
"image-keyboard-response","262","235836","0.0-4.0-2.80","17","Low_HMMActual","null","","","","Images/WhiteBeadChoiceCorrect.png","null"
"image-keyboard-response","263","236107","0.0-4.0-0.81","17","Low_HMMActual","270.48499998636544","","","","Images/NewTrialWC.png","39"
"image-keyboard-response","264","236360","0.0-4.0-1.81","17","Low_HMMActual","null","","","","Images/WhiteBeadChoice.png","null"
"image-keyboard-response","265","236861","0.0-4.0-2.81","17","Low_HMMActual","null","","","","Images/WhiteBeadChoiceCorrect.png","null"
"image-keyboard-response","266","237106","0.0-4.0-0.82","17","Low_HMMActual","244.16500004008412","","","","Images/NewTrialWC.png","39"
"image-keyboard-response","267","237357","0.0-4.0-1.82","17","Low_HMMActual","null","","","","Images/WhiteBeadChoice.png","null"
"image-keyboard-response","268","237860","0.0-4.0-2.82","17","Low_HMMActual","null","","","","Images/WhiteBeadChoiceWrong.png","null"
"image-keyboard-response","269","238027","0.0-4.0-0.83","17","Low_HMMActual","166.36999999172986","","","","Images/NewTrialBC.png","37"
"image-keyboard-response","270","238279","0.0-4.0-1.83","17","Low_HMMActual","null","","","","Images/BlackBeadChoice.png","null"
"image-keyboard-response","271","238781","0.0-4.0-2.83","17","Low_HMMActual","null","","","","Images/BlackBeadChoiceWrong.png","null"
"image-keyboard-response","272","239048","0.0-4.0-0.84","17","Low_HMMActual","266.16500003729016","","","","Images/NewTrialWC.png","39"
"image-keyboard-response","273","239301","0.0-4.0-1.84","17","Low_HMMActual","null","","","","Images/WhiteBeadChoice.png","null"
"image-keyboard-response","274","239803","0.0-4.0-2.84","17","Low_HMMActual","null","","","","Images/WhiteBeadChoiceCorrect.png","null"
"image-keyboard-response","275","240093","0.0-4.0-0.85","17","Low_HMMActual","289.3700000131503","","","","Images/NewTrialWC.png","39"
"image-keyboard-response","276","240345","0.0-4.0-1.85","17","Low_HMMActual","null","","","","Images/WhiteBeadChoice.png","null"
"image-keyboard-response","277","240847","0.0-4.0-2.85","17","Low_HMMActual","null","","","","Images/WhiteBeadChoiceWrong.png","null"
"image-keyboard-response","278","241229","0.0-4.0-0.86","17","Low_HMMActual","381.3450000016019","","","","Images/NewTrialBC.png","37"
"image-keyboard-response","279","241481","0.0-4.0-1.86","17","Low_HMMActual","null","","","","Images/BlackBeadChoice.png","null"
"image-keyboard-response","280","241983","0.0-4.0-2.86","17","Low_HMMActual","null","","","","Images/BlackBeadChoiceCorrect.png","null"
"image-keyboard-response","281","242668","0.0-4.0-0.87","17","Low_HMMActual","683.9799999725074","","","","Images/NewTrialBC.png","37"
"image-keyboard-response","282","242919","0.0-4.0-1.87","17","Low_HMMActual","null","","","","Images/BlackBeadChoice.png","null"
"image-keyboard-response","283","243422","0.0-4.0-2.87","17","Low_HMMActual","null","","","","Images/BlackBeadChoiceCorrect.png","null"
"image-keyboard-response","284","243726","0.0-4.0-0.88","17","Low_HMMActual","302.80000006314367","","","","Images/NewTrialBC.png","37"
"image-keyboard-response","285","243978","0.0-4.0-1.88","17","Low_HMMActual","null","","","","Images/BlackBeadChoice.png","null"
"image-keyboard-response","286","244480","0.0-4.0-2.88","17","Low_HMMActual","null","","","","Images/BlackBeadChoiceCorrect.png","null"
"image-keyboard-response","287","244774","0.0-4.0-0.89","17","Low_HMMActual","292.6699999952689","","","","Images/NewTrialBC.png","37"
"image-keyboard-response","288","245025","0.0-4.0-1.89","17","Low_HMMActual","null","","","","Images/BlackBeadChoice.png","null"
"image-keyboard-response","289","245527","0.0-4.0-2.89","17","Low_HMMActual","null","","","","Images/BlackBeadChoiceCorrect.png","null"
"image-keyboard-response","290","245894","0.0-4.0-0.90","17","Low_HMMActual","366.4699998917058","","","","Images/NewTrialBC.png","37"
"image-keyboard-response","291","246146","0.0-4.0-1.90","17","Low_HMMActual","null","","","","Images/BlackBeadChoice.png","null"
"image-keyboard-response","292","246648","0.0-4.0-2.90","17","Low_HMMActual","null","","","","Images/BlackBeadChoiceCorrect.png","null"
"image-keyboard-response","293","246911","0.0-4.0-0.91","17","Low_HMMActual","262.8800000529736","","","","Images/NewTrialBC.png","37"
"image-keyboard-response","294","247163","0.0-4.0-1.91","17","Low_HMMActual","null","","","","Images/BlackBeadChoice.png","null"
"image-keyboard-response","295","247664","0.0-4.0-2.91","17","Low_HMMActual","null","","","","Images/BlackBeadChoiceCorrect.png","null"
"image-keyboard-response","296","247915","0.0-4.0-0.92","17","Low_HMMActual","249.45000000298023","","","","Images/NewTrialBC.png","37"
"image-keyboard-response","297","248166","0.0-4.0-1.92","17","Low_HMMActual","null","","","","Images/BlackBeadChoice.png","null"
"image-keyboard-response","298","248668","0.0-4.0-2.92","17","Low_HMMActual","null","","","","Images/BlackBeadChoiceCorrect.png","null"
"image-keyboard-response","299","248990","0.0-4.0-0.93","17","Low_HMMActual","321.03500002995133","","","","Images/NewTrialBC.png","37"
"image-keyboard-response","300","249242","0.0-4.0-1.93","17","Low_HMMActual","null","","","","Images/BlackBeadChoice.png","null"
"image-keyboard-response","301","249744","0.0-4.0-2.93","17","Low_HMMActual","null","","","","Images/BlackBeadChoiceCorrect.png","null"
"image-keyboard-response","302","250218","0.0-4.0-0.94","17","Low_HMMActual","473.59499998856336","","","","Images/NewTrialBC.png","37"
"image-keyboard-response","303","250470","0.0-4.0-1.94","17","Low_HMMActual","null","","","","Images/BlackBeadChoice.png","null"
"image-keyboard-response","304","250972","0.0-4.0-2.94","17","Low_HMMActual","null","","","","Images/BlackBeadChoiceCorrect.png","null"
"image-keyboard-response","305","251265","0.0-4.0-0.95","17","Low_HMMActual","291.3499999558553","","","","Images/NewTrialBC.png","37"
"image-keyboard-response","306","251517","0.0-4.0-1.95","17","Low_HMMActual","null","","","","Images/BlackBeadChoice.png","null"
"image-keyboard-response","307","252020","0.0-4.0-2.95","17","Low_HMMActual","null","","","","Images/BlackBeadChoiceCorrect.png","null"
"image-keyboard-response","308","252365","0.0-4.0-0.96","17","Low_HMMActual","344.72500008996576","","","","Images/NewTrialBC.png","37"
"image-keyboard-response","309","252618","0.0-4.0-1.96","17","Low_HMMActual","null","","","","Images/BlackBeadChoice.png","null"
"image-keyboard-response","310","253120","0.0-4.0-2.96","17","Low_HMMActual","null","","","","Images/BlackBeadChoiceWrong.png","null"
"image-keyboard-response","311","253395","0.0-4.0-0.97","17","Low_HMMActual","274.3400000035763","","","","Images/NewTrialWC.png","39"
"image-keyboard-response","312","253647","0.0-4.0-1.97","17","Low_HMMActual","null","","","","Images/WhiteBeadChoice.png","null"
"image-keyboard-response","313","254149","0.0-4.0-2.97","17","Low_HMMActual","null","","","","Images/WhiteBeadChoiceWrong.png","null"
"image-keyboard-response","314","254425","0.0-4.0-0.98","17","Low_HMMActual","274.6449999976903","","","","Images/NewTrialBC.png","37"
"image-keyboard-response","315","254677","0.0-4.0-1.98","17","Low_HMMActual","null","","","","Images/BlackBeadChoice.png","null"
"image-keyboard-response","316","255178","0.0-4.0-2.98","17","Low_HMMActual","null","","","","Images/BlackBeadChoiceCorrect.png","null"
"image-keyboard-response","317","255366","0.0-4.0-0.99","17","Low_HMMActual","186.63500004913658","","","","Images/NewTrialBC.png","37"
"image-keyboard-response","318","255617","0.0-4.0-1.99","17","Low_HMMActual","null","","","","Images/BlackBeadChoice.png","null"
"image-keyboard-response","319","256119","0.0-4.0-2.99","17","Low_HMMActual","null","","","","Images/BlackBeadChoiceCorrect.png","null"
"image-keyboard-response","320","256253","0.0-4.0-0.100","17","Low_HMMActual","132.15499999932945","","","","Images/NewTrialBC.png","37"
"image-keyboard-response","321","256504","0.0-4.0-1.100","17","Low_HMMActual","null","","","","Images/BlackBeadChoice.png","null"
"image-keyboard-response","322","257007","0.0-4.0-2.100","17","Low_HMMActual","null","","","","Images/BlackBeadChoiceCorrect.png","null"
"image-keyboard-response","323","257217","0.0-4.0-0.101","17","Low_HMMActual","208.48000003024936","","","","Images/NewTrialBC.png","37"
"image-keyboard-response","324","257468","0.0-4.0-1.101","17","Low_HMMActual","null","","","","Images/BlackBeadChoice.png","null"
"image-keyboard-response","325","257970","0.0-4.0-2.101","17","Low_HMMActual","null","","","","Images/BlackBeadChoiceCorrect.png","null"
"image-keyboard-response","326","258134","0.0-4.0-0.102","17","Low_HMMActual","163.484999909997","","","","Images/NewTrialBC.png","37"
"image-keyboard-response","327","258386","0.0-4.0-1.102","17","Low_HMMActual","null","","","","Images/BlackBeadChoice.png","null"
"image-keyboard-response","328","258889","0.0-4.0-2.102","17","Low_HMMActual","null","","","","Images/BlackBeadChoiceWrong.png","null"
"image-keyboard-response","329","259160","0.0-4.0-0.103","17","Low_HMMActual","270.8099998999387","","","","Images/NewTrialWC.png","39"
"image-keyboard-response","330","259412","0.0-4.0-1.103","17","Low_HMMActual","null","","","","Images/WhiteBeadChoice.png","null"
"image-keyboard-response","331","259914","0.0-4.0-2.103","17","Low_HMMActual","null","","","","Images/WhiteBeadChoiceWrong.png","null"
"image-keyboard-response","332","260207","0.0-4.0-0.104","17","Low_HMMActual","290.49000004306436","","","","Images/NewTrialBC.png","37"
"image-keyboard-response","333","260459","0.0-4.0-1.104","17","Low_HMMActual","null","","","","Images/BlackBeadChoice.png","null"
"image-keyboard-response","334","260961","0.0-4.0-2.104","17","Low_HMMActual","null","","","","Images/BlackBeadChoiceCorrect.png","null"
"image-keyboard-response","335","261194","0.0-4.0-0.105","17","Low_HMMActual","232.9850000096485","","","","Images/NewTrialBC.png","37"
"image-keyboard-response","336","261446","0.0-4.0-1.105","17","Low_HMMActual","null","","","","Images/BlackBeadChoice.png","null"
"image-keyboard-response","337","261949","0.0-4.0-2.105","17","Low_HMMActual","null","","","","Images/BlackBeadChoiceCorrect.png","null"
"image-keyboard-response","338","262175","0.0-4.0-0.106","17","Low_HMMActual","225.11999995913357","","","","Images/NewTrialBC.png","37"
"image-keyboard-response","339","262427","0.0-4.0-1.106","17","Low_HMMActual","null","","","","Images/BlackBeadChoice.png","null"
"image-keyboard-response","340","262929","0.0-4.0-2.106","17","Low_HMMActual","null","","","","Images/BlackBeadChoiceCorrect.png","null"
"image-keyboard-response","341","263148","0.0-4.0-0.107","17","Low_HMMActual","217.42499992251396","","","","Images/NewTrialBC.png","37"
"image-keyboard-response","342","263400","0.0-4.0-1.107","17","Low_HMMActual","null","","","","Images/BlackBeadChoice.png","null"
"image-keyboard-response","343","263901","0.0-4.0-2.107","17","Low_HMMActual","null","","","","Images/BlackBeadChoiceWrong.png","null"
"image-keyboard-response","344","264176","0.0-4.0-0.108","17","Low_HMMActual","273.9150000270456","","","","Images/NewTrialWC.png","39"
"image-keyboard-response","345","264428","0.0-4.0-1.108","17","Low_HMMActual","null","","","","Images/WhiteBeadChoice.png","null"
"image-keyboard-response","346","264930","0.0-4.0-2.108","17","Low_HMMActual","441.30499998573214","","","","Images/WhiteBeadChoiceCorrect.png","39"
"image-keyboard-response","347","265585","0.0-4.0-0.109","17","Low_HMMActual","654.0699999313802","","","","Images/NewTrialWC.png","39"
"image-keyboard-response","348","265837","0.0-4.0-1.109","17","Low_HMMActual","null","","","","Images/WhiteBeadChoice.png","null"
"image-keyboard-response","349","266339","0.0-4.0-2.109","17","Low_HMMActual","null","","","","Images/WhiteBeadChoiceCorrect.png","null"
"image-keyboard-response","350","266483","0.0-4.0-0.110","17","Low_HMMActual","143.28499999828637","","","","Images/NewTrialWC.png","39"
"image-keyboard-response","351","266737","0.0-4.0-1.110","17","Low_HMMActual","null","","","","Images/WhiteBeadChoice.png","null"
"image-keyboard-response","352","267239","0.0-4.0-2.110","17","Low_HMMActual","null","","","","Images/WhiteBeadChoiceWrong.png","null"
"image-keyboard-response","353","267464","0.0-4.0-0.111","17","Low_HMMActual","224.61499995552003","","","","Images/NewTrialBC.png","37"
"image-keyboard-response","354","267716","0.0-4.0-1.111","17","Low_HMMActual","null","","","","Images/BlackBeadChoice.png","null"
"image-keyboard-response","355","268218","0.0-4.0-2.111","17","Low_HMMActual","null","","","","Images/BlackBeadChoiceCorrect.png","null"
"image-keyboard-response","356","268522","0.0-4.0-0.112","17","Low_HMMActual","302.73499991744757","","","","Images/NewTrialBC.png","37"
"image-keyboard-response","357","268774","0.0-4.0-1.112","17","Low_HMMActual","null","","","","Images/BlackBeadChoice.png","null"
"image-keyboard-response","358","269276","0.0-4.0-2.112","17","Low_HMMActual","null","","","","Images/BlackBeadChoiceCorrect.png","null"
"image-keyboard-response","359","269341","0.0-4.0-0.113","17","Low_HMMActual","63.80999996326864","","","","Images/NewTrialBC.png","37"
"image-keyboard-response","360","269593","0.0-4.0-1.113","17","Low_HMMActual","null","","","","Images/BlackBeadChoice.png","null"
"image-keyboard-response","361","270096","0.0-4.0-2.113","17","Low_HMMActual","null","","","","Images/BlackBeadChoiceCorrect.png","null"
"image-keyboard-response","362","270116","0.0-4.0-0.114","17","Low_HMMActual","18.18499993532896","","","","Images/NewTrialBC.png","37"
"image-keyboard-response","363","270367","0.0-4.0-1.114","17","Low_HMMActual","null","","","","Images/BlackBeadChoice.png","null"
"image-keyboard-response","364","270869","0.0-4.0-2.114","17","Low_HMMActual","null","","","","Images/BlackBeadChoiceCorrect.png","null"
"image-keyboard-response","365","270877","0.0-4.0-0.115","17","Low_HMMActual","6.9249999942258","","","","Images/NewTrialBC.png","37"
"image-keyboard-response","366","271129","0.0-4.0-1.115","17","Low_HMMActual","null","","","","Images/BlackBeadChoice.png","null"
"image-keyboard-response","367","271632","0.0-4.0-2.115","17","Low_HMMActual","470.68999998737127","","","","Images/BlackBeadChoiceCorrect.png","37"
"image-keyboard-response","368","272065","0.0-4.0-0.116","17","Low_HMMActual","431.7749999463558","","","","Images/NewTrialBC.png","37"
"image-keyboard-response","369","272317","0.0-4.0-1.116","17","Low_HMMActual","null","","","","Images/BlackBeadChoice.png","null"
"image-keyboard-response","370","272819","0.0-4.0-2.116","17","Low_HMMActual","null","","","","Images/BlackBeadChoiceCorrect.png","null"
"image-keyboard-response","371","272854","0.0-4.0-0.117","17","Low_HMMActual","33.995000063441694","","","","Images/NewTrialBC.png","37"
"image-keyboard-response","372","273105","0.0-4.0-1.117","17","Low_HMMActual","null","","","","Images/BlackBeadChoice.png","null"
"image-keyboard-response","373","273608","0.0-4.0-2.117","17","Low_HMMActual","null","","","","Images/BlackBeadChoiceCorrect.png","null"
"image-keyboard-response","374","273631","0.0-4.0-0.118","17","Low_HMMActual","21.835000021383166","","","","Images/NewTrialBC.png","37"
"image-keyboard-response","375","273882","0.0-4.0-1.118","17","Low_HMMActual","null","","","","Images/BlackBeadChoice.png","null"
"image-keyboard-response","376","274384","0.0-4.0-2.118","17","Low_HMMActual","355.9349999995902","","","","Images/BlackBeadChoiceCorrect.png","37"
"image-keyboard-response","377","274696","0.0-4.0-0.119","17","Low_HMMActual","310.9249999979511","","","","Images/NewTrialBC.png","37"
"image-keyboard-response","378","274947","0.0-4.0-1.119","17","Low_HMMActual","null","","","","Images/BlackBeadChoice.png","null"
"image-keyboard-response","379","275449","0.0-4.0-2.119","17","Low_HMMActual","null","","","","Images/BlackBeadChoiceCorrect.png","null"
"image-keyboard-response","380","275642","0.0-4.0-0.120","17","Low_HMMActual","192.24500004202127","","","","Images/NewTrialBC.png","37"
"image-keyboard-response","381","275894","0.0-4.0-1.120","17","Low_HMMActual","null","","","","Images/BlackBeadChoice.png","null"
"image-keyboard-response","382","276396","0.0-4.0-2.120","17","Low_HMMActual","null","","","","Images/BlackBeadChoiceWrong.png","null"
"image-keyboard-response","383","276685","0.0-4.0-0.121","17","Low_HMMActual","287.99500002060086","","","","Images/NewTrialWC.png","39"
"image-keyboard-response","384","276937","0.0-4.0-1.121","17","Low_HMMActual","null","","","","Images/WhiteBeadChoice.png","null"
"image-keyboard-response","385","277439","0.0-4.0-2.121","17","Low_HMMActual","null","","","","Images/WhiteBeadChoiceCorrect.png","null"
"image-keyboard-response","386","277633","0.0-4.0-0.122","17","Low_HMMActual","192.81000003684312","","","","Images/NewTrialWC.png","39"
"image-keyboard-response","387","277885","0.0-4.0-1.122","17","Low_HMMActual","null","","","","Images/WhiteBeadChoice.png","null"
"image-keyboard-response","388","278387","0.0-4.0-2.122","17","Low_HMMActual","null","","","","Images/WhiteBeadChoiceCorrect.png","null"
"image-keyboard-response","389","278532","0.0-4.0-0.123","17","Low_HMMActual","143.54999992065132","","","","Images/NewTrialWC.png","39"
"image-keyboard-response","390","278783","0.0-4.0-1.123","17","Low_HMMActual","null","","","","Images/WhiteBeadChoice.png","null"
"image-keyboard-response","391","279285","0.0-4.0-2.123","17","Low_HMMActual","null","","","","Images/WhiteBeadChoiceCorrect.png","null"
"image-keyboard-response","392","279449","0.0-4.0-0.124","17","Low_HMMActual","161.72999993432313","","","","Images/NewTrialWC.png","39"
"image-keyboard-response","393","279700","0.0-4.0-1.124","17","Low_HMMActual","null","","","","Images/WhiteBeadChoice.png","null"
"image-keyboard-response","394","280202","0.0-4.0-2.124","17","Low_HMMActual","null","","","","Images/WhiteBeadChoiceWrong.png","null"
"image-keyboard-response","395","280525","0.0-4.0-0.125","17","Low_HMMActual","321.4450000086799","","","","Images/NewTrialBC.png","37"
"image-keyboard-response","396","280776","0.0-4.0-1.125","17","Low_HMMActual","null","","","","Images/BlackBeadChoice.png","null"
"image-keyboard-response","397","281278","0.0-4.0-2.125","17","Low_HMMActual","null","","","","Images/BlackBeadChoiceCorrect.png","null"
"image-keyboard-response","398","281493","0.0-4.0-0.126","17","Low_HMMActual","214.74500000476837","","","","Images/NewTrialBC.png","37"
"image-keyboard-response","399","281745","0.0-4.0-1.126","17","Low_HMMActual","null","","","","Images/BlackBeadChoice.png","null"
"image-keyboard-response","400","282248","0.0-4.0-2.126","17","Low_HMMActual","null","","","","Images/BlackBeadChoiceCorrect.png","null"
"image-keyboard-response","401","282403","0.0-4.0-0.127","17","Low_HMMActual","153.06499996222556","","","","Images/NewTrialBC.png","37"
"image-keyboard-response","402","282654","0.0-4.0-1.127","17","Low_HMMActual","null","","","","Images/BlackBeadChoice.png","null"
"image-keyboard-response","403","283156","0.0-4.0-2.127","17","Low_HMMActual","null","","","","Images/BlackBeadChoiceCorrect.png","null"
"image-keyboard-response","404","283286","0.0-4.0-0.128","17","Low_HMMActual","128.5249999491498","","","","Images/NewTrialBC.png","37"
"image-keyboard-response","405","283538","0.0-4.0-1.128","17","Low_HMMActual","null","","","","Images/BlackBeadChoice.png","null"
"image-keyboard-response","406","284041","0.0-4.0-2.128","17","Low_HMMActual","null","","","","Images/BlackBeadChoiceCorrect.png","null"
"image-keyboard-response","407","284092","0.0-4.0-0.129","17","Low_HMMActual","50.87499995715916","","","","Images/NewTrialBC.png","37"
"image-keyboard-response","408","284344","0.0-4.0-1.129","17","Low_HMMActual","null","","","","Images/BlackBeadChoice.png","null"
"image-keyboard-response","409","284846","0.0-4.0-2.129","17","Low_HMMActual","null","","","","Images/BlackBeadChoiceCorrect.png","null"
"image-keyboard-response","410","285055","0.0-4.0-0.130","17","Low_HMMActual","208.85499997530133","","","","Images/NewTrialBC.png","39"
"image-keyboard-response","411","285307","0.0-4.0-1.130","17","Low_HMMActual","null","","","","Images/WhiteBeadChoice.png","null"
"image-keyboard-response","412","285809","0.0-4.0-2.130","17","Low_HMMActual","null","","","","Images/WhiteBeadChoiceCorrect.png","null"
"image-keyboard-response","413","285906","0.0-4.0-0.131","17","Low_HMMActual","96.12999996170402","","","","Images/NewTrialWC.png","37"
"image-keyboard-response","414","286157","0.0-4.0-1.131","17","Low_HMMActual","null","","","","Images/BlackBeadChoice.png","null"
"image-keyboard-response","415","286659","0.0-4.0-2.131","17","Low_HMMActual","null","","","","Images/BlackBeadChoiceWrong.png","null"
"image-keyboard-response","416","287024","0.0-4.0-0.132","17","Low_HMMActual","363.9200000325218","","","","Images/NewTrialWC.png","39"
"image-keyboard-response","417","287276","0.0-4.0-1.132","17","Low_HMMActual","null","","","","Images/WhiteBeadChoice.png","null"
"image-keyboard-response","418","287779","0.0-4.0-2.132","17","Low_HMMActual","null","","","","Images/WhiteBeadChoiceCorrect.png","null"
"image-keyboard-response","419","287997","0.0-4.0-0.133","17","Low_HMMActual","217.18000003602356","","","","Images/NewTrialWC.png","39"
"image-keyboard-response","420","288249","0.0-4.0-1.133","17","Low_HMMActual","null","","","","Images/WhiteBeadChoice.png","null"
"image-keyboard-response","421","288751","0.0-4.0-2.133","17","Low_HMMActual","null","","","","Images/WhiteBeadChoiceCorrect.png","null"
"image-keyboard-response","422","288906","0.0-4.0-0.134","17","Low_HMMActual","153.8299999665469","","","","Images/NewTrialWC.png","39"
"image-keyboard-response","423","289158","0.0-4.0-1.134","17","Low_HMMActual","null","","","","Images/WhiteBeadChoice.png","null"
"image-keyboard-response","424","289660","0.0-4.0-2.134","17","Low_HMMActual","null","","","","Images/WhiteBeadChoiceWrong.png","null"
"image-keyboard-response","425","289926","0.0-4.0-0.135","17","Low_HMMActual","265.24499990046024","","","","Images/NewTrialBC.png","37"
"image-keyboard-response","426","290177","0.0-4.0-1.135","17","Low_HMMActual","null","","","","Images/BlackBeadChoice.png","null"
"image-keyboard-response","427","290679","0.0-4.0-2.135","17","Low_HMMActual","null","","","","Images/BlackBeadChoiceCorrect.png","null"
"image-keyboard-response","428","290776","0.0-4.0-0.136","17","Low_HMMActual","95.85499996319413","","","","Images/NewTrialBC.png","37"
"image-keyboard-response","429","291027","0.0-4.0-1.136","17","Low_HMMActual","null","","","","Images/BlackBeadChoice.png","null"
"image-keyboard-response","430","291529","0.0-4.0-2.136","17","Low_HMMActual","null","","","","Images/BlackBeadChoiceCorrect.png","null"
"image-keyboard-response","431","291724","0.0-4.0-0.137","17","Low_HMMActual","194.26999997813255","","","","Images/NewTrialBC.png","37"
"image-keyboard-response","432","291975","0.0-4.0-1.137","17","Low_HMMActual","null","","","","Images/BlackBeadChoice.png","null"
"image-keyboard-response","433","292478","0.0-4.0-2.137","17","Low_HMMActual","null","","","","Images/BlackBeadChoiceCorrect.png","null"
"image-keyboard-response","434","292642","0.0-4.0-0.138","17","Low_HMMActual","162.6900000264868","","","","Images/NewTrialBC.png","37"
"image-keyboard-response","435","292893","0.0-4.0-1.138","17","Low_HMMActual","null","","","","Images/BlackBeadChoice.png","null"
"image-keyboard-response","436","293396","0.0-4.0-2.138","17","Low_HMMActual","null","","","","Images/BlackBeadChoiceCorrect.png","null"
"image-keyboard-response","437","293525","0.0-4.0-0.139","17","Low_HMMActual","128.39500000700355","","","","Images/NewTrialBC.png","37"
"image-keyboard-response","438","293776","0.0-4.0-1.139","17","Low_HMMActual","null","","","","Images/BlackBeadChoice.png","null"
"image-keyboard-response","439","294278","0.0-4.0-2.139","17","Low_HMMActual","null","","","","Images/BlackBeadChoiceCorrect.png","null"
"image-keyboard-response","440","294456","0.0-4.0-0.140","17","Low_HMMActual","177.0499999402091","","","","Images/NewTrialBC.png","37"
"image-keyboard-response","441","294708","0.0-4.0-1.140","17","Low_HMMActual","null","","","","Images/BlackBeadChoice.png","null"
"image-keyboard-response","442","295210","0.0-4.0-2.140","17","Low_HMMActual","null","","","","Images/BlackBeadChoiceCorrect.png","null"
"image-keyboard-response","443","295352","0.0-4.0-0.141","17","Low_HMMActual","140.15999995172024","","","","Images/NewTrialBC.png","37"
"image-keyboard-response","444","295604","0.0-4.0-1.141","17","Low_HMMActual","null","","","","Images/BlackBeadChoice.png","null"
"image-keyboard-response","445","296106","0.0-4.0-2.141","17","Low_HMMActual","null","","","","Images/BlackBeadChoiceCorrect.png","null"
"image-keyboard-response","446","296347","0.0-4.0-0.142","17","Low_HMMActual","239.96499995701015","","","","Images/NewTrialBC.png","37"
"image-keyboard-response","447","296599","0.0-4.0-1.142","17","Low_HMMActual","null","","","","Images/BlackBeadChoice.png","null"
"image-keyboard-response","448","297101","0.0-4.0-2.142","17","Low_HMMActual","null","","","","Images/BlackBeadChoiceCorrect.png","null"
"image-keyboard-response","449","297352","0.0-4.0-0.143","17","Low_HMMActual","250.26499992236495","","","","Images/NewTrialBC.png","37"
"image-keyboard-response","450","297604","0.0-4.0-1.143","17","Low_HMMActual","null","","","","Images/BlackBeadChoice.png","null"
"image-keyboard-response","451","298106","0.0-4.0-2.143","17","Low_HMMActual","null","","","","Images/BlackBeadChoiceCorrect.png","null"
"image-keyboard-response","452","298379","0.0-4.0-0.144","17","Low_HMMActual","271.7399999964982","","","","Images/NewTrialBC.png","37"
"image-keyboard-response","453","298630","0.0-4.0-1.144","17","Low_HMMActual","null","","","","Images/BlackBeadChoice.png","null"
"image-keyboard-response","454","299133","0.0-4.0-2.144","17","Low_HMMActual","null","","","","Images/BlackBeadChoiceCorrect.png","null"
"image-keyboard-response","455","299388","0.0-4.0-0.145","17","Low_HMMActual","253.98499995935708","","","","Images/NewTrialBC.png","37"
"image-keyboard-response","456","299639","0.0-4.0-1.145","17","Low_HMMActual","null","","","","Images/BlackBeadChoice.png","null"
"image-keyboard-response","457","300142","0.0-4.0-2.145","17","Low_HMMActual","null","","","","Images/BlackBeadChoiceCorrect.png","null"
"image-keyboard-response","458","300354","0.0-4.0-0.146","17","Low_HMMActual","211.37999999336898","","","","Images/NewTrialBC.png","37"
"image-keyboard-response","459","300606","0.0-4.0-1.146","17","Low_HMMActual","null","","","","Images/BlackBeadChoice.png","null"
"image-keyboard-response","460","301108","0.0-4.0-2.146","17","Low_HMMActual","426.4700000640005","","","","Images/BlackBeadChoiceWrong.png","39"
"image-keyboard-response","461","301494","0.0-4.0-0.147","17","Low_HMMActual","385.1599999470636","","","","Images/NewTrialWC.png","39"
"image-keyboard-response","462","301746","0.0-4.0-1.147","17","Low_HMMActual","null","","","","Images/WhiteBeadChoice.png","null"
"image-keyboard-response","463","302248","0.0-4.0-2.147","17","Low_HMMActual","null","","","","Images/WhiteBeadChoiceWrong.png","null"
"image-keyboard-response","464","302553","0.0-4.0-0.148","17","Low_HMMActual","303.6400000564754","","","","Images/NewTrialBC.png","37"
"image-keyboard-response","465","302804","0.0-4.0-1.148","17","Low_HMMActual","null","","","","Images/BlackBeadChoice.png","null"
"image-keyboard-response","466","303306","0.0-4.0-2.148","17","Low_HMMActual","null","","","","Images/BlackBeadChoiceCorrect.png","null"
"image-keyboard-response","467","303645","0.0-4.0-0.149","17","Low_HMMActual","338.11000001151115","","","","Images/NewTrialBC.png","37"
"image-keyboard-response","468","303897","0.0-4.0-1.149","17","Low_HMMActual","null","","","","Images/BlackBeadChoice.png","null"
"image-keyboard-response","469","304398","0.0-4.0-2.149","17","Low_HMMActual","null","","","","Images/BlackBeadChoiceCorrect.png","null"
"image-keyboard-response","470","304639","0.0-4.0-0.150","17","Low_HMMActual","239.35000004712492","","","","Images/NewTrialBC.png","37"
"image-keyboard-response","471","304890","0.0-4.0-1.150","17","Low_HMMActual","null","","","","Images/BlackBeadChoice.png","null"
"image-keyboard-response","472","305392","0.0-4.0-2.150","17","Low_HMMActual","null","","","","Images/BlackBeadChoiceCorrect.png","null"
"image-keyboard-response","473","305669","0.0-4.0-0.151","17","Low_HMMActual","275.5550000583753","","","","Images/NewTrialBC.png","37"
"image-keyboard-response","474","305921","0.0-4.0-1.151","17","Low_HMMActual","null","","","","Images/BlackBeadChoice.png","null"
"image-keyboard-response","475","306423","0.0-4.0-2.151","17","Low_HMMActual","null","","","","Images/BlackBeadChoiceCorrect.png","null"
"image-keyboard-response","476","306847","0.0-4.0-0.152","17","Low_HMMActual","423.68999996688217","","","","Images/NewTrialBC.png","39"
"image-keyboard-response","477","307099","0.0-4.0-1.152","17","Low_HMMActual","null","","","","Images/WhiteBeadChoice.png","null"
"image-keyboard-response","478","307601","0.0-4.0-2.152","17","Low_HMMActual","null","","","","Images/WhiteBeadChoiceCorrect.png","null"
"image-keyboard-response","479","307850","0.0-4.0-0.153","17","Low_HMMActual","248.2249999884516","","","","Images/NewTrialWC.png","37"
"image-keyboard-response","480","308103","0.0-4.0-1.153","17","Low_HMMActual","null","","","","Images/BlackBeadChoice.png","null"
"image-keyboard-response","481","308605","0.0-4.0-2.153","17","Low_HMMActual","null","","","","Images/BlackBeadChoiceCorrect.png","null"
"image-keyboard-response","482","309117","0.0-4.0-0.154","17","Low_HMMActual","510.3249999228865","","","","Images/NewTrialBC.png","37"
"image-keyboard-response","483","309369","0.0-4.0-1.154","17","Low_HMMActual","null","","","","Images/BlackBeadChoice.png","null"
"image-keyboard-response","484","309871","0.0-4.0-2.154","17","Low_HMMActual","null","","","","Images/BlackBeadChoiceCorrect.png","null"
"image-keyboard-response","485","310270","0.0-4.0-0.155","17","Low_HMMActual","398.0699999956414","","","","Images/NewTrialBC.png","37"
"image-keyboard-response","486","310522","0.0-4.0-1.155","17","Low_HMMActual","null","","","","Images/BlackBeadChoice.png","null"
"image-keyboard-response","487","311023","0.0-4.0-2.155","17","Low_HMMActual","null","","","","Images/BlackBeadChoiceWrong.png","null"
"image-keyboard-response","488","311343","0.0-4.0-0.156","17","Low_HMMActual","318.5949999606237","","","","Images/NewTrialWC.png","39"
"image-keyboard-response","489","311595","0.0-4.0-1.156","17","Low_HMMActual","null","","","","Images/WhiteBeadChoice.png","null"
"image-keyboard-response","490","312097","0.0-4.0-2.156","17","Low_HMMActual","null","","","","Images/WhiteBeadChoiceWrong.png","null"
"image-keyboard-response","491","312477","0.0-4.0-0.157","17","Low_HMMActual","378.9349999278784","","","","Images/NewTrialBC.png","37"
"image-keyboard-response","492","312728","0.0-4.0-1.157","17","Low_HMMActual","null","","","","Images/BlackBeadChoice.png","null"
"image-keyboard-response","493","313230","0.0-4.0-2.157","17","Low_HMMActual","null","","","","Images/BlackBeadChoiceCorrect.png","null"
"image-keyboard-response","494","313462","0.0-4.0-0.158","17","Low_HMMActual","231.30499990656972","","","","Images/NewTrialBC.png","37"
"image-keyboard-response","495","313714","0.0-4.0-1.158","17","Low_HMMActual","null","","","","Images/BlackBeadChoice.png","null"
"image-keyboard-response","496","314216","0.0-4.0-2.158","17","Low_HMMActual","null","","","","Images/BlackBeadChoiceCorrect.png","null"
"image-keyboard-response","497","314430","0.0-4.0-0.159","17","Low_HMMActual","212.38499996252358","","","","Images/NewTrialBC.png","37"
"image-keyboard-response","498","314682","0.0-4.0-1.159","17","Low_HMMActual","null","","","","Images/BlackBeadChoice.png","null"
"image-keyboard-response","499","315184","0.0-4.0-2.159","17","Low_HMMActual","null","","","","Images/BlackBeadChoiceCorrect.png","null"
"image-keyboard-response","500","315323","0.0-4.0-0.160","17","Low_HMMActual","137.9949999973178","","","","Images/NewTrialBC.png","37"
"image-keyboard-response","501","315574","0.0-4.0-1.160","17","Low_HMMActual","null","","","","Images/BlackBeadChoice.png","null"
"image-keyboard-response","502","316076","0.0-4.0-2.160","17","Low_HMMActual","null","","","","Images/BlackBeadChoiceCorrect.png","null"
"image-keyboard-response","503","316183","0.0-4.0-0.161","17","Low_HMMActual","105.96499999519438","","","","Images/NewTrialBC.png","37"
"image-keyboard-response","504","316435","0.0-4.0-1.161","17","Low_HMMActual","null","","","","Images/BlackBeadChoice.png","null"
"image-keyboard-response","505","316938","0.0-4.0-2.161","17","Low_HMMActual","null","","","","Images/BlackBeadChoiceCorrect.png","null"
"image-keyboard-response","506","316962","0.0-4.0-0.162","17","Low_HMMActual","22.46999996714294","","","","Images/NewTrialBC.png","37"
"image-keyboard-response","507","317213","0.0-4.0-1.162","17","Low_HMMActual","null","","","","Images/BlackBeadChoice.png","null"
"image-keyboard-response","508","317715","0.0-4.0-2.162","17","Low_HMMActual","null","","","","Images/BlackBeadChoiceCorrect.png","null"
"image-keyboard-response","509","317867","0.0-4.0-0.163","17","Low_HMMActual","151.14500001072884","","","","Images/NewTrialBC.png","37"
"image-keyboard-response","510","318119","0.0-4.0-1.163","17","Low_HMMActual","null","","","","Images/BlackBeadChoice.png","null"
"image-keyboard-response","511","318622","0.0-4.0-2.163","17","Low_HMMActual","null","","","","Images/BlackBeadChoiceCorrect.png","null"
"image-keyboard-response","512","318779","0.0-4.0-0.164","17","Low_HMMActual","156.71499993186444","","","","Images/NewTrialBC.png","37"
"image-keyboard-response","513","319032","0.0-4.0-1.164","17","Low_HMMActual","null","","","","Images/BlackBeadChoice.png","null"
"image-keyboard-response","514","319534","0.0-4.0-2.164","17","Low_HMMActual","null","","","","Images/BlackBeadChoiceCorrect.png","null"
"image-keyboard-response","515","319731","0.0-4.0-0.165","17","Low_HMMActual","196.62499998230487","","","","Images/NewTrialBC.png","37"
"image-keyboard-response","516","319983","0.0-4.0-1.165","17","Low_HMMActual","null","","","","Images/BlackBeadChoice.png","null"
"image-keyboard-response","517","320484","0.0-4.0-2.165","17","Low_HMMActual","null","","","","Images/BlackBeadChoiceCorrect.png","null"
"image-keyboard-response","518","320733","0.0-4.0-0.166","17","Low_HMMActual","247.1850001020357","","","","Images/NewTrialBC.png","37"
"image-keyboard-response","519","320984","0.0-4.0-1.166","17","Low_HMMActual","null","","","","Images/BlackBeadChoice.png","null"
"image-keyboard-response","520","321487","0.0-4.0-2.166","17","Low_HMMActual","null","","","","Images/BlackBeadChoiceCorrect.png","null"
"image-keyboard-response","521","321647","0.0-4.0-0.167","17","Low_HMMActual","159.54500006046146","","","","Images/NewTrialBC.png","37"
"image-keyboard-response","522","321900","0.0-4.0-1.167","17","Low_HMMActual","null","","","","Images/BlackBeadChoice.png","null"
"image-keyboard-response","523","322402","0.0-4.0-2.167","17","Low_HMMActual","null","","","","Images/BlackBeadChoiceCorrect.png","null"
"image-keyboard-response","524","322585","0.0-4.0-0.168","17","Low_HMMActual","182.340000057593","","","","Images/NewTrialBC.png","37"
"image-keyboard-response","525","322836","0.0-4.0-1.168","17","Low_HMMActual","null","","","","Images/BlackBeadChoice.png","null"
"image-keyboard-response","526","323339","0.0-4.0-2.168","17","Low_HMMActual","null","","","","Images/BlackBeadChoiceCorrect.png","null"
"image-keyboard-response","527","323511","0.0-4.0-0.169","17","Low_HMMActual","170.1400000602007","","","","Images/NewTrialBC.png","37"
"image-keyboard-response","528","323762","0.0-4.0-1.169","17","Low_HMMActual","null","","","","Images/BlackBeadChoice.png","null"
"image-keyboard-response","529","324263","0.0-4.0-2.169","17","Low_HMMActual","null","","","","Images/BlackBeadChoiceCorrect.png","null"
"image-keyboard-response","530","324389","0.0-4.0-0.170","17","Low_HMMActual","125.11000002268702","","","","Images/NewTrialBC.png","37"
"image-keyboard-response","531","324641","0.0-4.0-1.170","17","Low_HMMActual","null","","","","Images/BlackBeadChoice.png","null"
"image-keyboard-response","532","325143","0.0-4.0-2.170","17","Low_HMMActual","null","","","","Images/BlackBeadChoiceWrong.png","null"
"image-keyboard-response","533","325287","0.0-4.0-0.171","17","Low_HMMActual","143.5050000436604","","","","Images/NewTrialWC.png","39"
"image-keyboard-response","534","325540","0.0-4.0-1.171","17","Low_HMMActual","null","","","","Images/WhiteBeadChoice.png","null"
"image-keyboard-response","535","326042","0.0-4.0-2.171","17","Low_HMMActual","null","","","","Images/WhiteBeadChoiceWrong.png","null"
"image-keyboard-response","536","326345","0.0-4.0-0.172","17","Low_HMMActual","302.1350000053644","","","","Images/NewTrialBC.png","37"
"image-keyboard-response","537","326597","0.0-4.0-1.172","17","Low_HMMActual","null","","","","Images/BlackBeadChoice.png","null"
"image-keyboard-response","538","327099","0.0-4.0-2.172","17","Low_HMMActual","null","","","","Images/BlackBeadChoiceCorrect.png","null"
"image-keyboard-response","539","327417","0.0-4.0-0.173","17","Low_HMMActual","316.69000000692904","","","","Images/NewTrialBC.png","37"
"image-keyboard-response","540","327668","0.0-4.0-1.173","17","Low_HMMActual","null","","","","Images/BlackBeadChoice.png","null"
"image-keyboard-response","541","328170","0.0-4.0-2.173","17","Low_HMMActual","null","","","","Images/BlackBeadChoiceCorrect.png","null"
"image-keyboard-response","542","328377","0.0-4.0-0.174","17","Low_HMMActual","206.54499996453524","","","","Images/NewTrialBC.png","37"
"image-keyboard-response","543","328629","0.0-4.0-1.174","17","Low_HMMActual","null","","","","Images/BlackBeadChoice.png","null"
"image-keyboard-response","544","329130","0.0-4.0-2.174","17","Low_HMMActual","null","","","","Images/BlackBeadChoiceCorrect.png","null"
"image-keyboard-response","545","329318","0.0-4.0-0.175","17","Low_HMMActual","186.5799999795854","","","","Images/NewTrialBC.png","37"
"image-keyboard-response","546","329569","0.0-4.0-1.175","17","Low_HMMActual","null","","","","Images/BlackBeadChoice.png","null"
"image-keyboard-response","547","330071","0.0-4.0-2.175","17","Low_HMMActual","null","","","","Images/BlackBeadChoiceCorrect.png","null"
"image-keyboard-response","548","330473","0.0-4.0-0.176","17","Low_HMMActual","400.6599999265745","","","","Images/NewTrialBC.png","37"
"image-keyboard-response","549","330725","0.0-4.0-1.176","17","Low_HMMActual","null","","","","Images/BlackBeadChoice.png","null"
"image-keyboard-response","550","331227","0.0-4.0-2.176","17","Low_HMMActual","null","","","","Images/BlackBeadChoiceCorrect.png","null"
"image-keyboard-response","551","331435","0.0-4.0-0.177","17","Low_HMMActual","207.30999996885657","","","","Images/NewTrialBC.png","37"
"image-keyboard-response","552","331687","0.0-4.0-1.177","17","Low_HMMActual","null","","","","Images/BlackBeadChoice.png","null"
"image-keyboard-response","553","332188","0.0-4.0-2.177","17","Low_HMMActual","null","","","","Images/BlackBeadChoiceCorrect.png","null"
"image-keyboard-response","554","332477","0.0-4.0-0.178","17","Low_HMMActual","287.5800000037998","","","","Images/NewTrialBC.png","37"
"image-keyboard-response","555","332729","0.0-4.0-1.178","17","Low_HMMActual","null","","","","Images/BlackBeadChoice.png","null"
"image-keyboard-response","556","333231","0.0-4.0-2.178","17","Low_HMMActual","null","","","","Images/BlackBeadChoiceCorrect.png","null"
"image-keyboard-response","557","333357","0.0-4.0-0.179","17","Low_HMMActual","125.73999993037432","","","","Images/NewTrialBC.png","37"
"image-keyboard-response","558","333610","0.0-4.0-1.179","17","Low_HMMActual","null","","","","Images/BlackBeadChoice.png","null"
"image-keyboard-response","559","334112","0.0-4.0-2.179","17","Low_HMMActual","null","","","","Images/BlackBeadChoiceCorrect.png","null"
"image-keyboard-response","560","334448","0.0-4.0-0.180","17","Low_HMMActual","335.5699999956414","","","","Images/NewTrialBC.png","37"
"image-keyboard-response","561","334700","0.0-4.0-1.180","17","Low_HMMActual","null","","","","Images/BlackBeadChoice.png","null"
"image-keyboard-response","562","335202","0.0-4.0-2.180","17","Low_HMMActual","null","","","","Images/BlackBeadChoiceCorrect.png","null"
"image-keyboard-response","563","335510","0.0-4.0-0.181","17","Low_HMMActual","306.6800000378862","","","","Images/NewTrialBC.png","37"
"image-keyboard-response","564","335761","0.0-4.0-1.181","17","Low_HMMActual","null","","","","Images/BlackBeadChoice.png","null"
"image-keyboard-response","565","336263","0.0-4.0-2.181","17","Low_HMMActual","null","","","","Images/BlackBeadChoiceCorrect.png","null"
"image-keyboard-response","566","336520","0.0-4.0-0.182","17","Low_HMMActual","256.180000025779","","","","Images/NewTrialBC.png","37"
"image-keyboard-response","567","336772","0.0-4.0-1.182","17","Low_HMMActual","null","","","","Images/BlackBeadChoice.png","null"
"image-keyboard-response","568","337274","0.0-4.0-2.182","17","Low_HMMActual","null","","","","Images/BlackBeadChoiceCorrect.png","null"
"image-keyboard-response","569","337441","0.0-4.0-0.183","17","Low_HMMActual","166.315000038594","","","","Images/NewTrialBC.png","37"
"image-keyboard-response","570","337693","0.0-4.0-1.183","17","Low_HMMActual","null","","","","Images/BlackBeadChoice.png","null"
"image-keyboard-response","571","338196","0.0-4.0-2.183","17","Low_HMMActual","null","","","","Images/BlackBeadChoiceCorrect.png","null"
"image-keyboard-response","572","338823","0.0-4.0-0.184","17","Low_HMMActual","626.0149999288842","","","","Images/NewTrialBC.png","37"
"image-keyboard-response","573","339074","0.0-4.0-1.184","17","Low_HMMActual","null","","","","Images/BlackBeadChoice.png","null"
"image-keyboard-response","574","339576","0.0-4.0-2.184","17","Low_HMMActual","null","","","","Images/BlackBeadChoiceCorrect.png","null"
"image-keyboard-response","575","339857","0.0-4.0-0.185","17","Low_HMMActual","279.30499997455627","","","","Images/NewTrialBC.png","37"
"image-keyboard-response","576","340109","0.0-4.0-1.185","17","Low_HMMActual","null","","","","Images/BlackBeadChoice.png","null"
"image-keyboard-response","577","340611","0.0-4.0-2.185","17","Low_HMMActual","null","","","","Images/BlackBeadChoiceWrong.png","null"
"image-keyboard-response","578","340893","0.0-4.0-0.186","17","Low_HMMActual","281.1400000937283","","","","Images/NewTrialWC.png","39"
"image-keyboard-response","579","341144","0.0-4.0-1.186","17","Low_HMMActual","null","","","","Images/WhiteBeadChoice.png","null"
"image-keyboard-response","580","341647","0.0-4.0-2.186","17","Low_HMMActual","null","","","","Images/WhiteBeadChoiceCorrect.png","null"
"image-keyboard-response","581","342032","0.0-4.0-0.187","17","Low_HMMActual","384.75000008475035","","","","Images/NewTrialWC.png","39"
"image-keyboard-response","582","342283","0.0-4.0-1.187","17","Low_HMMActual","null","","","","Images/WhiteBeadChoice.png","null"
"image-keyboard-response","583","342786","0.0-4.0-2.187","17","Low_HMMActual","null","","","","Images/WhiteBeadChoiceCorrect.png","null"
"image-keyboard-response","584","343096","0.0-4.0-0.188","17","Low_HMMActual","307.7949999133125","","","","Images/NewTrialWC.png","39"
"image-keyboard-response","585","343347","0.0-4.0-1.188","17","Low_HMMActual","null","","","","Images/WhiteBeadChoice.png","null"
"image-keyboard-response","586","343849","0.0-4.0-2.188","17","Low_HMMActual","null","","","","Images/WhiteBeadChoiceWrong.png","null"
"image-keyboard-response","587","344160","0.0-4.0-0.189","17","Low_HMMActual","310.1050000404939","","","","Images/NewTrialBC.png","37"
"image-keyboard-response","588","344413","0.0-4.0-1.189","17","Low_HMMActual","null","","","","Images/BlackBeadChoice.png","null"
"image-keyboard-response","589","344914","0.0-4.0-2.189","17","Low_HMMActual","null","","","","Images/BlackBeadChoiceWrong.png","null"
"image-keyboard-response","590","345236","0.0-4.0-0.190","17","Low_HMMActual","321.80000003427267","","","","Images/NewTrialWC.png","39"
"image-keyboard-response","591","345488","0.0-4.0-1.190","17","Low_HMMActual","null","","","","Images/WhiteBeadChoice.png","null"
"image-keyboard-response","592","345991","0.0-4.0-2.190","17","Low_HMMActual","null","","","","Images/WhiteBeadChoiceWrong.png","null"
"image-keyboard-response","593","346171","0.0-4.0-0.191","17","Low_HMMActual","179.2699999641627","","","","Images/NewTrialBC.png","37"
"image-keyboard-response","594","346422","0.0-4.0-1.191","17","Low_HMMActual","null","","","","Images/BlackBeadChoice.png","null"
"image-keyboard-response","595","346924","0.0-4.0-2.191","17","Low_HMMActual","null","","","","Images/BlackBeadChoiceWrong.png","null"
"image-keyboard-response","596","347024","0.0-4.0-0.192","17","Low_HMMActual","99.19500001706183","","","","Images/NewTrialWC.png","39"
"image-keyboard-response","597","347276","0.0-4.0-1.192","17","Low_HMMActual","null","","","","Images/WhiteBeadChoice.png","null"
"image-keyboard-response","598","347778","0.0-4.0-2.192","17","Low_HMMActual","null","","","","Images/WhiteBeadChoiceWrong.png","null"
"image-keyboard-response","599","348295","0.0-4.0-0.193","17","Low_HMMActual","516.5499999420717","","","","Images/NewTrialBC.png","37"
"image-keyboard-response","600","348547","0.0-4.0-1.193","17","Low_HMMActual","null","","","","Images/BlackBeadChoice.png","null"
"image-keyboard-response","601","349049","0.0-4.0-2.193","17","Low_HMMActual","null","","","","Images/BlackBeadChoiceCorrect.png","null"
"image-keyboard-response","602","349117","0.0-4.0-0.194","17","Low_HMMActual","65.86000008974224","","","","Images/NewTrialBC.png","37"
"image-keyboard-response","603","349370","0.0-4.0-1.194","17","Low_HMMActual","null","","","","Images/BlackBeadChoice.png","null"
"image-keyboard-response","604","349871","0.0-4.0-2.194","17","Low_HMMActual","null","","","","Images/BlackBeadChoiceWrong.png","null"
"image-keyboard-response","605","350342","0.0-4.0-0.195","17","Low_HMMActual","469.70000001601875","","","","Images/NewTrialWC.png","39"
"image-keyboard-response","606","350594","0.0-4.0-1.195","17","Low_HMMActual","null","","","","Images/WhiteBeadChoice.png","null"
"image-keyboard-response","607","351096","0.0-4.0-2.195","17","Low_HMMActual","null","","","","Images/WhiteBeadChoiceWrong.png","null"
"image-keyboard-response","608","351592","0.0-4.0-0.196","17","Low_HMMActual","495.0850000604987","","","","Images/NewTrialBC.png","37"
"image-keyboard-response","609","351844","0.0-4.0-1.196","17","Low_HMMActual","null","","","","Images/BlackBeadChoice.png","null"
"image-keyboard-response","610","352346","0.0-4.0-2.196","17","Low_HMMActual","null","","","","Images/BlackBeadChoiceWrong.png","null"
"image-keyboard-response","611","352621","0.0-4.0-0.197","17","Low_HMMActual","273.84499995969236","","","","Images/NewTrialWC.png","39"
"image-keyboard-response","612","352872","0.0-4.0-1.197","17","Low_HMMActual","null","","","","Images/WhiteBeadChoice.png","null"
"image-keyboard-response","613","353375","0.0-4.0-2.197","17","Low_HMMActual","null","","","","Images/WhiteBeadChoiceCorrect.png","null"
"image-keyboard-response","614","353793","0.0-4.0-0.198","17","Low_HMMActual","417.1199999982491","","","","Images/NewTrialWC.png","39"
"image-keyboard-response","615","354045","0.0-4.0-1.198","17","Low_HMMActual","null","","","","Images/WhiteBeadChoice.png","null"
"image-keyboard-response","616","354546","0.0-4.0-2.198","17","Low_HMMActual","null","","","","Images/WhiteBeadChoiceWrong.png","null"
"image-keyboard-response","617","354844","0.0-4.0-0.199","17","Low_HMMActual","296.985000022687","","","","Images/NewTrialBC.png","37"
"image-keyboard-response","618","355096","0.0-4.0-1.199","17","Low_HMMActual","null","","","","Images/BlackBeadChoice.png","null"
"image-keyboard-response","619","355598","0.0-4.0-2.199","17","Low_HMMActual","null","","","","Images/BlackBeadChoiceWrong.png","null"
"image-keyboard-response","620","355924","0.0-4.0-0.200","17","Low_HMMActual","325.19999996293336","","","","Images/NewTrialWC.png","39"
"image-keyboard-response","621","356176","0.0-4.0-1.200","17","Low_HMMActual","null","","","","Images/WhiteBeadChoice.png","null"
"image-keyboard-response","622","356677","0.0-4.0-2.200","17","Low_HMMActual","null","","","","Images/WhiteBeadChoiceCorrect.png","null"
"image-keyboard-response","623","357072","0.0-4.0-0.201","17","Low_HMMActual","393.915000022389","","","","Images/NewTrialWC.png","39"
"image-keyboard-response","624","357324","0.0-4.0-1.201","17","Low_HMMActual","null","","","","Images/WhiteBeadChoice.png","null"
"image-keyboard-response","625","357825","0.0-4.0-2.201","17","Low_HMMActual","null","","","","Images/WhiteBeadChoiceWrong.png","null"
"image-keyboard-response","626","358103","0.0-4.0-0.202","17","Low_HMMActual","277.3799999849871","","","","Images/NewTrialBC.png","37"
"image-keyboard-response","627","358356","0.0-4.0-1.202","17","Low_HMMActual","null","","","","Images/BlackBeadChoice.png","null"
"image-keyboard-response","628","358858","0.0-4.0-2.202","17","Low_HMMActual","null","","","","Images/BlackBeadChoiceWrong.png","null"
"image-keyboard-response","629","359086","0.0-4.0-0.203","17","Low_HMMActual","227.33000002335757","","","","Images/NewTrialWC.png","39"
"image-keyboard-response","630","359338","0.0-4.0-1.203","17","Low_HMMActual","null","","","","Images/WhiteBeadChoice.png","null"
"image-keyboard-response","631","359840","0.0-4.0-2.203","17","Low_HMMActual","null","","","","Images/WhiteBeadChoiceCorrect.png","null"
"image-keyboard-response","632","360274","0.0-4.0-0.204","17","Low_HMMActual","432.8700000187382","","","","Images/NewTrialWC.png","39"
"image-keyboard-response","633","360525","0.0-4.0-1.204","17","Low_HMMActual","null","","","","Images/WhiteBeadChoice.png","null"
"image-keyboard-response","634","361027","0.0-4.0-2.204","17","Low_HMMActual","null","","","","Images/WhiteBeadChoiceCorrect.png","null"
"image-keyboard-response","635","361310","0.0-4.0-0.205","17","Low_HMMActual","281.8599999882281","","","","Images/NewTrialWC.png","39"
"image-keyboard-response","636","361562","0.0-4.0-1.205","17","Low_HMMActual","null","","","","Images/WhiteBeadChoice.png","null"
"image-keyboard-response","637","362064","0.0-4.0-2.205","17","Low_HMMActual","null","","","","Images/WhiteBeadChoiceCorrect.png","null"
"image-keyboard-response","638","362498","0.0-4.0-0.206","17","Low_HMMActual","432.2849999880418","","","","Images/NewTrialWC.png","37"
"image-keyboard-response","639","362749","0.0-4.0-1.206","17","Low_HMMActual","null","","","","Images/BlackBeadChoice.png","null"
"image-keyboard-response","640","363253","0.0-4.0-2.206","17","Low_HMMActual","null","","","","Images/BlackBeadChoiceCorrect.png","null"
"image-keyboard-response","641","363537","0.0-4.0-0.207","17","Low_HMMActual","283.05500000715256","","","","Images/NewTrialBC.png","39"
"image-keyboard-response","642","363789","0.0-4.0-1.207","17","Low_HMMActual","null","","","","Images/WhiteBeadChoice.png","null"
"image-keyboard-response","643","364290","0.0-4.0-2.207","17","Low_HMMActual","null","","","","Images/WhiteBeadChoiceCorrect.png","null"
"image-keyboard-response","644","364852","0.0-4.0-0.208","17","Low_HMMActual","561.089999973774","","","","Images/NewTrialWC.png","39"
"image-keyboard-response","645","365104","0.0-4.0-1.208","17","Low_HMMActual","null","","","","Images/WhiteBeadChoice.png","null"
"image-keyboard-response","646","365607","0.0-4.0-2.208","17","Low_HMMActual","null","","","","Images/WhiteBeadChoiceWrong.png","null"
"image-keyboard-response","647","365876","0.0-4.0-0.209","17","Low_HMMActual","267.89000001735985","","","","Images/NewTrialBC.png","37"
"image-keyboard-response","648","366127","0.0-4.0-1.209","17","Low_HMMActual","null","","","","Images/BlackBeadChoice.png","null"
"image-keyboard-response","649","366630","0.0-4.0-2.209","17","Low_HMMActual","null","","","","Images/BlackBeadChoiceWrong.png","null"
"image-keyboard-response","650","367234","0.0-4.0-0.210","17","Low_HMMActual","603.4549999749288","","","","Images/NewTrialWC.png","39"
"image-keyboard-response","651","367486","0.0-4.0-1.210","17","Low_HMMActual","null","","","","Images/WhiteBeadChoice.png","null"
"image-keyboard-response","652","367988","0.0-4.0-2.210","17","Low_HMMActual","null","","","","Images/WhiteBeadChoiceCorrect.png","null"
"image-keyboard-response","653","368285","0.0-4.0-0.211","17","Low_HMMActual","295.20499997306615","","","","Images/NewTrialWC.png","39"
"image-keyboard-response","654","368537","0.0-4.0-1.211","17","Low_HMMActual","null","","","","Images/WhiteBeadChoice.png","null"
"image-keyboard-response","655","369039","0.0-4.0-2.211","17","Low_HMMActual","null","","","","Images/WhiteBeadChoiceCorrect.png","null"
"image-keyboard-response","656","369371","0.0-4.0-0.212","17","Low_HMMActual","330.87499998509884","","","","Images/NewTrialWC.png","39"
"image-keyboard-response","657","369622","0.0-4.0-1.212","17","Low_HMMActual","null","","","","Images/WhiteBeadChoice.png","null"
"image-keyboard-response","658","370123","0.0-4.0-2.212","17","Low_HMMActual","null","","","","Images/WhiteBeadChoiceCorrect.png","null"
"image-keyboard-response","659","370271","0.0-4.0-0.213","17","Low_HMMActual","146.9950000755489","","","","Images/NewTrialWC.png","39"
"image-keyboard-response","660","370523","0.0-4.0-1.213","17","Low_HMMActual","null","","","","Images/WhiteBeadChoice.png","null"
"image-keyboard-response","661","371025","0.0-4.0-2.213","17","Low_HMMActual","null","","","","Images/WhiteBeadChoiceCorrect.png","null"
"image-keyboard-response","662","371295","0.0-4.0-0.214","17","Low_HMMActual","268.8849999103695","","","","Images/NewTrialWC.png","39"
"image-keyboard-response","663","371547","0.0-4.0-1.214","17","Low_HMMActual","null","","","","Images/WhiteBeadChoice.png","null"
"image-keyboard-response","664","372048","0.0-4.0-2.214","17","Low_HMMActual","null","","","","Images/WhiteBeadChoiceWrong.png","null"
"image-keyboard-response","665","372333","0.0-4.0-0.215","17","Low_HMMActual","284.0650000143796","","","","Images/NewTrialBC.png","37"
"image-keyboard-response","666","372586","0.0-4.0-1.215","17","Low_HMMActual","null","","","","Images/BlackBeadChoice.png","null"
"image-keyboard-response","667","373088","0.0-4.0-2.215","17","Low_HMMActual","null","","","","Images/BlackBeadChoiceWrong.png","null"
"image-keyboard-response","668","373375","0.0-4.0-0.216","17","Low_HMMActual","285.6649999739602","","","","Images/NewTrialWC.png","39"
"image-keyboard-response","669","373627","0.0-4.0-1.216","17","Low_HMMActual","null","","","","Images/WhiteBeadChoice.png","null"
"image-keyboard-response","670","374128","0.0-4.0-2.216","17","Low_HMMActual","null","","","","Images/WhiteBeadChoiceCorrect.png","null"
"image-keyboard-response","671","374631","0.0-4.0-0.217","17","Low_HMMActual","501.56999996397644","","","","Images/NewTrialWC.png","39"
"image-keyboard-response","672","374882","0.0-4.0-1.217","17","Low_HMMActual","null","","","","Images/WhiteBeadChoice.png","null"
"image-keyboard-response","673","375385","0.0-4.0-2.217","17","Low_HMMActual","null","","","","Images/WhiteBeadChoiceCorrect.png","null"
"image-keyboard-response","674","375642","0.0-4.0-0.218","17","Low_HMMActual","256.17499998770654","","","","Images/NewTrialWC.png","39"
"image-keyboard-response","675","375895","0.0-4.0-1.218","17","Low_HMMActual","null","","","","Images/WhiteBeadChoice.png","null"
"image-keyboard-response","676","376398","0.0-4.0-2.218","17","Low_HMMActual","null","","","","Images/WhiteBeadChoiceCorrect.png","null"
"image-keyboard-response","677","376679","0.0-4.0-0.219","17","Low_HMMActual","280.8649999788031","","","","Images/NewTrialWC.png","39"
"image-keyboard-response","678","376931","0.0-4.0-1.219","17","Low_HMMActual","null","","","","Images/WhiteBeadChoice.png","null"
"image-keyboard-response","679","377433","0.0-4.0-2.219","17","Low_HMMActual","null","","","","Images/WhiteBeadChoiceCorrect.png","null"
"image-keyboard-response","680","377751","0.0-4.0-0.220","17","Low_HMMActual","317.2749999212101","","","","Images/NewTrialWC.png","39"
"image-keyboard-response","681","378005","0.0-4.0-1.220","17","Low_HMMActual","null","","","","Images/WhiteBeadChoice.png","null"
"image-keyboard-response","682","378506","0.0-4.0-2.220","17","Low_HMMActual","null","","","","Images/WhiteBeadChoiceCorrect.png","null"
"image-keyboard-response","683","378708","0.0-4.0-0.221","17","Low_HMMActual","200.45000000391155","","","","Images/NewTrialWC.png","39"
"image-keyboard-response","684","378959","0.0-4.0-1.221","17","Low_HMMActual","null","","","","Images/WhiteBeadChoice.png","null"
"image-keyboard-response","685","379462","0.0-4.0-2.221","17","Low_HMMActual","null","","","","Images/WhiteBeadChoiceWrong.png","null"
"image-keyboard-response","686","379740","0.0-4.0-0.222","17","Low_HMMActual","276.9899999257177","","","","Images/NewTrialBC.png","37"
"image-keyboard-response","687","379992","0.0-4.0-1.222","17","Low_HMMActual","null","","","","Images/BlackBeadChoice.png","null"
"image-keyboard-response","688","380494","0.0-4.0-2.222","17","Low_HMMActual","null","","","","Images/BlackBeadChoiceCorrect.png","null"
"image-keyboard-response","689","380840","0.0-4.0-0.223","17","Low_HMMActual","345.4900000942871","","","","Images/NewTrialBC.png","37"
"image-keyboard-response","690","381092","0.0-4.0-1.223","17","Low_HMMActual","null","","","","Images/BlackBeadChoice.png","null"
"image-keyboard-response","691","381595","0.0-4.0-2.223","17","Low_HMMActual","null","","","","Images/BlackBeadChoiceCorrect.png","null"
"image-keyboard-response","692","381915","0.0-4.0-0.224","17","Low_HMMActual","319.60500008426607","","","","Images/NewTrialBC.png","37"
"image-keyboard-response","693","382167","0.0-4.0-1.224","17","Low_HMMActual","null","","","","Images/BlackBeadChoice.png","null"
"image-keyboard-response","694","382669","0.0-4.0-2.224","17","Low_HMMActual","null","","","","Images/BlackBeadChoiceCorrect.png","null"
"image-keyboard-response","695","383050","0.0-4.0-0.225","17","Low_HMMActual","379.74499992560595","","","","Images/NewTrialBC.png","37"
"image-keyboard-response","696","383303","0.0-4.0-1.225","17","Low_HMMActual","null","","","","Images/BlackBeadChoice.png","null"
"image-keyboard-response","697","383804","0.0-4.0-2.225","17","Low_HMMActual","434.61499991826713","","","","Images/BlackBeadChoiceCorrect.png","37"
"image-keyboard-response","698","384301","0.0-4.0-0.226","17","Low_HMMActual","495.89999997988343","","","","Images/NewTrialBC.png","37"
"image-keyboard-response","699","384553","0.0-4.0-1.226","17","Low_HMMActual","null","","","","Images/BlackBeadChoice.png","null"
"image-keyboard-response","700","385055","0.0-4.0-2.226","17","Low_HMMActual","null","","","","Images/BlackBeadChoiceCorrect.png","null"
"image-keyboard-response","701","385169","0.0-4.0-0.227","17","Low_HMMActual","113.2099999813363","","","","Images/NewTrialBC.png","37"
"image-keyboard-response","702","385421","0.0-4.0-1.227","17","Low_HMMActual","null","","","","Images/BlackBeadChoice.png","null"
"image-keyboard-response","703","385923","0.0-4.0-2.227","17","Low_HMMActual","null","","","","Images/BlackBeadChoiceCorrect.png","null"
"image-keyboard-response","704","386163","0.0-4.0-0.228","17","Low_HMMActual","238.28000004868954","","","","Images/NewTrialBC.png","37"
"image-keyboard-response","705","386415","0.0-4.0-1.228","17","Low_HMMActual","null","","","","Images/BlackBeadChoice.png","null"
"image-keyboard-response","706","386918","0.0-4.0-2.228","17","Low_HMMActual","null","","","","Images/BlackBeadChoiceCorrect.png","null"
"image-keyboard-response","707","387284","0.0-4.0-0.229","17","Low_HMMActual","364.8250000551343","","","","Images/NewTrialBC.png","37"
"image-keyboard-response","708","387535","0.0-4.0-1.229","17","Low_HMMActual","null","","","","Images/BlackBeadChoice.png","null"
"image-keyboard-response","709","388037","0.0-4.0-2.229","17","Low_HMMActual","null","","","","Images/BlackBeadChoiceCorrect.png","null"
"image-keyboard-response","710","388515","0.0-4.0-0.230","17","Low_HMMActual","477.66500001307577","","","","Images/NewTrialBC.png","37"
"image-keyboard-response","711","388767","0.0-4.0-1.230","17","Low_HMMActual","null","","","","Images/BlackBeadChoice.png","null"
"image-keyboard-response","712","389270","0.0-4.0-2.230","17","Low_HMMActual","null","","","","Images/BlackBeadChoiceCorrect.png","null"
"image-keyboard-response","713","389568","0.0-4.0-0.231","17","Low_HMMActual","297.45999991428107","","","","Images/NewTrialBC.png","37"
"image-keyboard-response","714","389820","0.0-4.0-1.231","17","Low_HMMActual","null","","","","Images/BlackBeadChoice.png","null"
"image-keyboard-response","715","390322","0.0-4.0-2.231","17","Low_HMMActual","null","","","","Images/BlackBeadChoiceCorrect.png","null"
"image-keyboard-response","716","390675","0.0-4.0-0.232","17","Low_HMMActual","352.1399999735877","","","","Images/NewTrialBC.png","37"
"image-keyboard-response","717","390927","0.0-4.0-1.232","17","Low_HMMActual","null","","","","Images/BlackBeadChoice.png","null"
"image-keyboard-response","718","391428","0.0-4.0-2.232","17","Low_HMMActual","null","","","","Images/BlackBeadChoiceCorrect.png","null"
"image-keyboard-response","719","391705","0.0-4.0-0.233","17","Low_HMMActual","275.38500004447997","","","","Images/NewTrialBC.png","37"
"image-keyboard-response","720","391957","0.0-4.0-1.233","17","Low_HMMActual","null","","","","Images/BlackBeadChoice.png","null"
"image-keyboard-response","721","392459","0.0-4.0-2.233","17","Low_HMMActual","null","","","","Images/BlackBeadChoiceCorrect.png","null"
"image-keyboard-response","722","392868","0.0-4.0-0.234","17","Low_HMMActual","407.8250000020489","","","","Images/NewTrialBC.png","37"
