"trial_type","trial_index","time_elapsed","internal_node_id","Script_Picker","Block_Type","rt","url","responses","question_order","stimulus","key_press"
"pavlovia","0","2","0.0-0.0","15","High_HMMActual","","","","","",""
"external-html","1","241787","0.0-1.0-0.0","15","High_HMMActual","241721.3600000032","consent.html","","","",""
"survey-multi-choice","2","692632","0.0-1.0-1.0","15","High_HMMActual","450842.6199999958","","{""Q0"":""Male"",""Q1"":""White""}","[0,1]","",""
"survey-text","3","696528","0.0-1.0-2.0","15","High_HMMActual","3891.2500000006985","","{""Q0"":""19""}","","",""
"survey-text","4","712733","0.0-1.0-3.0","15","High_HMMActual","16102.969999999972","","{""Q0"":""5e66ff8266355b488818b546""}","","",""
"html-keyboard-response","5","725589","0.0-2.0-0.0","15","High_HMMActual","12753.510000002221","","","","<div class=""container"" style=""height:800px;width:800px;display:flex;flex-direction:column;justify-content:center;align-items:center;text-align:center;font-weight:normal;font-family:Arial;font-size:20px""><p>In this task you will see black or white beads being pulled from jars. <br><br>On each trial, a bead will be pulled from one of two jars. Once you see this bead, your goal is to predict the color of NEXT bead that will be pulled. <br> <br>Every time you correctly guess the color of the NEXT bead, you will get a point. <br><br>Press the SPACEBAR to continue.</p><div>","32"
"html-keyboard-response","6","730665","0.0-2.0-1.0","15","High_HMMActual","5076.290000004461","","","","<div class=""container"" style=""height:800px;width:800px;display:flex;flex-direction:column;justify-content:center;align-items:center;text-align:center;font-weight:normal;font-family:Arial;font-size:20px""><p>Jars are filled with 80% white or black beads and 20% of the opposite color mixed in.<br><br>Press the SPACEBAR to continue. </p><div>","32"
"image-keyboard-response","7","736007","0.0-2.0-2.0","15","High_HMMActual","5340.275000002235","","","","resources/WhiteJar_HMM.png","32"
"image-keyboard-response","8","738239","0.0-2.0-3.0","15","High_HMMActual","2231.0150000049034","","","","resources/BlackJar_HMM.png","32"
"html-keyboard-response","9","750853","0.0-2.0-4.0","15","High_HMMActual","12614.440000004834","","","","<div class=""container"" style=""height:800px;width:800px;display:flex;flex-direction:column;justify-content:center;align-items:center;text-align:center;font-weight:normal;font-family:Arial;font-size:20px""><p>There will be two blocks of trials. Each block will contain 500 trials. <br><br>Here are examples of what you will see on each trial.<br><br>Press the SPACEBAR to continue. </p><div>","32"
"image-keyboard-response","10","767145","0.0-2.0-5.0","15","High_HMMActual","16291.284999999334","","","","Images/NoChoice.png","32"
"html-keyboard-response","11","779770","0.0-2.0-6.0","15","High_HMMActual","12623.755000000587","","","","<div class=""container"" style=""height:800px;width:800px;display:flex;flex-direction:column;justify-content:center;align-items:center;text-align:center;font-weight:normal;font-family:Arial;font-size:20px""><p> The jar the beads are pulled from is NOT choosen at random on each trial.<br><br>After each prediction, there will be a chance that the jars will switch, and that the next bead will be pulled from the opposite jar as the previous trial.<br><br>In each block, the chance that a jar will switch will either be LOW (the jars will not switch very often), or HIGH (the jars will switch almost all the time).<br><br>At the start of each block, you will be told the probability that the jars will switch on each trial. This switch probability will stay constant throughout the block.<br><br>We will now show you some examples of beads being drawn from jars. The bead will appear in the middle of the screen, and the jar the bead was pulled from will be indicated with a black rectangle.<br><br>Press the SPACEBAR to continue. </p><div>","32"
"image-keyboard-response","12","792533","0.0-2.0-7.0","15","High_HMMActual","12762.999999999069","","","","Images/TutorialWhiteJarDrawHMMC.png","32"
"image-keyboard-response","13","801352","0.0-2.0-8.0","15","High_HMMActual","8817.75500000373","","","","Images/TutorialBlackJarDrawHMMC.png","32"
"image-keyboard-response","14","802833","0.0-2.0-9.0","15","High_HMMActual","1481.0749999959953","","","","Images/TutorialBlackJarDrawHMMI.png","32"
"html-keyboard-response","15","809198","0.0-2.0-10.0","15","High_HMMActual","6363.485000001732","","","","<div class=""container"" style=""height:800px;width:800px;display:flex;flex-direction:column;justify-content:center;align-items:center;text-align:center;font-weight:normal;font-family:Arial;font-size:20px""><p> As you observed, a white bead was pulled from a 80% white jar, the jars switched and a black bead was pulled from the 80% black jar, but then a low-probability white bead was pulled from the 80% black jar. <br><br>Because the jars have a mix of white and black beads, the best strategy to predict the next bead is to first figure out which jar the current bead was pulled from, then use the jar switch probability to predict which jar will be drawn from next.<br><br>Press SPACEBAR to conitnue.</p><div>","32"
"html-keyboard-response","16","812644","0.0-2.0-11.0","15","High_HMMActual","3446.124999994994","","","","<div class=""container"" style=""height:800px;width:800px;display:flex;flex-direction:column;justify-content:center;align-items:center;text-align:center;font-weight:normal;font-family:Arial;font-size:20px""><p> You will now be given a 2 question quiz to make sure you understand the task. </p><div>","32"
"image-keyboard-response","17","827402","0.0-2.0-12.0","15","High_HMMActual","14757.010000001173","","","","Images/TutorialQuestion1.png","39"
"image-keyboard-response","18","835341","0.0-2.0-13.0","15","High_HMMActual","4685.275000003516","","","","Images/TutorialQuestion2.png","38"
"html-keyboard-response","19","848996","0.0-3.0","15","High_HMMActual","10965.519999997923","","","","<div class=""container"" style=""height:800px;width:800px;display:flex;flex-direction:column;justify-content:center;align-items:center;text-align:center;font-weight:normal;font-family:Arial;font-size:20px""><p>Loading episode&hellip;</p><div>","32"
"image-keyboard-response","20","864383","0.0-4.0-0.0","15","High_HMMActual","15385.364999994636","","","","Images/NoChoice.png","37"
"image-keyboard-response","21","864784","0.0-4.0-1.0","15","High_HMMActual","34.23499999917112","","","","Images/BlackBeadChoice.png","39"
"image-keyboard-response","22","865486","0.0-4.0-2.0","15","High_HMMActual","null","","","","Images/BlackBeadChoiceWrong.png","null"
"image-keyboard-response","23","867531","0.0-4.0-0.1","15","High_HMMActual","2044.0899999957765","","","","Images/NewTrialWC.png","39"
"image-keyboard-response","24","867932","0.0-4.0-1.1","15","High_HMMActual","null","","","","Images/WhiteBeadChoice.png","null"
"image-keyboard-response","25","868632","0.0-4.0-2.1","15","High_HMMActual","null","","","","Images/WhiteBeadChoiceCorrect.png","null"
"image-keyboard-response","26","869090","0.0-4.0-0.2","15","High_HMMActual","456.429999998305","","","","Images/NewTrialWC.png","39"
"image-keyboard-response","27","869490","0.0-4.0-1.2","15","High_HMMActual","null","","","","Images/WhiteBeadChoice.png","null"
"image-keyboard-response","28","870192","0.0-4.0-2.2","15","High_HMMActual","null","","","","Images/WhiteBeadChoiceCorrect.png","null"
"image-keyboard-response","29","870785","0.0-4.0-0.3","15","High_HMMActual","591.9250000006286","","","","Images/NewTrialWC.png","37"
"image-keyboard-response","30","871186","0.0-4.0-1.3","15","High_HMMActual","null","","","","Images/BlackBeadChoice.png","null"
"image-keyboard-response","31","871887","0.0-4.0-2.3","15","High_HMMActual","null","","","","Images/BlackBeadChoiceCorrect.png","null"
"image-keyboard-response","32","874956","0.0-4.0-0.4","15","High_HMMActual","3069.100000000675","","","","Images/NewTrialBC.png","39"
"image-keyboard-response","33","875358","0.0-4.0-1.4","15","High_HMMActual","null","","","","Images/WhiteBeadChoice.png","null"
"image-keyboard-response","34","876058","0.0-4.0-2.4","15","High_HMMActual","574.3450000009034","","","","Images/WhiteBeadChoiceWrong.png","32"
"image-keyboard-response","35","876563","0.0-4.0-0.5","15","High_HMMActual","503.3250000051921","","","","Images/NewTrialBC.png","39"
"image-keyboard-response","36","876963","0.0-4.0-1.5","15","High_HMMActual","null","","","","Images/WhiteBeadChoice.png","null"
"image-keyboard-response","37","877665","0.0-4.0-2.5","15","High_HMMActual","null","","","","Images/WhiteBeadChoiceCorrect.png","null"
"image-keyboard-response","38","879578","0.0-4.0-0.6","15","High_HMMActual","1911.7499999993015","","","","Images/NewTrialWC.png","37"
"image-keyboard-response","39","879980","0.0-4.0-1.6","15","High_HMMActual","null","","","","Images/BlackBeadChoice.png","null"
"image-keyboard-response","40","880681","0.0-4.0-2.6","15","High_HMMActual","null","","","","Images/BlackBeadChoiceWrong.png","null"
"image-keyboard-response","41","886499","0.0-4.0-0.7","15","High_HMMActual","5816.845000001136","","","","Images/NewTrialWC.png","39"
"image-keyboard-response","42","886901","0.0-4.0-1.7","15","High_HMMActual","null","","","","Images/WhiteBeadChoice.png","null"
"image-keyboard-response","43","887602","0.0-4.0-2.7","15","High_HMMActual","null","","","","Images/WhiteBeadChoiceWrong.png","null"
"image-keyboard-response","44","890411","0.0-4.0-0.8","15","High_HMMActual","2807.4849999975413","","","","Images/NewTrialBC.png","39"
"image-keyboard-response","45","890812","0.0-4.0-1.8","15","High_HMMActual","null","","","","Images/WhiteBeadChoice.png","null"
"image-keyboard-response","46","891514","0.0-4.0-2.8","15","High_HMMActual","null","","","","Images/WhiteBeadChoiceWrong.png","null"
"image-keyboard-response","47","892632","0.0-4.0-0.9","15","High_HMMActual","1117.200000000652","","","","Images/NewTrialBC.png","37"
"image-keyboard-response","48","893032","0.0-4.0-1.9","15","High_HMMActual","null","","","","Images/BlackBeadChoice.png","null"
"image-keyboard-response","49","893734","0.0-4.0-2.9","15","High_HMMActual","null","","","","Images/BlackBeadChoiceCorrect.png","null"
"image-keyboard-response","50","894798","0.0-4.0-0.10","15","High_HMMActual","1063.0100000053644","","","","Images/NewTrialBC.png","37"
"image-keyboard-response","51","895198","0.0-4.0-1.10","15","High_HMMActual","null","","","","Images/BlackBeadChoice.png","null"
"image-keyboard-response","52","895900","0.0-4.0-2.10","15","High_HMMActual","null","","","","Images/BlackBeadChoiceWrong.png","null"
"image-keyboard-response","53","899704","0.0-4.0-0.11","15","High_HMMActual","3802.319999995292","","","","Images/NewTrialWC.png","39"
"image-keyboard-response","54","900105","0.0-4.0-1.11","15","High_HMMActual","null","","","","Images/WhiteBeadChoice.png","null"
"image-keyboard-response","55","900807","0.0-4.0-2.11","15","High_HMMActual","null","","","","Images/WhiteBeadChoiceWrong.png","null"
"image-keyboard-response","56","901965","0.0-4.0-0.12","15","High_HMMActual","1157.0100000025705","","","","Images/NewTrialBC.png","39"
"image-keyboard-response","57","902366","0.0-4.0-1.12","15","High_HMMActual","null","","","","Images/WhiteBeadChoice.png","null"
"image-keyboard-response","58","903067","0.0-4.0-2.12","15","High_HMMActual","null","","","","Images/WhiteBeadChoiceCorrect.png","null"
"image-keyboard-response","59","904330","0.0-4.0-0.13","15","High_HMMActual","1261.4600000015926","","","","Images/NewTrialWC.png","37"
"image-keyboard-response","60","904730","0.0-4.0-1.13","15","High_HMMActual","null","","","","Images/BlackBeadChoice.png","null"
"image-keyboard-response","61","905431","0.0-4.0-2.13","15","High_HMMActual","null","","","","Images/BlackBeadChoiceCorrect.png","null"
"image-keyboard-response","62","906035","0.0-4.0-0.14","15","High_HMMActual","602.6300000011688","","","","Images/NewTrialBC.png","39"
"image-keyboard-response","63","906436","0.0-4.0-1.14","15","High_HMMActual","null","","","","Images/WhiteBeadChoice.png","null"
"image-keyboard-response","64","907138","0.0-4.0-2.14","15","High_HMMActual","null","","","","Images/WhiteBeadChoiceCorrect.png","null"
"image-keyboard-response","65","907504","0.0-4.0-0.15","15","High_HMMActual","365.3699999996461","","","","Images/NewTrialWC.png","39"
"image-keyboard-response","66","907906","0.0-4.0-1.15","15","High_HMMActual","null","","","","Images/WhiteBeadChoice.png","null"
"image-keyboard-response","67","908607","0.0-4.0-2.15","15","High_HMMActual","null","","","","Images/WhiteBeadChoiceWrong.png","null"
"image-keyboard-response","68","908892","0.0-4.0-0.16","15","High_HMMActual","283.6749999988824","","","","Images/NewTrialBC.png","39"
"image-keyboard-response","69","909294","0.0-4.0-1.16","15","High_HMMActual","null","","","","Images/WhiteBeadChoice.png","null"
"image-keyboard-response","70","909996","0.0-4.0-2.16","15","High_HMMActual","null","","","","Images/WhiteBeadChoiceCorrect.png","null"
"image-keyboard-response","71","910596","0.0-4.0-0.17","15","High_HMMActual","599.5199999961769","","","","Images/NewTrialWC.png","37"
"image-keyboard-response","72","910997","0.0-4.0-1.17","15","High_HMMActual","null","","","","Images/BlackBeadChoice.png","null"
"image-keyboard-response","73","911698","0.0-4.0-2.17","15","High_HMMActual","null","","","","Images/BlackBeadChoiceWrong.png","null"
"image-keyboard-response","74","912086","0.0-4.0-0.18","15","High_HMMActual","386.6200000047684","","","","Images/NewTrialWC.png","37"
"image-keyboard-response","75","912487","0.0-4.0-1.18","15","High_HMMActual","null","","","","Images/BlackBeadChoice.png","null"
"image-keyboard-response","76","913188","0.0-4.0-2.18","15","High_HMMActual","null","","","","Images/BlackBeadChoiceWrong.png","null"
"image-keyboard-response","77","914858","0.0-4.0-0.19","15","High_HMMActual","1668.8850000065286","","","","Images/NewTrialWC.png","37"
"image-keyboard-response","78","915259","0.0-4.0-1.19","15","High_HMMActual","null","","","","Images/BlackBeadChoice.png","null"
"image-keyboard-response","79","915961","0.0-4.0-2.19","15","High_HMMActual","null","","","","Images/BlackBeadChoiceCorrect.png","null"
"image-keyboard-response","80","916855","0.0-4.0-0.20","15","High_HMMActual","893.2500000009313","","","","Images/NewTrialBC.png","39"
"image-keyboard-response","81","917256","0.0-4.0-1.20","15","High_HMMActual","null","","","","Images/WhiteBeadChoice.png","null"
"image-keyboard-response","82","917958","0.0-4.0-2.20","15","High_HMMActual","null","","","","Images/WhiteBeadChoiceCorrect.png","null"
"image-keyboard-response","83","918886","0.0-4.0-0.21","15","High_HMMActual","927.1749999970198","","","","Images/NewTrialWC.png","39"
"image-keyboard-response","84","919288","0.0-4.0-1.21","15","High_HMMActual","null","","","","Images/WhiteBeadChoice.png","null"
"image-keyboard-response","85","919989","0.0-4.0-2.21","15","High_HMMActual","null","","","","Images/WhiteBeadChoiceWrong.png","null"
"image-keyboard-response","86","923476","0.0-4.0-0.22","15","High_HMMActual","3486.2149999971734","","","","Images/NewTrialBC.png","37"
"image-keyboard-response","87","923877","0.0-4.0-1.22","15","High_HMMActual","null","","","","Images/BlackBeadChoice.png","null"
"image-keyboard-response","88","924579","0.0-4.0-2.22","15","High_HMMActual","null","","","","Images/BlackBeadChoiceWrong.png","null"
"image-keyboard-response","89","925035","0.0-4.0-0.23","15","High_HMMActual","455.1300000019837","","","","Images/NewTrialWC.png","37"
"image-keyboard-response","90","925436","0.0-4.0-1.23","15","High_HMMActual","null","","","","Images/BlackBeadChoice.png","null"
"image-keyboard-response","91","926137","0.0-4.0-2.23","15","High_HMMActual","null","","","","Images/BlackBeadChoiceWrong.png","null"
"image-keyboard-response","92","926749","0.0-4.0-0.24","15","High_HMMActual","610.6399999989662","","","","Images/NewTrialWC.png","37"
"image-keyboard-response","93","927150","0.0-4.0-1.24","15","High_HMMActual","null","","","","Images/BlackBeadChoice.png","null"
"image-keyboard-response","94","927852","0.0-4.0-2.24","15","High_HMMActual","null","","","","Images/BlackBeadChoiceWrong.png","null"
"image-keyboard-response","95","928157","0.0-4.0-0.25","15","High_HMMActual","303.93000000179745","","","","Images/NewTrialWC.png","37"
"image-keyboard-response","96","928558","0.0-4.0-1.25","15","High_HMMActual","null","","","","Images/BlackBeadChoice.png","null"
"image-keyboard-response","97","929259","0.0-4.0-2.25","15","High_HMMActual","null","","","","Images/BlackBeadChoiceCorrect.png","null"
"image-keyboard-response","98","929637","0.0-4.0-0.26","15","High_HMMActual","377.47500000114087","","","","Images/NewTrialBC.png","39"
"image-keyboard-response","99","930038","0.0-4.0-1.26","15","High_HMMActual","null","","","","Images/WhiteBeadChoice.png","null"
"image-keyboard-response","100","930739","0.0-4.0-2.26","15","High_HMMActual","null","","","","Images/WhiteBeadChoiceCorrect.png","null"
"image-keyboard-response","101","931115","0.0-4.0-0.27","15","High_HMMActual","374.8699999996461","","","","Images/NewTrialWC.png","37"
"image-keyboard-response","102","931516","0.0-4.0-1.27","15","High_HMMActual","null","","","","Images/BlackBeadChoice.png","null"
"image-keyboard-response","103","932218","0.0-4.0-2.27","15","High_HMMActual","null","","","","Images/BlackBeadChoiceCorrect.png","null"
"image-keyboard-response","104","932372","0.0-4.0-0.28","15","High_HMMActual","152.9450000015786","","","","Images/NewTrialBC.png","37"
"image-keyboard-response","105","932774","0.0-4.0-1.28","15","High_HMMActual","null","","","","Images/BlackBeadChoice.png","null"
"image-keyboard-response","106","933476","0.0-4.0-2.28","15","High_HMMActual","null","","","","Images/BlackBeadChoiceCorrect.png","null"
"image-keyboard-response","107","933670","0.0-4.0-0.29","15","High_HMMActual","194.1399999995483","","","","Images/NewTrialBC.png","37"
"image-keyboard-response","108","934072","0.0-4.0-1.29","15","High_HMMActual","null","","","","Images/BlackBeadChoice.png","null"
"image-keyboard-response","109","934774","0.0-4.0-2.29","15","High_HMMActual","null","","","","Images/BlackBeadChoiceWrong.png","null"
"image-keyboard-response","110","935022","0.0-4.0-0.30","15","High_HMMActual","246.98499999789055","","","","Images/NewTrialWC.png","39"
"image-keyboard-response","111","935423","0.0-4.0-1.30","15","High_HMMActual","null","","","","Images/WhiteBeadChoice.png","null"
"image-keyboard-response","112","936125","0.0-4.0-2.30","15","High_HMMActual","null","","","","Images/WhiteBeadChoiceCorrect.png","null"
"image-keyboard-response","113","943459","0.0-4.0-0.31","15","High_HMMActual","7333.675000001676","","","","Images/NewTrialWC.png","39"
"image-keyboard-response","114","943860","0.0-4.0-1.31","15","High_HMMActual","null","","","","Images/WhiteBeadChoice.png","null"
"image-keyboard-response","115","944561","0.0-4.0-2.31","15","High_HMMActual","null","","","","Images/WhiteBeadChoiceCorrect.png","null"
"image-keyboard-response","116","945171","0.0-4.0-0.32","15","High_HMMActual","608.6100000030128","","","","Images/NewTrialWC.png","37"
"image-keyboard-response","117","945571","0.0-4.0-1.32","15","High_HMMActual","null","","","","Images/BlackBeadChoice.png","null"
"image-keyboard-response","118","946273","0.0-4.0-2.32","15","High_HMMActual","null","","","","Images/BlackBeadChoiceWrong.png","null"
"image-keyboard-response","119","946613","0.0-4.0-0.33","15","High_HMMActual","338.96000000089407","","","","Images/NewTrialWC.png","37"
"image-keyboard-response","120","947014","0.0-4.0-1.33","15","High_HMMActual","null","","","","Images/BlackBeadChoice.png","null"
"image-keyboard-response","121","947716","0.0-4.0-2.33","15","High_HMMActual","588.3899999971036","","","","Images/BlackBeadChoiceWrong.png","37"
"image-keyboard-response","122","947936","0.0-4.0-0.34","15","High_HMMActual","219.5449999999255","","","","Images/NewTrialWC.png","37"
"image-keyboard-response","123","948337","0.0-4.0-1.34","15","High_HMMActual","null","","","","Images/BlackBeadChoice.png","null"
"image-keyboard-response","124","949039","0.0-4.0-2.34","15","High_HMMActual","null","","","","Images/BlackBeadChoiceCorrect.png","null"
"image-keyboard-response","125","949819","0.0-4.0-0.35","15","High_HMMActual","778.9450000055367","","","","Images/NewTrialBC.png","39"
"image-keyboard-response","126","950220","0.0-4.0-1.35","15","High_HMMActual","null","","","","Images/WhiteBeadChoice.png","null"
"image-keyboard-response","127","950922","0.0-4.0-2.35","15","High_HMMActual","null","","","","Images/WhiteBeadChoiceCorrect.png","null"
"image-keyboard-response","128","951534","0.0-4.0-0.36","15","High_HMMActual","611.5250000002561","","","","Images/NewTrialWC.png","39"
"image-keyboard-response","129","951935","0.0-4.0-1.36","15","High_HMMActual","null","","","","Images/WhiteBeadChoice.png","null"
"image-keyboard-response","130","952636","0.0-4.0-2.36","15","High_HMMActual","null","","","","Images/WhiteBeadChoiceCorrect.png","null"
"image-keyboard-response","131","952953","0.0-4.0-0.37","15","High_HMMActual","316.3249999997206","","","","Images/NewTrialWC.png","39"
"image-keyboard-response","132","953354","0.0-4.0-1.37","15","High_HMMActual","null","","","","Images/WhiteBeadChoice.png","null"
"image-keyboard-response","133","954055","0.0-4.0-2.37","15","High_HMMActual","null","","","","Images/WhiteBeadChoiceCorrect.png","null"
"image-keyboard-response","134","954248","0.0-4.0-0.38","15","High_HMMActual","192.21500000276137","","","","Images/NewTrialWC.png","37"
"image-keyboard-response","135","954649","0.0-4.0-1.38","15","High_HMMActual","null","","","","Images/BlackBeadChoice.png","null"
"image-keyboard-response","136","955351","0.0-4.0-2.38","15","High_HMMActual","null","","","","Images/BlackBeadChoiceCorrect.png","null"
"image-keyboard-response","137","955895","0.0-4.0-0.39","15","High_HMMActual","543.9599999953061","","","","Images/NewTrialBC.png","37"
"image-keyboard-response","138","956296","0.0-4.0-1.39","15","High_HMMActual","null","","","","Images/BlackBeadChoice.png","null"
"image-keyboard-response","139","956998","0.0-4.0-2.39","15","High_HMMActual","null","","","","Images/BlackBeadChoiceCorrect.png","null"
"image-keyboard-response","140","957188","0.0-4.0-0.40","15","High_HMMActual","189.13500000047497","","","","Images/NewTrialBC.png","39"
"image-keyboard-response","141","957589","0.0-4.0-1.40","15","High_HMMActual","null","","","","Images/WhiteBeadChoice.png","null"
"image-keyboard-response","142","958290","0.0-4.0-2.40","15","High_HMMActual","null","","","","Images/WhiteBeadChoiceWrong.png","null"
"image-keyboard-response","143","958615","0.0-4.0-0.41","15","High_HMMActual","323.8150000034366","","","","Images/NewTrialBC.png","39"
"image-keyboard-response","144","959016","0.0-4.0-1.41","15","High_HMMActual","null","","","","Images/WhiteBeadChoice.png","null"
"image-keyboard-response","145","959718","0.0-4.0-2.41","15","High_HMMActual","null","","","","Images/WhiteBeadChoiceCorrect.png","null"
"image-keyboard-response","146","960068","0.0-4.0-0.42","15","High_HMMActual","349.4150000042282","","","","Images/NewTrialWC.png","39"
"image-keyboard-response","147","960469","0.0-4.0-1.42","15","High_HMMActual","null","","","","Images/WhiteBeadChoice.png","null"
"image-keyboard-response","148","961171","0.0-4.0-2.42","15","High_HMMActual","null","","","","Images/WhiteBeadChoiceWrong.png","null"
"image-keyboard-response","149","961438","0.0-4.0-0.43","15","High_HMMActual","266.47500000393484","","","","Images/NewTrialBC.png","37"
"image-keyboard-response","150","961839","0.0-4.0-1.43","15","High_HMMActual","null","","","","Images/BlackBeadChoice.png","null"
"image-keyboard-response","151","962540","0.0-4.0-2.43","15","High_HMMActual","null","","","","Images/BlackBeadChoiceWrong.png","null"
"image-keyboard-response","152","962761","0.0-4.0-0.44","15","High_HMMActual","220.15499999548774","","","","Images/NewTrialWC.png","37"
"image-keyboard-response","153","963164","0.0-4.0-1.44","15","High_HMMActual","null","","","","Images/BlackBeadChoice.png","null"
"image-keyboard-response","154","963865","0.0-4.0-2.44","15","High_HMMActual","null","","","","Images/BlackBeadChoiceCorrect.png","null"
"image-keyboard-response","155","964344","0.0-4.0-0.45","15","High_HMMActual","478.4100000032922","","","","Images/NewTrialBC.png","39"
"image-keyboard-response","156","964749","0.0-4.0-1.45","15","High_HMMActual","null","","","","Images/WhiteBeadChoice.png","null"
"image-keyboard-response","157","965451","0.0-4.0-2.45","15","High_HMMActual","null","","","","Images/WhiteBeadChoiceCorrect.png","null"
"image-keyboard-response","158","965729","0.0-4.0-0.46","15","High_HMMActual","277.7399999977788","","","","Images/NewTrialWC.png","39"
"image-keyboard-response","159","966130","0.0-4.0-1.46","15","High_HMMActual","null","","","","Images/WhiteBeadChoice.png","null"
"image-keyboard-response","160","966832","0.0-4.0-2.46","15","High_HMMActual","null","","","","Images/WhiteBeadChoiceWrong.png","null"
"image-keyboard-response","161","967028","0.0-4.0-0.47","15","High_HMMActual","194.405000002007","","","","Images/NewTrialBC.png","37"
"image-keyboard-response","162","967428","0.0-4.0-1.47","15","High_HMMActual","null","","","","Images/BlackBeadChoice.png","null"
"image-keyboard-response","163","968130","0.0-4.0-2.47","15","High_HMMActual","null","","","","Images/BlackBeadChoiceCorrect.png","null"
"image-keyboard-response","164","971784","0.0-4.0-0.48","15","High_HMMActual","3653.3000000054017","","","","Images/NewTrialBC.png","39"
"image-keyboard-response","165","972185","0.0-4.0-1.48","15","High_HMMActual","null","","","","Images/WhiteBeadChoice.png","null"
"image-keyboard-response","166","972886","0.0-4.0-2.48","15","High_HMMActual","null","","","","Images/WhiteBeadChoiceWrong.png","null"
"image-keyboard-response","167","973298","0.0-4.0-0.49","15","High_HMMActual","410.71999999985565","","","","Images/NewTrialBC.png","39"
"image-keyboard-response","168","973699","0.0-4.0-1.49","15","High_HMMActual","null","","","","Images/WhiteBeadChoice.png","null"
"image-keyboard-response","169","974401","0.0-4.0-2.49","15","High_HMMActual","null","","","","Images/WhiteBeadChoiceCorrect.png","null"
"image-keyboard-response","170","974620","0.0-4.0-0.50","15","High_HMMActual","218.3249999943655","","","","Images/NewTrialWC.png","39"
"image-keyboard-response","171","975022","0.0-4.0-1.50","15","High_HMMActual","null","","","","Images/WhiteBeadChoice.png","null"
"image-keyboard-response","172","975724","0.0-4.0-2.50","15","High_HMMActual","null","","","","Images/WhiteBeadChoiceWrong.png","null"
"image-keyboard-response","173","975725","0.0-4.0-0.51","15","High_HMMActual","0.8400000006658956","","","","Images/NewTrialBC.png","39"
"image-keyboard-response","174","976126","0.0-4.0-1.51","15","High_HMMActual","null","","","","Images/WhiteBeadChoice.png","null"
"image-keyboard-response","175","976827","0.0-4.0-2.51","15","High_HMMActual","598.6699999993434","","","","Images/WhiteBeadChoiceWrong.png","39"
"image-keyboard-response","176","977127","0.0-4.0-0.52","15","High_HMMActual","300.06000000145286","","","","Images/NewTrialBC.png","39"
"image-keyboard-response","177","977529","0.0-4.0-1.52","15","High_HMMActual","null","","","","Images/WhiteBeadChoice.png","null"
"image-keyboard-response","178","978231","0.0-4.0-2.52","15","High_HMMActual","null","","","","Images/WhiteBeadChoiceWrong.png","null"
"image-keyboard-response","179","978681","0.0-4.0-0.53","15","High_HMMActual","449.5549999992363","","","","Images/NewTrialBC.png","37"
"image-keyboard-response","180","979083","0.0-4.0-1.53","15","High_HMMActual","null","","","","Images/BlackBeadChoice.png","null"
"image-keyboard-response","181","979785","0.0-4.0-2.53","15","High_HMMActual","null","","","","Images/BlackBeadChoiceWrong.png","null"
"image-keyboard-response","182","979855","0.0-4.0-0.54","15","High_HMMActual","69.47500000381842","","","","Images/NewTrialWC.png","39"
"image-keyboard-response","183","980256","0.0-4.0-1.54","15","High_HMMActual","null","","","","Images/WhiteBeadChoice.png","null"
"image-keyboard-response","184","980958","0.0-4.0-2.54","15","High_HMMActual","null","","","","Images/WhiteBeadChoiceWrong.png","null"
"image-keyboard-response","185","981142","0.0-4.0-0.55","15","High_HMMActual","183.0850000042701","","","","Images/NewTrialBC.png","39"
"image-keyboard-response","186","981543","0.0-4.0-1.55","15","High_HMMActual","null","","","","Images/WhiteBeadChoice.png","null"
"image-keyboard-response","187","982246","0.0-4.0-2.55","15","High_HMMActual","540.4099999942118","","","","Images/WhiteBeadChoiceWrong.png","39"
"image-keyboard-response","188","982373","0.0-4.0-0.56","15","High_HMMActual","126.46500000124797","","","","Images/NewTrialBC.png","39"
"image-keyboard-response","189","982774","0.0-4.0-1.56","15","High_HMMActual","null","","","","Images/WhiteBeadChoice.png","null"
"image-keyboard-response","190","983476","0.0-4.0-2.56","15","High_HMMActual","646.1600000038743","","","","Images/WhiteBeadChoiceWrong.png","39"
"image-keyboard-response","191","983777","0.0-4.0-0.57","15","High_HMMActual","300.4499999952968","","","","Images/NewTrialBC.png","39"
"image-keyboard-response","192","984179","0.0-4.0-1.57","15","High_HMMActual","null","","","","Images/WhiteBeadChoice.png","null"
"image-keyboard-response","193","984879","0.0-4.0-2.57","15","High_HMMActual","375.64999999443535","","","","Images/WhiteBeadChoiceWrong.png","39"
"image-keyboard-response","194","984961","0.0-4.0-0.58","15","High_HMMActual","80.82000000285916","","","","Images/NewTrialBC.png","39"
"image-keyboard-response","195","985362","0.0-4.0-1.58","15","High_HMMActual","null","","","","Images/WhiteBeadChoice.png","null"
"image-keyboard-response","196","986065","0.0-4.0-2.58","15","High_HMMActual","511.55499999737367","","","","Images/WhiteBeadChoiceWrong.png","39"
"image-keyboard-response","197","986285","0.0-4.0-0.59","15","High_HMMActual","219.6299999996554","","","","Images/NewTrialBC.png","39"
"image-keyboard-response","198","986686","0.0-4.0-1.59","15","High_HMMActual","null","","","","Images/WhiteBeadChoice.png","null"
"image-keyboard-response","199","987389","0.0-4.0-2.59","15","High_HMMActual","null","","","","Images/WhiteBeadChoiceCorrect.png","null"
"image-keyboard-response","200","987581","0.0-4.0-0.60","15","High_HMMActual","191.6750000017928","","","","Images/NewTrialWC.png","39"
"image-keyboard-response","201","987983","0.0-4.0-1.60","15","High_HMMActual","null","","","","Images/WhiteBeadChoice.png","null"
"image-keyboard-response","202","988685","0.0-4.0-2.60","15","High_HMMActual","null","","","","Images/WhiteBeadChoiceWrong.png","null"
"image-keyboard-response","203","988900","0.0-4.0-0.61","15","High_HMMActual","214.65500000340398","","","","Images/NewTrialBC.png","39"
"image-keyboard-response","204","989301","0.0-4.0-1.61","15","High_HMMActual","null","","","","Images/WhiteBeadChoice.png","null"
"image-keyboard-response","205","990004","0.0-4.0-2.61","15","High_HMMActual","null","","","","Images/WhiteBeadChoiceCorrect.png","null"
"image-keyboard-response","206","990331","0.0-4.0-0.62","15","High_HMMActual","326.140000004787","","","","Images/NewTrialWC.png","37"
"image-keyboard-response","207","990732","0.0-4.0-1.62","15","High_HMMActual","null","","","","Images/BlackBeadChoice.png","null"
"image-keyboard-response","208","991433","0.0-4.0-2.62","15","High_HMMActual","null","","","","Images/BlackBeadChoiceCorrect.png","null"
"image-keyboard-response","209","991679","0.0-4.0-0.63","15","High_HMMActual","244.72999999846797","","","","Images/NewTrialBC.png","37"
"image-keyboard-response","210","992080","0.0-4.0-1.63","15","High_HMMActual","null","","","","Images/BlackBeadChoice.png","null"
"image-keyboard-response","211","992782","0.0-4.0-2.63","15","High_HMMActual","null","","","","Images/BlackBeadChoiceWrong.png","null"
"image-keyboard-response","212","993104","0.0-4.0-0.64","15","High_HMMActual","320.9100000022445","","","","Images/NewTrialWC.png","39"
"image-keyboard-response","213","993505","0.0-4.0-1.64","15","High_HMMActual","null","","","","Images/WhiteBeadChoice.png","null"
"image-keyboard-response","214","994207","0.0-4.0-2.64","15","High_HMMActual","632.1000000024214","","","","Images/WhiteBeadChoiceWrong.png","39"
"image-keyboard-response","215","994552","0.0-4.0-0.65","15","High_HMMActual","344.4149999995716","","","","Images/NewTrialBC.png","39"
"image-keyboard-response","216","994954","0.0-4.0-1.65","15","High_HMMActual","null","","","","Images/WhiteBeadChoice.png","null"
"image-keyboard-response","217","995656","0.0-4.0-2.65","15","High_HMMActual","null","","","","Images/WhiteBeadChoiceWrong.png","null"
"image-keyboard-response","218","998565","0.0-4.0-0.66","15","High_HMMActual","2908.759999998496","","","","Images/NewTrialBC.png","39"
"image-keyboard-response","219","998967","0.0-4.0-1.66","15","High_HMMActual","null","","","","Images/WhiteBeadChoice.png","null"
"image-keyboard-response","220","999669","0.0-4.0-2.66","15","High_HMMActual","null","","","","Images/WhiteBeadChoiceWrong.png","null"
"image-keyboard-response","221","1000452","0.0-4.0-0.67","15","High_HMMActual","782.3700000008103","","","","Images/NewTrialBC.png","39"
"image-keyboard-response","222","1000853","0.0-4.0-1.67","15","High_HMMActual","null","","","","Images/WhiteBeadChoice.png","null"
"image-keyboard-response","223","1001554","0.0-4.0-2.67","15","High_HMMActual","null","","","","Images/WhiteBeadChoiceWrong.png","null"
"image-keyboard-response","224","1002031","0.0-4.0-0.68","15","High_HMMActual","475.4299999985378","","","","Images/NewTrialBC.png","37"
"image-keyboard-response","225","1002432","0.0-4.0-1.68","15","High_HMMActual","null","","","","Images/BlackBeadChoice.png","null"
"image-keyboard-response","226","1003134","0.0-4.0-2.68","15","High_HMMActual","null","","","","Images/BlackBeadChoiceCorrect.png","null"
"image-keyboard-response","227","1003778","0.0-4.0-0.69","15","High_HMMActual","643.1400000001304","","","","Images/NewTrialBC.png","39"
"image-keyboard-response","228","1004179","0.0-4.0-1.69","15","High_HMMActual","null","","","","Images/WhiteBeadChoice.png","null"
"image-keyboard-response","229","1004881","0.0-4.0-2.69","15","High_HMMActual","null","","","","Images/WhiteBeadChoiceCorrect.png","null"
"image-keyboard-response","230","1005794","0.0-4.0-0.70","15","High_HMMActual","912.4299999966752","","","","Images/NewTrialWC.png","39"
"image-keyboard-response","231","1006198","0.0-4.0-1.70","15","High_HMMActual","41.26499999978114","","","","Images/WhiteBeadChoice.png","37"
"image-keyboard-response","232","1006899","0.0-4.0-2.70","15","High_HMMActual","null","","","","Images/WhiteBeadChoiceWrong.png","null"
"image-keyboard-response","233","1007793","0.0-4.0-0.71","15","High_HMMActual","893.4200000002747","","","","Images/NewTrialBC.png","39"
"image-keyboard-response","234","1008194","0.0-4.0-1.71","15","High_HMMActual","null","","","","Images/WhiteBeadChoice.png","null"
"image-keyboard-response","235","1008896","0.0-4.0-2.71","15","High_HMMActual","null","","","","Images/WhiteBeadChoiceCorrect.png","null"
"image-keyboard-response","236","1009230","0.0-4.0-0.72","15","High_HMMActual","333.47999999381136","","","","Images/NewTrialWC.png","39"
"image-keyboard-response","237","1009632","0.0-4.0-1.72","15","High_HMMActual","null","","","","Images/WhiteBeadChoice.png","null"
"image-keyboard-response","238","1010333","0.0-4.0-2.72","15","High_HMMActual","null","","","","Images/WhiteBeadChoiceWrong.png","null"
"image-keyboard-response","239","1010382","0.0-4.0-0.73","15","High_HMMActual","47.814999998081475","","","","Images/NewTrialBC.png","39"
"image-keyboard-response","240","1010782","0.0-4.0-1.73","15","High_HMMActual","null","","","","Images/WhiteBeadChoice.png","null"
"image-keyboard-response","241","1011484","0.0-4.0-2.73","15","High_HMMActual","null","","","","Images/WhiteBeadChoiceCorrect.png","null"
"image-keyboard-response","242","1011686","0.0-4.0-0.74","15","High_HMMActual","200.72000000067055","","","","Images/NewTrialWC.png","37"
"image-keyboard-response","243","1012087","0.0-4.0-1.74","15","High_HMMActual","null","","","","Images/BlackBeadChoice.png","null"
"image-keyboard-response","244","1012788","0.0-4.0-2.74","15","High_HMMActual","null","","","","Images/BlackBeadChoiceWrong.png","null"
"image-keyboard-response","245","1013351","0.0-4.0-0.75","15","High_HMMActual","561.4849999982398","","","","Images/NewTrialWC.png","37"
"image-keyboard-response","246","1013751","0.0-4.0-1.75","15","High_HMMActual","null","","","","Images/BlackBeadChoice.png","null"
"image-keyboard-response","247","1014453","0.0-4.0-2.75","15","High_HMMActual","null","","","","Images/BlackBeadChoiceCorrect.png","null"
"image-keyboard-response","248","1014757","0.0-4.0-0.76","15","High_HMMActual","303.2650000023423","","","","Images/NewTrialBC.png","37"
"image-keyboard-response","249","1015158","0.0-4.0-1.76","15","High_HMMActual","null","","","","Images/BlackBeadChoice.png","null"
"image-keyboard-response","250","1015860","0.0-4.0-2.76","15","High_HMMActual","null","","","","Images/BlackBeadChoiceWrong.png","null"
"image-keyboard-response","251","1068046","0.0-4.0-0.77","15","High_HMMActual","52185.13499999978","","","","Images/NewTrialWC.png","39"
"image-keyboard-response","252","1068447","0.0-4.0-1.77","15","High_HMMActual","null","","","","Images/WhiteBeadChoice.png","null"
"image-keyboard-response","253","1069149","0.0-4.0-2.77","15","High_HMMActual","null","","","","Images/WhiteBeadChoiceCorrect.png","null"
"image-keyboard-response","254","1069395","0.0-4.0-0.78","15","High_HMMActual","245.28999999910593","","","","Images/NewTrialWC.png","37"
"image-keyboard-response","255","1069795","0.0-4.0-1.78","15","High_HMMActual","null","","","","Images/BlackBeadChoice.png","null"
"image-keyboard-response","256","1070496","0.0-4.0-2.78","15","High_HMMActual","null","","","","Images/BlackBeadChoiceCorrect.png","null"
"image-keyboard-response","257","1070993","0.0-4.0-0.79","15","High_HMMActual","495.75000000186265","","","","Images/NewTrialBC.png","37"
"image-keyboard-response","258","1071394","0.0-4.0-1.79","15","High_HMMActual","null","","","","Images/BlackBeadChoice.png","null"
"image-keyboard-response","259","1072096","0.0-4.0-2.79","15","High_HMMActual","null","","","","Images/BlackBeadChoiceWrong.png","null"
"image-keyboard-response","260","1072472","0.0-4.0-0.80","15","High_HMMActual","375.8150000066962","","","","Images/NewTrialWC.png","37"
"image-keyboard-response","261","1072873","0.0-4.0-1.80","15","High_HMMActual","null","","","","Images/BlackBeadChoice.png","null"
"image-keyboard-response","262","1073575","0.0-4.0-2.80","15","High_HMMActual","null","","","","Images/BlackBeadChoiceCorrect.png","null"
"image-keyboard-response","263","1073959","0.0-4.0-0.81","15","High_HMMActual","382.7099999981001","","","","Images/NewTrialBC.png","39"
"image-keyboard-response","264","1074360","0.0-4.0-1.81","15","High_HMMActual","null","","","","Images/WhiteBeadChoice.png","null"
"image-keyboard-response","265","1075062","0.0-4.0-2.81","15","High_HMMActual","null","","","","Images/WhiteBeadChoiceCorrect.png","null"
"image-keyboard-response","266","1075667","0.0-4.0-0.82","15","High_HMMActual","604.4949999996461","","","","Images/NewTrialWC.png","39"
"image-keyboard-response","267","1076069","0.0-4.0-1.82","15","High_HMMActual","null","","","","Images/WhiteBeadChoice.png","null"
"image-keyboard-response","268","1076770","0.0-4.0-2.82","15","High_HMMActual","null","","","","Images/WhiteBeadChoiceWrong.png","null"
"image-keyboard-response","269","1077222","0.0-4.0-0.83","15","High_HMMActual","450.95500000030734","","","","Images/NewTrialBC.png","37"
"image-keyboard-response","270","1077623","0.0-4.0-1.83","15","High_HMMActual","null","","","","Images/BlackBeadChoice.png","null"
"image-keyboard-response","271","1078325","0.0-4.0-2.83","15","High_HMMActual","null","","","","Images/BlackBeadChoiceWrong.png","null"
"image-keyboard-response","272","1078528","0.0-4.0-0.84","15","High_HMMActual","202.39500000025146","","","","Images/NewTrialWC.png","39"
"image-keyboard-response","273","1078929","0.0-4.0-1.84","15","High_HMMActual","null","","","","Images/WhiteBeadChoice.png","null"
"image-keyboard-response","274","1079631","0.0-4.0-2.84","15","High_HMMActual","null","","","","Images/WhiteBeadChoiceWrong.png","null"
"image-keyboard-response","275","1079648","0.0-4.0-0.85","15","High_HMMActual","16.0249999971129","","","","Images/NewTrialBC.png","39"
"image-keyboard-response","276","1080049","0.0-4.0-1.85","15","High_HMMActual","null","","","","Images/WhiteBeadChoice.png","null"
"image-keyboard-response","277","1080750","0.0-4.0-2.85","15","High_HMMActual","null","","","","Images/WhiteBeadChoiceWrong.png","null"
"image-keyboard-response","278","1080752","0.0-4.0-0.86","15","High_HMMActual","1.205000000540167","","","","Images/NewTrialBC.png","39"
"image-keyboard-response","279","1081153","0.0-4.0-1.86","15","High_HMMActual","null","","","","Images/WhiteBeadChoice.png","null"
"image-keyboard-response","280","1081854","0.0-4.0-2.86","15","High_HMMActual","null","","","","Images/WhiteBeadChoiceWrong.png","null"
"image-keyboard-response","281","1082066","0.0-4.0-0.87","15","High_HMMActual","210.97500000195578","","","","Images/NewTrialBC.png","37"
"image-keyboard-response","282","1082467","0.0-4.0-1.87","15","High_HMMActual","null","","","","Images/BlackBeadChoice.png","null"
"image-keyboard-response","283","1083168","0.0-4.0-2.87","15","High_HMMActual","null","","","","Images/BlackBeadChoiceCorrect.png","null"
"image-keyboard-response","284","1084556","0.0-4.0-0.88","15","High_HMMActual","1387.1500000022352","","","","Images/NewTrialBC.png","37"
"image-keyboard-response","285","1084958","0.0-4.0-1.88","15","High_HMMActual","null","","","","Images/BlackBeadChoice.png","null"
"image-keyboard-response","286","1085660","0.0-4.0-2.88","15","High_HMMActual","null","","","","Images/BlackBeadChoiceCorrect.png","null"
"image-keyboard-response","287","1087417","0.0-4.0-0.89","15","High_HMMActual","1756.649999995716","","","","Images/NewTrialBC.png","39"
"image-keyboard-response","288","1087818","0.0-4.0-1.89","15","High_HMMActual","null","","","","Images/WhiteBeadChoice.png","null"
"image-keyboard-response","289","1088519","0.0-4.0-2.89","15","High_HMMActual","null","","","","Images/WhiteBeadChoiceCorrect.png","null"
"image-keyboard-response","290","1089563","0.0-4.0-0.90","15","High_HMMActual","1042.8350000001956","","","","Images/NewTrialWC.png","39"
"image-keyboard-response","291","1089964","0.0-4.0-1.90","15","High_HMMActual","null","","","","Images/WhiteBeadChoice.png","null"
"image-keyboard-response","292","1090665","0.0-4.0-2.90","15","High_HMMActual","null","","","","Images/WhiteBeadChoiceWrong.png","null"
"image-keyboard-response","293","1091109","0.0-4.0-0.91","15","High_HMMActual","442.8200000037905","","","","Images/NewTrialBC.png","39"
"image-keyboard-response","294","1091510","0.0-4.0-1.91","15","High_HMMActual","null","","","","Images/WhiteBeadChoice.png","null"
"image-keyboard-response","295","1092212","0.0-4.0-2.91","15","High_HMMActual","null","","","","Images/WhiteBeadChoiceWrong.png","null"
"image-keyboard-response","296","1092827","0.0-4.0-0.92","15","High_HMMActual","614.359999999404","","","","Images/NewTrialBC.png","37"
"image-keyboard-response","297","1093228","0.0-4.0-1.92","15","High_HMMActual","null","","","","Images/BlackBeadChoice.png","null"
"image-keyboard-response","298","1093929","0.0-4.0-2.92","15","High_HMMActual","null","","","","Images/BlackBeadChoiceCorrect.png","null"
"image-keyboard-response","299","1095594","0.0-4.0-0.93","15","High_HMMActual","1664.174999998184","","","","Images/NewTrialBC.png","39"
"image-keyboard-response","300","1095995","0.0-4.0-1.93","15","High_HMMActual","null","","","","Images/WhiteBeadChoice.png","null"
"image-keyboard-response","301","1096697","0.0-4.0-2.93","15","High_HMMActual","null","","","","Images/WhiteBeadChoiceCorrect.png","null"
"image-keyboard-response","302","1099152","0.0-4.0-0.94","15","High_HMMActual","2454.1899999969173","","","","Images/NewTrialWC.png","39"
"image-keyboard-response","303","1099553","0.0-4.0-1.94","15","High_HMMActual","null","","","","Images/WhiteBeadChoice.png","null"
"image-keyboard-response","304","1100256","0.0-4.0-2.94","15","High_HMMActual","null","","","","Images/WhiteBeadChoiceWrong.png","null"
"image-keyboard-response","305","1101336","0.0-4.0-0.95","15","High_HMMActual","1079.3849999972153","","","","Images/NewTrialBC.png","39"
"image-keyboard-response","306","1101737","0.0-4.0-1.95","15","High_HMMActual","null","","","","Images/WhiteBeadChoice.png","null"
"image-keyboard-response","307","1102438","0.0-4.0-2.95","15","High_HMMActual","null","","","","Images/WhiteBeadChoiceWrong.png","null"
"image-keyboard-response","308","1102651","0.0-4.0-0.96","15","High_HMMActual","211.99999999953434","","","","Images/NewTrialBC.png","37"
"image-keyboard-response","309","1103053","0.0-4.0-1.96","15","High_HMMActual","null","","","","Images/BlackBeadChoice.png","null"
"image-keyboard-response","310","1103755","0.0-4.0-2.96","15","High_HMMActual","null","","","","Images/BlackBeadChoiceCorrect.png","null"
"image-keyboard-response","311","1103855","0.0-4.0-0.97","15","High_HMMActual","99.87499999976717","","","","Images/NewTrialBC.png","37"
"image-keyboard-response","312","1104256","0.0-4.0-1.97","15","High_HMMActual","null","","","","Images/BlackBeadChoice.png","null"
"image-keyboard-response","313","1104957","0.0-4.0-2.97","15","High_HMMActual","553.6600000050385","","","","Images/BlackBeadChoiceCorrect.png","39"
"image-keyboard-response","314","1105048","0.0-4.0-0.98","15","High_HMMActual","90.18499999353662","","","","Images/NewTrialBC.png","39"
"image-keyboard-response","315","1105449","0.0-4.0-1.98","15","High_HMMActual","null","","","","Images/WhiteBeadChoice.png","null"
"image-keyboard-response","316","1106150","0.0-4.0-2.98","15","High_HMMActual","554.1900000025053","","","","Images/WhiteBeadChoiceWrong.png","39"
"image-keyboard-response","317","1106412","0.0-4.0-0.99","15","High_HMMActual","260.98999999510124","","","","Images/NewTrialBC.png","39"
"image-keyboard-response","318","1106813","0.0-4.0-1.99","15","High_HMMActual","null","","","","Images/WhiteBeadChoice.png","null"
"image-keyboard-response","319","1107515","0.0-4.0-2.99","15","High_HMMActual","null","","","","Images/WhiteBeadChoiceWrong.png","null"
"image-keyboard-response","320","1107833","0.0-4.0-0.100","15","High_HMMActual","317.4950000029057","","","","Images/NewTrialBC.png","39"
"image-keyboard-response","321","1108235","0.0-4.0-1.100","15","High_HMMActual","null","","","","Images/WhiteBeadChoice.png","null"
"image-keyboard-response","322","1108935","0.0-4.0-2.100","15","High_HMMActual","null","","","","Images/WhiteBeadChoiceWrong.png","null"
"image-keyboard-response","323","1111007","0.0-4.0-0.101","15","High_HMMActual","2071.1449999944307","","","","Images/NewTrialBC.png","39"
"image-keyboard-response","324","1111408","0.0-4.0-1.101","15","High_HMMActual","null","","","","Images/WhiteBeadChoice.png","null"
"image-keyboard-response","325","1112109","0.0-4.0-2.101","15","High_HMMActual","null","","","","Images/WhiteBeadChoiceCorrect.png","null"
"image-keyboard-response","326","1112629","0.0-4.0-0.102","15","High_HMMActual","518.884999997681","","","","Images/NewTrialWC.png","39"
"image-keyboard-response","327","1113030","0.0-4.0-1.102","15","High_HMMActual","null","","","","Images/WhiteBeadChoice.png","null"
"image-keyboard-response","328","1113732","0.0-4.0-2.102","15","High_HMMActual","null","","","","Images/WhiteBeadChoiceWrong.png","null"
"image-keyboard-response","329","1113911","0.0-4.0-0.103","15","High_HMMActual","178.14999999967404","","","","Images/NewTrialBC.png","37"
"image-keyboard-response","330","1114312","0.0-4.0-1.103","15","High_HMMActual","null","","","","Images/BlackBeadChoice.png","null"
"image-keyboard-response","331","1115014","0.0-4.0-2.103","15","High_HMMActual","null","","","","Images/BlackBeadChoiceWrong.png","null"
"image-keyboard-response","332","1115119","0.0-4.0-0.104","15","High_HMMActual","104.5650000013411","","","","Images/NewTrialWC.png","37"
"image-keyboard-response","333","1115521","0.0-4.0-1.104","15","High_HMMActual","null","","","","Images/BlackBeadChoice.png","null"
"image-keyboard-response","334","1116222","0.0-4.0-2.104","15","High_HMMActual","null","","","","Images/BlackBeadChoiceCorrect.png","null"
"image-keyboard-response","335","1116492","0.0-4.0-0.105","15","High_HMMActual","269.29000000376254","","","","Images/NewTrialBC.png","39"
"image-keyboard-response","336","1116894","0.0-4.0-1.105","15","High_HMMActual","null","","","","Images/WhiteBeadChoice.png","null"
"image-keyboard-response","337","1117596","0.0-4.0-2.105","15","High_HMMActual","null","","","","Images/WhiteBeadChoiceCorrect.png","null"
"image-keyboard-response","338","1117657","0.0-4.0-0.106","15","High_HMMActual","60.06999999959953","","","","Images/NewTrialWC.png","39"
"image-keyboard-response","339","1118058","0.0-4.0-1.106","15","High_HMMActual","null","","","","Images/WhiteBeadChoice.png","null"
"image-keyboard-response","340","1118759","0.0-4.0-2.106","15","High_HMMActual","537.6999999934342","","","","Images/WhiteBeadChoiceWrong.png","39"
"image-keyboard-response","341","1119059","0.0-4.0-0.107","15","High_HMMActual","299.3300000017043","","","","Images/NewTrialBC.png","37"
"image-keyboard-response","342","1119461","0.0-4.0-1.107","15","High_HMMActual","null","","","","Images/BlackBeadChoice.png","null"
"image-keyboard-response","343","1120163","0.0-4.0-2.107","15","High_HMMActual","640.4999999939464","","","","Images/BlackBeadChoiceCorrect.png","39"
"image-keyboard-response","344","1120653","0.0-4.0-0.108","15","High_HMMActual","489.54499999666587","","","","Images/NewTrialBC.png","37"
"image-keyboard-response","345","1121055","0.0-4.0-1.108","15","High_HMMActual","null","","","","Images/BlackBeadChoice.png","null"
"image-keyboard-response","346","1121757","0.0-4.0-2.108","15","High_HMMActual","635.6749999977183","","","","Images/BlackBeadChoiceCorrect.png","39"
"image-keyboard-response","347","1121891","0.0-4.0-0.109","15","High_HMMActual","133.09500000462867","","","","Images/NewTrialBC.png","39"
"image-keyboard-response","348","1122292","0.0-4.0-1.109","15","High_HMMActual","null","","","","Images/WhiteBeadChoice.png","null"
"image-keyboard-response","349","1122993","0.0-4.0-2.109","15","High_HMMActual","null","","","","Images/WhiteBeadChoiceCorrect.png","null"
"image-keyboard-response","350","1123220","0.0-4.0-0.110","15","High_HMMActual","225.79000000399537","","","","Images/NewTrialWC.png","37"
"image-keyboard-response","351","1123622","0.0-4.0-1.110","15","High_HMMActual","null","","","","Images/BlackBeadChoice.png","null"
"image-keyboard-response","352","1124324","0.0-4.0-2.110","15","High_HMMActual","null","","","","Images/BlackBeadChoiceCorrect.png","null"
"image-keyboard-response","353","1124825","0.0-4.0-0.111","15","High_HMMActual","500.5899999961257","","","","Images/NewTrialBC.png","37"
"image-keyboard-response","354","1125227","0.0-4.0-1.111","15","High_HMMActual","null","","","","Images/BlackBeadChoice.png","null"
"image-keyboard-response","355","1125928","0.0-4.0-2.111","15","High_HMMActual","null","","","","Images/BlackBeadChoiceWrong.png","null"
"image-keyboard-response","356","1126162","0.0-4.0-0.112","15","High_HMMActual","232.85999999661","","","","Images/NewTrialWC.png","37"
"image-keyboard-response","357","1126563","0.0-4.0-1.112","15","High_HMMActual","null","","","","Images/BlackBeadChoice.png","null"
"image-keyboard-response","358","1127264","0.0-4.0-2.112","15","High_HMMActual","618.4050000011921","","","","Images/BlackBeadChoiceWrong.png","39"
"image-keyboard-response","359","1127523","0.0-4.0-0.113","15","High_HMMActual","258.4100000022445","","","","Images/NewTrialWC.png","39"
"image-keyboard-response","360","1127924","0.0-4.0-1.113","15","High_HMMActual","null","","","","Images/WhiteBeadChoice.png","null"
"image-keyboard-response","361","1128626","0.0-4.0-2.113","15","High_HMMActual","null","","","","Images/WhiteBeadChoiceWrong.png","null"
"image-keyboard-response","362","1129255","0.0-4.0-0.114","15","High_HMMActual","628.4850000012666","","","","Images/NewTrialBC.png","39"
"image-keyboard-response","363","1129656","0.0-4.0-1.114","15","High_HMMActual","null","","","","Images/WhiteBeadChoice.png","null"
"image-keyboard-response","364","1130358","0.0-4.0-2.114","15","High_HMMActual","null","","","","Images/WhiteBeadChoiceWrong.png","null"
"image-keyboard-response","365","1130856","0.0-4.0-0.115","15","High_HMMActual","497.8549999939278","","","","Images/NewTrialBC.png","37"
"image-keyboard-response","366","1131258","0.0-4.0-1.115","15","High_HMMActual","null","","","","Images/BlackBeadChoice.png","null"
"image-keyboard-response","367","1131959","0.0-4.0-2.115","15","High_HMMActual","null","","","","Images/BlackBeadChoiceWrong.png","null"
"image-keyboard-response","368","1133103","0.0-4.0-0.116","15","High_HMMActual","1143.6149999937043","","","","Images/NewTrialWC.png","37"
"image-keyboard-response","369","1133504","0.0-4.0-1.116","15","High_HMMActual","null","","","","Images/BlackBeadChoice.png","null"
"image-keyboard-response","370","1134206","0.0-4.0-2.116","15","High_HMMActual","null","","","","Images/BlackBeadChoiceCorrect.png","null"
"image-keyboard-response","371","1134753","0.0-4.0-0.117","15","High_HMMActual","546.6000000014901","","","","Images/NewTrialBC.png","39"
"image-keyboard-response","372","1135155","0.0-4.0-1.117","15","High_HMMActual","null","","","","Images/WhiteBeadChoice.png","null"
"image-keyboard-response","373","1135857","0.0-4.0-2.117","15","High_HMMActual","null","","","","Images/WhiteBeadChoiceCorrect.png","null"
"image-keyboard-response","374","1136099","0.0-4.0-0.118","15","High_HMMActual","241.73999999766238","","","","Images/NewTrialWC.png","39"
"image-keyboard-response","375","1136500","0.0-4.0-1.118","15","High_HMMActual","null","","","","Images/WhiteBeadChoice.png","null"
"image-keyboard-response","376","1137202","0.0-4.0-2.118","15","High_HMMActual","558.1200000015087","","","","Images/WhiteBeadChoiceWrong.png","39"
"image-keyboard-response","377","1137292","0.0-4.0-0.119","15","High_HMMActual","89.76999999862164","","","","Images/NewTrialBC.png","39"
"image-keyboard-response","378","1137694","0.0-4.0-1.119","15","High_HMMActual","null","","","","Images/WhiteBeadChoice.png","null"
"image-keyboard-response","379","1138396","0.0-4.0-2.119","15","High_HMMActual","null","","","","Images/WhiteBeadChoiceCorrect.png","null"
"image-keyboard-response","380","1138556","0.0-4.0-0.120","15","High_HMMActual","159.58999999566004","","","","Images/NewTrialWC.png","39"
"image-keyboard-response","381","1138957","0.0-4.0-1.120","15","High_HMMActual","null","","","","Images/WhiteBeadChoice.png","null"
"image-keyboard-response","382","1139659","0.0-4.0-2.120","15","High_HMMActual","null","","","","Images/WhiteBeadChoiceCorrect.png","null"
"image-keyboard-response","383","1139660","0.0-4.0-0.121","15","High_HMMActual","0.6899999934248626","","","","Images/NewTrialWC.png","37"
"image-keyboard-response","384","1140061","0.0-4.0-1.121","15","High_HMMActual","null","","","","Images/BlackBeadChoice.png","null"
"image-keyboard-response","385","1140762","0.0-4.0-2.121","15","High_HMMActual","null","","","","Images/BlackBeadChoiceWrong.png","null"
"image-keyboard-response","386","1140803","0.0-4.0-0.122","15","High_HMMActual","40.59000000404194","","","","Images/NewTrialWC.png","37"
"image-keyboard-response","387","1141204","0.0-4.0-1.122","15","High_HMMActual","null","","","","Images/BlackBeadChoice.png","null"
"image-keyboard-response","388","1141906","0.0-4.0-2.122","15","High_HMMActual","null","","","","Images/BlackBeadChoiceCorrect.png","null"
"image-keyboard-response","389","1143363","0.0-4.0-0.123","15","High_HMMActual","1456.8299999956507","","","","Images/NewTrialBC.png","39"
"image-keyboard-response","390","1143765","0.0-4.0-1.123","15","High_HMMActual","null","","","","Images/WhiteBeadChoice.png","null"
"image-keyboard-response","391","1144466","0.0-4.0-2.123","15","High_HMMActual","null","","","","Images/WhiteBeadChoiceCorrect.png","null"
"image-keyboard-response","392","1149011","0.0-4.0-0.124","15","High_HMMActual","4543.450000004843","","","","Images/NewTrialWC.png","37"
"image-keyboard-response","393","1149412","0.0-4.0-1.124","15","High_HMMActual","null","","","","Images/BlackBeadChoice.png","null"
"image-keyboard-response","394","1150113","0.0-4.0-2.124","15","High_HMMActual","null","","","","Images/BlackBeadChoiceCorrect.png","null"
"image-keyboard-response","395","1154842","0.0-4.0-0.125","15","High_HMMActual","4727.324999999953","","","","Images/NewTrialBC.png","39"
"image-keyboard-response","396","1155243","0.0-4.0-1.125","15","High_HMMActual","null","","","","Images/WhiteBeadChoice.png","null"
"image-keyboard-response","397","1155944","0.0-4.0-2.125","15","High_HMMActual","null","","","","Images/WhiteBeadChoiceCorrect.png","null"
"image-keyboard-response","398","1156453","0.0-4.0-0.126","15","High_HMMActual","508.3949999969918","","","","Images/NewTrialWC.png","37"
"image-keyboard-response","399","1156854","0.0-4.0-1.126","15","High_HMMActual","null","","","","Images/BlackBeadChoice.png","null"
"image-keyboard-response","400","1157556","0.0-4.0-2.126","15","High_HMMActual","395.5950000018347","","","","Images/BlackBeadChoiceWrong.png","39"
"image-keyboard-response","401","1157769","0.0-4.0-0.127","15","High_HMMActual","213.05999999470077","","","","Images/NewTrialWC.png","39"
"image-keyboard-response","402","1158172","0.0-4.0-1.127","15","High_HMMActual","null","","","","Images/WhiteBeadChoice.png","null"
"image-keyboard-response","403","1158873","0.0-4.0-2.127","15","High_HMMActual","119.87499999674037","","","","Images/WhiteBeadChoiceCorrect.png","39"
"image-keyboard-response","404","1159020","0.0-4.0-0.128","15","High_HMMActual","146.26000000117347","","","","Images/NewTrialWC.png","39"
"image-keyboard-response","405","1159422","0.0-4.0-1.128","15","High_HMMActual","null","","","","Images/WhiteBeadChoice.png","null"
"image-keyboard-response","406","1160124","0.0-4.0-2.128","15","High_HMMActual","430.6700000015553","","","","Images/WhiteBeadChoiceWrong.png","37"
"image-keyboard-response","407","1160334","0.0-4.0-0.129","15","High_HMMActual","209.79499999526888","","","","Images/NewTrialBC.png","37"
"image-keyboard-response","408","1160735","0.0-4.0-1.129","15","High_HMMActual","null","","","","Images/BlackBeadChoice.png","null"
"image-keyboard-response","409","1161436","0.0-4.0-2.129","15","High_HMMActual","527.1450000000186","","","","Images/BlackBeadChoiceWrong.png","37"
"image-keyboard-response","410","1161468","0.0-4.0-0.130","15","High_HMMActual","31.2899999988731","","","","Images/NewTrialWC.png","37"
"image-keyboard-response","411","1161869","0.0-4.0-1.130","15","High_HMMActual","null","","","","Images/BlackBeadChoice.png","null"
"image-keyboard-response","412","1162571","0.0-4.0-2.130","15","High_HMMActual","663.0999999977648","","","","Images/BlackBeadChoiceWrong.png","37"
"image-keyboard-response","413","1162718","0.0-4.0-0.131","15","High_HMMActual","146.35500000440516","","","","Images/NewTrialWC.png","37"
"image-keyboard-response","414","1163120","0.0-4.0-1.131","15","High_HMMActual","null","","","","Images/BlackBeadChoice.png","null"
"image-keyboard-response","415","1163821","0.0-4.0-2.131","15","High_HMMActual","null","","","","Images/BlackBeadChoiceCorrect.png","null"
"image-keyboard-response","416","1203464","0.0-4.0-0.132","15","High_HMMActual","39642.04500000039","","","","Images/NewTrialBC.png","39"
"image-keyboard-response","417","1203866","0.0-4.0-1.132","15","High_HMMActual","null","","","","Images/WhiteBeadChoice.png","null"
"image-keyboard-response","418","1204568","0.0-4.0-2.132","15","High_HMMActual","null","","","","Images/WhiteBeadChoiceWrong.png","null"
"image-keyboard-response","419","1204874","0.0-4.0-0.133","15","High_HMMActual","305.3950000028126","","","","Images/NewTrialBC.png","39"
"image-keyboard-response","420","1205275","0.0-4.0-1.133","15","High_HMMActual","null","","","","Images/WhiteBeadChoice.png","null"
"image-keyboard-response","421","1205976","0.0-4.0-2.133","15","High_HMMActual","605.6750000061002","","","","Images/WhiteBeadChoiceWrong.png","39"
"image-keyboard-response","422","1206371","0.0-4.0-0.134","15","High_HMMActual","394.11999999708496","","","","Images/NewTrialBC.png","39"
"image-keyboard-response","423","1206773","0.0-4.0-1.134","15","High_HMMActual","null","","","","Images/WhiteBeadChoice.png","null"
"image-keyboard-response","424","1207475","0.0-4.0-2.134","15","High_HMMActual","null","","","","Images/WhiteBeadChoiceWrong.png","null"
"image-keyboard-response","425","1207846","0.0-4.0-0.135","15","High_HMMActual","370.40999999595806","","","","Images/NewTrialBC.png","37"
"image-keyboard-response","426","1208247","0.0-4.0-1.135","15","High_HMMActual","null","","","","Images/BlackBeadChoice.png","null"
"image-keyboard-response","427","1208948","0.0-4.0-2.135","15","High_HMMActual","623.519999993965","","","","Images/BlackBeadChoiceWrong.png","39"
"image-keyboard-response","428","1209152","0.0-4.0-0.136","15","High_HMMActual","202.13499999954365","","","","Images/NewTrialWC.png","39"
"image-keyboard-response","429","1209553","0.0-4.0-1.136","15","High_HMMActual","null","","","","Images/WhiteBeadChoice.png","null"
"image-keyboard-response","430","1210255","0.0-4.0-2.136","15","High_HMMActual","null","","","","Images/WhiteBeadChoiceCorrect.png","null"
"image-keyboard-response","431","1210439","0.0-4.0-0.137","15","High_HMMActual","183.69499999959953","","","","Images/NewTrialWC.png","39"
"image-keyboard-response","432","1210840","0.0-4.0-1.137","15","High_HMMActual","null","","","","Images/WhiteBeadChoice.png","null"
"image-keyboard-response","433","1211541","0.0-4.0-2.137","15","High_HMMActual","null","","","","Images/WhiteBeadChoiceCorrect.png","null"
"image-keyboard-response","434","1211670","0.0-4.0-0.138","15","High_HMMActual","128.20999999530613","","","","Images/NewTrialWC.png","39"
"image-keyboard-response","435","1212073","0.0-4.0-1.138","15","High_HMMActual","null","","","","Images/WhiteBeadChoice.png","null"
"image-keyboard-response","436","1212774","0.0-4.0-2.138","15","High_HMMActual","null","","","","Images/WhiteBeadChoiceWrong.png","null"
"image-keyboard-response","437","1213066","0.0-4.0-0.139","15","High_HMMActual","291.21999999927357","","","","Images/NewTrialBC.png","37"
"image-keyboard-response","438","1213467","0.0-4.0-1.139","15","High_HMMActual","null","","","","Images/BlackBeadChoice.png","null"
"image-keyboard-response","439","1214169","0.0-4.0-2.139","15","High_HMMActual","null","","","","Images/BlackBeadChoiceCorrect.png","null"
"image-keyboard-response","440","1214473","0.0-4.0-0.140","15","High_HMMActual","303.84500000230037","","","","Images/NewTrialBC.png","39"
"image-keyboard-response","441","1214875","0.0-4.0-1.140","15","High_HMMActual","null","","","","Images/WhiteBeadChoice.png","null"
"image-keyboard-response","442","1215576","0.0-4.0-2.140","15","High_HMMActual","null","","","","Images/WhiteBeadChoiceWrong.png","null"
"image-keyboard-response","443","1215648","0.0-4.0-0.141","15","High_HMMActual","71.0049999980256","","","","Images/NewTrialBC.png","37"
"image-keyboard-response","444","1216049","0.0-4.0-1.141","15","High_HMMActual","null","","","","Images/BlackBeadChoice.png","null"
"image-keyboard-response","445","1216751","0.0-4.0-2.141","15","High_HMMActual","null","","","","Images/BlackBeadChoiceWrong.png","null"
"image-keyboard-response","446","1216881","0.0-4.0-0.142","15","High_HMMActual","128.7850000008475","","","","Images/NewTrialWC.png","39"
"image-keyboard-response","447","1217282","0.0-4.0-1.142","15","High_HMMActual","null","","","","Images/WhiteBeadChoice.png","null"
"image-keyboard-response","448","1217983","0.0-4.0-2.142","15","High_HMMActual","611.6400000026915","","","","Images/WhiteBeadChoiceCorrect.png","39"
"image-keyboard-response","449","1218469","0.0-4.0-0.143","15","High_HMMActual","485.4650000052061","","","","Images/NewTrialWC.png","39"
"image-keyboard-response","450","1218870","0.0-4.0-1.143","15","High_HMMActual","null","","","","Images/WhiteBeadChoice.png","null"
"image-keyboard-response","451","1219572","0.0-4.0-2.143","15","High_HMMActual","null","","","","Images/WhiteBeadChoiceCorrect.png","null"
"image-keyboard-response","452","1220063","0.0-4.0-0.144","15","High_HMMActual","490.8500000019558","","","","Images/NewTrialWC.png","37"
"image-keyboard-response","453","1220464","0.0-4.0-1.144","15","High_HMMActual","null","","","","Images/BlackBeadChoice.png","null"
"image-keyboard-response","454","1221166","0.0-4.0-2.144","15","High_HMMActual","null","","","","Images/BlackBeadChoiceCorrect.png","null"
"image-keyboard-response","455","1221596","0.0-4.0-0.145","15","High_HMMActual","429.4949999966193","","","","Images/NewTrialBC.png","37"
"image-keyboard-response","456","1221998","0.0-4.0-1.145","15","High_HMMActual","null","","","","Images/BlackBeadChoice.png","null"
"image-keyboard-response","457","1222700","0.0-4.0-2.145","15","High_HMMActual","null","","","","Images/BlackBeadChoiceWrong.png","null"
"image-keyboard-response","458","1222856","0.0-4.0-0.146","15","High_HMMActual","156.03999999444932","","","","Images/NewTrialWC.png","39"
"image-keyboard-response","459","1223257","0.0-4.0-1.146","15","High_HMMActual","null","","","","Images/WhiteBeadChoice.png","null"
"image-keyboard-response","460","1223958","0.0-4.0-2.146","15","High_HMMActual","null","","","","Images/WhiteBeadChoiceCorrect.png","null"
"image-keyboard-response","461","1224439","0.0-4.0-0.147","15","High_HMMActual","480.60999999870546","","","","Images/NewTrialWC.png","37"
"image-keyboard-response","462","1224841","0.0-4.0-1.147","15","High_HMMActual","null","","","","Images/BlackBeadChoice.png","null"
"image-keyboard-response","463","1225542","0.0-4.0-2.147","15","High_HMMActual","null","","","","Images/BlackBeadChoiceWrong.png","null"
"image-keyboard-response","464","1225554","0.0-4.0-0.148","15","High_HMMActual","11.83499999740161","","","","Images/NewTrialWC.png","37"
"image-keyboard-response","465","1225955","0.0-4.0-1.148","15","High_HMMActual","null","","","","Images/BlackBeadChoice.png","null"
"image-keyboard-response","466","1226657","0.0-4.0-2.148","15","High_HMMActual","null","","","","Images/BlackBeadChoiceCorrect.png","null"
"image-keyboard-response","467","1228663","0.0-4.0-0.149","15","High_HMMActual","2005.3200000037905","","","","Images/NewTrialBC.png","37"
"image-keyboard-response","468","1229064","0.0-4.0-1.149","15","High_HMMActual","null","","","","Images/BlackBeadChoice.png","null"
"image-keyboard-response","469","1229765","0.0-4.0-2.149","15","High_HMMActual","null","","","","Images/BlackBeadChoiceWrong.png","null"
"image-keyboard-response","470","1230173","0.0-4.0-0.150","15","High_HMMActual","407.4699999981094","","","","Images/NewTrialWC.png","39"
"image-keyboard-response","471","1230574","0.0-4.0-1.150","15","High_HMMActual","null","","","","Images/WhiteBeadChoice.png","null"
"image-keyboard-response","472","1231276","0.0-4.0-2.150","15","High_HMMActual","null","","","","Images/WhiteBeadChoiceWrong.png","null"
"image-keyboard-response","473","1231361","0.0-4.0-0.151","15","High_HMMActual","84.82999999960884","","","","Images/NewTrialBC.png","39"
"image-keyboard-response","474","1231762","0.0-4.0-1.151","15","High_HMMActual","null","","","","Images/WhiteBeadChoice.png","null"
"image-keyboard-response","475","1232464","0.0-4.0-2.151","15","High_HMMActual","414.48000000673346","","","","Images/WhiteBeadChoiceCorrect.png","39"
"image-keyboard-response","476","1232478","0.0-4.0-0.152","15","High_HMMActual","13.605000000214204","","","","Images/NewTrialWC.png","39"
"image-keyboard-response","477","1232879","0.0-4.0-1.152","15","High_HMMActual","null","","","","Images/WhiteBeadChoice.png","null"
"image-keyboard-response","478","1233580","0.0-4.0-2.152","15","High_HMMActual","538.7049999991432","","","","Images/WhiteBeadChoiceWrong.png","39"
"image-keyboard-response","479","1233956","0.0-4.0-0.153","15","High_HMMActual","374.66000000131316","","","","Images/NewTrialBC.png","37"
"image-keyboard-response","480","1234357","0.0-4.0-1.153","15","High_HMMActual","null","","","","Images/BlackBeadChoice.png","null"
"image-keyboard-response","481","1235059","0.0-4.0-2.153","15","High_HMMActual","null","","","","Images/BlackBeadChoiceWrong.png","null"
"image-keyboard-response","482","1235423","0.0-4.0-0.154","15","High_HMMActual","363.7200000011362","","","","Images/NewTrialWC.png","37"
"image-keyboard-response","483","1235825","0.0-4.0-1.154","15","High_HMMActual","null","","","","Images/BlackBeadChoice.png","null"
"image-keyboard-response","484","1236527","0.0-4.0-2.154","15","High_HMMActual","null","","","","Images/BlackBeadChoiceCorrect.png","null"
"image-keyboard-response","485","1236795","0.0-4.0-0.155","15","High_HMMActual","267.1100000005681","","","","Images/NewTrialBC.png","39"
"image-keyboard-response","486","1237195","0.0-4.0-1.155","15","High_HMMActual","null","","","","Images/WhiteBeadChoice.png","null"
"image-keyboard-response","487","1237897","0.0-4.0-2.155","15","High_HMMActual","null","","","","Images/WhiteBeadChoiceWrong.png","null"
"image-keyboard-response","488","1237918","0.0-4.0-0.156","15","High_HMMActual","19.964999999385327","","","","Images/NewTrialBC.png","37"
"image-keyboard-response","489","1238319","0.0-4.0-1.156","15","High_HMMActual","null","","","","Images/BlackBeadChoice.png","null"
"image-keyboard-response","490","1239021","0.0-4.0-2.156","15","High_HMMActual","537.155000005383","","","","Images/BlackBeadChoiceCorrect.png","37"
"image-keyboard-response","491","1239431","0.0-4.0-0.157","15","High_HMMActual","409.60500000067987","","","","Images/NewTrialBC.png","39"
"image-keyboard-response","492","1239833","0.0-4.0-1.157","15","High_HMMActual","null","","","","Images/WhiteBeadChoice.png","null"
"image-keyboard-response","493","1240535","0.0-4.0-2.157","15","High_HMMActual","null","","","","Images/WhiteBeadChoiceCorrect.png","null"
"image-keyboard-response","494","1240787","0.0-4.0-0.158","15","High_HMMActual","252.01499999826774","","","","Images/NewTrialWC.png","39"
"image-keyboard-response","495","1241188","0.0-4.0-1.158","15","High_HMMActual","null","","","","Images/WhiteBeadChoice.png","null"
"image-keyboard-response","496","1241890","0.0-4.0-2.158","15","High_HMMActual","475.5599999988917","","","","Images/WhiteBeadChoiceCorrect.png","39"
"image-keyboard-response","497","1241995","0.0-4.0-0.159","15","High_HMMActual","104.31500000413507","","","","Images/NewTrialWC.png","39"
"image-keyboard-response","498","1242396","0.0-4.0-1.159","15","High_HMMActual","null","","","","Images/WhiteBeadChoice.png","null"
"image-keyboard-response","499","1243098","0.0-4.0-2.159","15","High_HMMActual","null","","","","Images/WhiteBeadChoiceCorrect.png","null"
"image-keyboard-response","500","1243304","0.0-4.0-0.160","15","High_HMMActual","205.5900000052061","","","","Images/NewTrialWC.png","37"
"image-keyboard-response","501","1243706","0.0-4.0-1.160","15","High_HMMActual","null","","","","Images/BlackBeadChoice.png","null"
"image-keyboard-response","502","1244407","0.0-4.0-2.160","15","High_HMMActual","null","","","","Images/BlackBeadChoiceCorrect.png","null"
"image-keyboard-response","503","1244674","0.0-4.0-0.161","15","High_HMMActual","266.1999999983236","","","","Images/NewTrialBC.png","37"
"image-keyboard-response","504","1245076","0.0-4.0-1.161","15","High_HMMActual","null","","","","Images/BlackBeadChoice.png","null"
"image-keyboard-response","505","1245777","0.0-4.0-2.161","15","High_HMMActual","332.0949999978766","","","","Images/BlackBeadChoiceWrong.png","39"
"image-keyboard-response","506","1246062","0.0-4.0-0.162","15","High_HMMActual","283.9049999965355","","","","Images/NewTrialWC.png","37"
"image-keyboard-response","507","1246464","0.0-4.0-1.162","15","High_HMMActual","null","","","","Images/BlackBeadChoice.png","null"
"image-keyboard-response","508","1247166","0.0-4.0-2.162","15","High_HMMActual","null","","","","Images/BlackBeadChoiceCorrect.png","null"
"image-keyboard-response","509","1248397","0.0-4.0-0.163","15","High_HMMActual","1230.970000004163","","","","Images/NewTrialBC.png","39"
"image-keyboard-response","510","1248799","0.0-4.0-1.163","15","High_HMMActual","null","","","","Images/WhiteBeadChoice.png","null"
"image-keyboard-response","511","1249500","0.0-4.0-2.163","15","High_HMMActual","null","","","","Images/WhiteBeadChoiceCorrect.png","null"
"image-keyboard-response","512","1250203","0.0-4.0-0.164","15","High_HMMActual","702.3400000033434","","","","Images/NewTrialWC.png","39"
"image-keyboard-response","513","1250604","0.0-4.0-1.164","15","High_HMMActual","null","","","","Images/WhiteBeadChoice.png","null"
"image-keyboard-response","514","1251306","0.0-4.0-2.164","15","High_HMMActual","null","","","","Images/WhiteBeadChoiceWrong.png","null"
"image-keyboard-response","515","1251409","0.0-4.0-0.165","15","High_HMMActual","102.9400000043679","","","","Images/NewTrialBC.png","39"
"image-keyboard-response","516","1251810","0.0-4.0-1.165","15","High_HMMActual","null","","","","Images/WhiteBeadChoice.png","null"
"image-keyboard-response","517","1252512","0.0-4.0-2.165","15","High_HMMActual","432.73000000044703","","","","Images/WhiteBeadChoiceWrong.png","39"
"image-keyboard-response","518","1252615","0.0-4.0-0.166","15","High_HMMActual","102.92499999934807","","","","Images/NewTrialBC.png","39"
"image-keyboard-response","519","1253016","0.0-4.0-1.166","15","High_HMMActual","null","","","","Images/WhiteBeadChoice.png","null"
"image-keyboard-response","520","1253718","0.0-4.0-2.166","15","High_HMMActual","283.69499999820255","","","","Images/WhiteBeadChoiceWrong.png","39"
"image-keyboard-response","521","1253815","0.0-4.0-0.167","15","High_HMMActual","96.75499999872409","","","","Images/NewTrialBC.png","39"
"image-keyboard-response","522","1254217","0.0-4.0-1.167","15","High_HMMActual","null","","","","Images/WhiteBeadChoice.png","null"
"image-keyboard-response","523","1254918","0.0-4.0-2.167","15","High_HMMActual","562.3249999990221","","","","Images/WhiteBeadChoiceWrong.png","39"
"image-keyboard-response","524","1255004","0.0-4.0-0.168","15","High_HMMActual","85.50000000093132","","","","Images/NewTrialBC.png","39"
"image-keyboard-response","525","1255406","0.0-4.0-1.168","15","High_HMMActual","null","","","","Images/WhiteBeadChoice.png","null"
"image-keyboard-response","526","1256106","0.0-4.0-2.168","15","High_HMMActual","301.625","","","","Images/WhiteBeadChoiceWrong.png","39"
"image-keyboard-response","527","1256273","0.0-4.0-0.169","15","High_HMMActual","165.76000000350177","","","","Images/NewTrialBC.png","39"
"image-keyboard-response","528","1256674","0.0-4.0-1.169","15","High_HMMActual","null","","","","Images/WhiteBeadChoice.png","null"
"image-keyboard-response","529","1257376","0.0-4.0-2.169","15","High_HMMActual","null","","","","Images/WhiteBeadChoiceCorrect.png","null"
"image-keyboard-response","530","1257631","0.0-4.0-0.170","15","High_HMMActual","254.56999999750406","","","","Images/NewTrialWC.png","37"
"image-keyboard-response","531","1258032","0.0-4.0-1.170","15","High_HMMActual","null","","","","Images/BlackBeadChoice.png","null"
"image-keyboard-response","532","1258734","0.0-4.0-2.170","15","High_HMMActual","null","","","","Images/BlackBeadChoiceCorrect.png","null"
"image-keyboard-response","533","1258745","0.0-4.0-0.171","15","High_HMMActual","10.130000002449378","","","","Images/NewTrialBC.png","39"
"image-keyboard-response","534","1259147","0.0-4.0-1.171","15","High_HMMActual","null","","","","Images/WhiteBeadChoice.png","null"
"image-keyboard-response","535","1259848","0.0-4.0-2.171","15","High_HMMActual","448.8599999968428","","","","Images/WhiteBeadChoiceCorrect.png","39"
"image-keyboard-response","536","1259899","0.0-4.0-0.172","15","High_HMMActual","50.07499999925494","","","","Images/NewTrialWC.png","39"
"image-keyboard-response","537","1260300","0.0-4.0-1.172","15","High_HMMActual","null","","","","Images/WhiteBeadChoice.png","null"
"image-keyboard-response","538","1261001","0.0-4.0-2.172","15","High_HMMActual","662.1749999974854","","","","Images/WhiteBeadChoiceWrong.png","39"
"image-keyboard-response","539","1261271","0.0-4.0-0.173","15","High_HMMActual","269.7249999982305","","","","Images/NewTrialBC.png","39"
"image-keyboard-response","540","1261672","0.0-4.0-1.173","15","High_HMMActual","null","","","","Images/WhiteBeadChoice.png","null"
"image-keyboard-response","541","1262373","0.0-4.0-2.173","15","High_HMMActual","null","","","","Images/WhiteBeadChoiceCorrect.png","null"
"image-keyboard-response","542","1262632","0.0-4.0-0.174","15","High_HMMActual","258.0500000040047","","","","Images/NewTrialWC.png","37"
"image-keyboard-response","543","1263033","0.0-4.0-1.174","15","High_HMMActual","null","","","","Images/BlackBeadChoice.png","null"
"image-keyboard-response","544","1263734","0.0-4.0-2.174","15","High_HMMActual","null","","","","Images/BlackBeadChoiceCorrect.png","null"
"image-keyboard-response","545","1264790","0.0-4.0-0.175","15","High_HMMActual","1055.6500000020023","","","","Images/NewTrialBC.png","37"
"image-keyboard-response","546","1265191","0.0-4.0-1.175","15","High_HMMActual","null","","","","Images/BlackBeadChoice.png","null"
"image-keyboard-response","547","1265893","0.0-4.0-2.175","15","High_HMMActual","null","","","","Images/BlackBeadChoiceWrong.png","null"
"image-keyboard-response","548","1266101","0.0-4.0-0.176","15","High_HMMActual","207.11999999918044","","","","Images/NewTrialWC.png","37"
"image-keyboard-response","549","1266502","0.0-4.0-1.176","15","High_HMMActual","null","","","","Images/BlackBeadChoice.png","null"
"image-keyboard-response","550","1267204","0.0-4.0-2.176","15","High_HMMActual","null","","","","Images/BlackBeadChoiceCorrect.png","null"
"image-keyboard-response","551","1267771","0.0-4.0-0.177","15","High_HMMActual","566.6600000038743","","","","Images/NewTrialBC.png","39"
"image-keyboard-response","552","1268172","0.0-4.0-1.177","15","High_HMMActual","null","","","","Images/WhiteBeadChoice.png","null"
"image-keyboard-response","553","1268874","0.0-4.0-2.177","15","High_HMMActual","null","","","","Images/WhiteBeadChoiceCorrect.png","null"
"image-keyboard-response","554","1268973","0.0-4.0-0.178","15","High_HMMActual","98.41000000596978","","","","Images/NewTrialWC.png","39"
"image-keyboard-response","555","1269374","0.0-4.0-1.178","15","High_HMMActual","null","","","","Images/WhiteBeadChoice.png","null"
"image-keyboard-response","556","1270076","0.0-4.0-2.178","15","High_HMMActual","582.1199999991804","","","","Images/WhiteBeadChoiceWrong.png","39"
"image-keyboard-response","557","1270199","0.0-4.0-0.179","15","High_HMMActual","122.14500000118278","","","","Images/NewTrialBC.png","39"
"image-keyboard-response","558","1270600","0.0-4.0-1.179","15","High_HMMActual","null","","","","Images/WhiteBeadChoice.png","null"
"image-keyboard-response","559","1271301","0.0-4.0-2.179","15","High_HMMActual","628.9600000018254","","","","Images/WhiteBeadChoiceWrong.png","37"
"image-keyboard-response","560","1271480","0.0-4.0-0.180","15","High_HMMActual","178.9349999963306","","","","Images/NewTrialBC.png","37"
"image-keyboard-response","561","1271882","0.0-4.0-1.180","15","High_HMMActual","null","","","","Images/BlackBeadChoice.png","null"
"image-keyboard-response","562","1272584","0.0-4.0-2.180","15","High_HMMActual","693.4399999955203","","","","Images/BlackBeadChoiceCorrect.png","37"
"image-keyboard-response","563","1272781","0.0-4.0-0.181","15","High_HMMActual","196.2050000000745","","","","Images/NewTrialBC.png","37"
"image-keyboard-response","564","1273183","0.0-4.0-1.181","15","High_HMMActual","null","","","","Images/BlackBeadChoice.png","null"
"image-keyboard-response","565","1273883","0.0-4.0-2.181","15","High_HMMActual","null","","","","Images/BlackBeadChoiceCorrect.png","null"
"image-keyboard-response","566","1274040","0.0-4.0-0.182","15","High_HMMActual","155.83999999938533","","","","Images/NewTrialBC.png","39"
"image-keyboard-response","567","1274442","0.0-4.0-1.182","15","High_HMMActual","null","","","","Images/WhiteBeadChoice.png","null"
"image-keyboard-response","568","1275143","0.0-4.0-2.182","15","High_HMMActual","null","","","","Images/WhiteBeadChoiceCorrect.png","null"
"image-keyboard-response","569","1275267","0.0-4.0-0.183","15","High_HMMActual","123.65999999758787","","","","Images/NewTrialWC.png","39"
"image-keyboard-response","570","1275668","0.0-4.0-1.183","15","High_HMMActual","null","","","","Images/WhiteBeadChoice.png","null"
"image-keyboard-response","571","1276370","0.0-4.0-2.183","15","High_HMMActual","409.4150000018999","","","","Images/WhiteBeadChoiceWrong.png","39"
"image-keyboard-response","572","1276863","0.0-4.0-0.184","15","High_HMMActual","492.8250000013504","","","","Images/NewTrialBC.png","37"
"image-keyboard-response","573","1277266","0.0-4.0-1.184","15","High_HMMActual","null","","","","Images/BlackBeadChoice.png","null"
"image-keyboard-response","574","1277968","0.0-4.0-2.184","15","High_HMMActual","null","","","","Images/BlackBeadChoiceCorrect.png","null"
"image-keyboard-response","575","1278223","0.0-4.0-0.185","15","High_HMMActual","254.5300000058487","","","","Images/NewTrialBC.png","39"
"image-keyboard-response","576","1278624","0.0-4.0-1.185","15","High_HMMActual","null","","","","Images/WhiteBeadChoice.png","null"
"image-keyboard-response","577","1279326","0.0-4.0-2.185","15","High_HMMActual","null","","","","Images/WhiteBeadChoiceWrong.png","null"
"image-keyboard-response","578","1279739","0.0-4.0-0.186","15","High_HMMActual","412.17999999946915","","","","Images/NewTrialBC.png","39"
"image-keyboard-response","579","1280140","0.0-4.0-1.186","15","High_HMMActual","null","","","","Images/WhiteBeadChoice.png","null"
"image-keyboard-response","580","1280842","0.0-4.0-2.186","15","High_HMMActual","null","","","","Images/WhiteBeadChoiceCorrect.png","null"
"image-keyboard-response","581","1281081","0.0-4.0-0.187","15","High_HMMActual","237.77500000130385","","","","Images/NewTrialWC.png","39"
"image-keyboard-response","582","1281482","0.0-4.0-1.187","15","High_HMMActual","null","","","","Images/WhiteBeadChoice.png","null"
"image-keyboard-response","583","1282183","0.0-4.0-2.187","15","High_HMMActual","null","","","","Images/WhiteBeadChoiceCorrect.png","null"
"image-keyboard-response","584","1288024","0.0-4.0-0.188","15","High_HMMActual","5839.509999997914","","","","Images/NewTrialWC.png","39"
"image-keyboard-response","585","1288425","0.0-4.0-1.188","15","High_HMMActual","null","","","","Images/WhiteBeadChoice.png","null"
"image-keyboard-response","586","1289126","0.0-4.0-2.188","15","High_HMMActual","null","","","","Images/WhiteBeadChoiceCorrect.png","null"
"image-keyboard-response","587","1289846","0.0-4.0-0.189","15","High_HMMActual","718.919999999227","","","","Images/NewTrialWC.png","39"
"image-keyboard-response","588","1290248","0.0-4.0-1.189","15","High_HMMActual","null","","","","Images/WhiteBeadChoice.png","null"
"image-keyboard-response","589","1290949","0.0-4.0-2.189","15","High_HMMActual","null","","","","Images/WhiteBeadChoiceWrong.png","null"
"image-keyboard-response","590","1291469","0.0-4.0-0.190","15","High_HMMActual","518.8800000031479","","","","Images/NewTrialBC.png","39"
"image-keyboard-response","591","1291871","0.0-4.0-1.190","15","High_HMMActual","null","","","","Images/WhiteBeadChoice.png","null"
"image-keyboard-response","592","1292571","0.0-4.0-2.190","15","High_HMMActual","637.7999999970198","","","","Images/WhiteBeadChoiceWrong.png","37"
"image-keyboard-response","593","1292872","0.0-4.0-0.191","15","High_HMMActual","299.97500000172295","","","","Images/NewTrialBC.png","37"
"image-keyboard-response","594","1293273","0.0-4.0-1.191","15","High_HMMActual","167.37499999720603","","","","Images/BlackBeadChoice.png","39"
"image-keyboard-response","595","1293975","0.0-4.0-2.191","15","High_HMMActual","135.30500000342727","","","","Images/BlackBeadChoiceCorrect.png","39"
"image-keyboard-response","596","1294072","0.0-4.0-0.192","15","High_HMMActual","96.62999999988824","","","","Images/NewTrialBC.png","37"
"image-keyboard-response","597","1294474","0.0-4.0-1.192","15","High_HMMActual","59.529999998630956","","","","Images/BlackBeadChoice.png","39"
"image-keyboard-response","598","1295175","0.0-4.0-2.192","15","High_HMMActual","22.29499999526888","","","","Images/BlackBeadChoiceWrong.png","39"
"image-keyboard-response","599","1295302","0.0-4.0-0.193","15","High_HMMActual","126.47999999905005","","","","Images/NewTrialWC.png","39"
"image-keyboard-response","600","1295703","0.0-4.0-1.193","15","High_HMMActual","199.75500000151806","","","","Images/WhiteBeadChoice.png","39"
"image-keyboard-response","601","1296405","0.0-4.0-2.193","15","High_HMMActual","null","","","","Images/WhiteBeadChoiceWrong.png","null"
"image-keyboard-response","602","1296427","0.0-4.0-0.194","15","High_HMMActual","21.180000003427267","","","","Images/NewTrialBC.png","39"
"image-keyboard-response","603","1296828","0.0-4.0-1.194","15","High_HMMActual","null","","","","Images/WhiteBeadChoice.png","null"
"image-keyboard-response","604","1297530","0.0-4.0-2.194","15","High_HMMActual","null","","","","Images/WhiteBeadChoiceCorrect.png","null"
"image-keyboard-response","605","1297838","0.0-4.0-0.195","15","High_HMMActual","307.35000000265427","","","","Images/NewTrialWC.png","39"
"image-keyboard-response","606","1298240","0.0-4.0-1.195","15","High_HMMActual","null","","","","Images/WhiteBeadChoice.png","null"
"image-keyboard-response","607","1298941","0.0-4.0-2.195","15","High_HMMActual","null","","","","Images/WhiteBeadChoiceWrong.png","null"
"image-keyboard-response","608","1299367","0.0-4.0-0.196","15","High_HMMActual","426.0149999973364","","","","Images/NewTrialBC.png","37"
"image-keyboard-response","609","1299768","0.0-4.0-1.196","15","High_HMMActual","null","","","","Images/BlackBeadChoice.png","null"
"image-keyboard-response","610","1300470","0.0-4.0-2.196","15","High_HMMActual","null","","","","Images/BlackBeadChoiceWrong.png","null"
"image-keyboard-response","611","1300655","0.0-4.0-0.197","15","High_HMMActual","184.59000000427477","","","","Images/NewTrialWC.png","39"
"image-keyboard-response","612","1301056","0.0-4.0-1.197","15","High_HMMActual","null","","","","Images/WhiteBeadChoice.png","null"
"image-keyboard-response","613","1301757","0.0-4.0-2.197","15","High_HMMActual","679.32500000461","","","","Images/WhiteBeadChoiceWrong.png","39"
"image-keyboard-response","614","1302088","0.0-4.0-0.198","15","High_HMMActual","330.51500000152737","","","","Images/NewTrialBC.png","39"
"image-keyboard-response","615","1302489","0.0-4.0-1.198","15","High_HMMActual","null","","","","Images/WhiteBeadChoice.png","null"
"image-keyboard-response","616","1303190","0.0-4.0-2.198","15","High_HMMActual","637.1849999995902","","","","Images/WhiteBeadChoiceCorrect.png","39"
"image-keyboard-response","617","1303660","0.0-4.0-0.199","15","High_HMMActual","469.34999999939464","","","","Images/NewTrialWC.png","39"
"image-keyboard-response","618","1304061","0.0-4.0-1.199","15","High_HMMActual","null","","","","Images/WhiteBeadChoice.png","null"
"image-keyboard-response","619","1304762","0.0-4.0-2.199","15","High_HMMActual","null","","","","Images/WhiteBeadChoiceWrong.png","null"
"image-keyboard-response","620","1304857","0.0-4.0-0.200","15","High_HMMActual","93.92999999551103","","","","Images/NewTrialBC.png","39"
"image-keyboard-response","621","1305259","0.0-4.0-1.200","15","High_HMMActual","null","","","","Images/WhiteBeadChoice.png","null"
"image-keyboard-response","622","1305960","0.0-4.0-2.200","15","High_HMMActual","418.6200000040699","","","","Images/WhiteBeadChoiceCorrect.png","37"
"image-keyboard-response","623","1306122","0.0-4.0-0.201","15","High_HMMActual","160.8600000035949","","","","Images/NewTrialWC.png","37"
"image-keyboard-response","624","1306523","0.0-4.0-1.201","15","High_HMMActual","null","","","","Images/BlackBeadChoice.png","null"
"image-keyboard-response","625","1307225","0.0-4.0-2.201","15","High_HMMActual","365.3150000027381","","","","Images/BlackBeadChoiceCorrect.png","37"
"image-keyboard-response","626","1307390","0.0-4.0-0.202","15","High_HMMActual","164.6550000004936","","","","Images/NewTrialBC.png","37"
"image-keyboard-response","627","1307791","0.0-4.0-1.202","15","High_HMMActual","null","","","","Images/BlackBeadChoice.png","null"
"image-keyboard-response","628","1308493","0.0-4.0-2.202","15","High_HMMActual","null","","","","Images/BlackBeadChoiceWrong.png","null"
"image-keyboard-response","629","1308816","0.0-4.0-0.203","15","High_HMMActual","322.46000000298955","","","","Images/NewTrialWC.png","39"
"image-keyboard-response","630","1309218","0.0-4.0-1.203","15","High_HMMActual","null","","","","Images/WhiteBeadChoice.png","null"
"image-keyboard-response","631","1309919","0.0-4.0-2.203","15","High_HMMActual","null","","","","Images/WhiteBeadChoiceWrong.png","null"
"image-keyboard-response","632","1310028","0.0-4.0-0.204","15","High_HMMActual","108.63000000244938","","","","Images/NewTrialBC.png","39"
"image-keyboard-response","633","1310429","0.0-4.0-1.204","15","High_HMMActual","null","","","","Images/WhiteBeadChoice.png","null"
"image-keyboard-response","634","1311131","0.0-4.0-2.204","15","High_HMMActual","null","","","","Images/WhiteBeadChoiceCorrect.png","null"
"image-keyboard-response","635","1311306","0.0-4.0-0.205","15","High_HMMActual","174.2450000019744","","","","Images/NewTrialWC.png","37"
"image-keyboard-response","636","1311708","0.0-4.0-1.205","15","High_HMMActual","null","","","","Images/BlackBeadChoice.png","null"
"image-keyboard-response","637","1312410","0.0-4.0-2.205","15","High_HMMActual","null","","","","Images/BlackBeadChoiceCorrect.png","null"
"image-keyboard-response","638","1312485","0.0-4.0-0.206","15","High_HMMActual","73.9449999963399","","","","Images/NewTrialBC.png","37"
"image-keyboard-response","639","1312886","0.0-4.0-1.206","15","High_HMMActual","null","","","","Images/BlackBeadChoice.png","null"
"image-keyboard-response","640","1313588","0.0-4.0-2.206","15","High_HMMActual","672.6100000014994","","","","Images/BlackBeadChoiceWrong.png","37"
"image-keyboard-response","641","1313813","0.0-4.0-0.207","15","High_HMMActual","224.71999999834225","","","","Images/NewTrialWC.png","37"
"image-keyboard-response","642","1314214","0.0-4.0-1.207","15","High_HMMActual","null","","","","Images/BlackBeadChoice.png","null"
"image-keyboard-response","643","1314916","0.0-4.0-2.207","15","High_HMMActual","null","","","","Images/BlackBeadChoiceCorrect.png","null"
"image-keyboard-response","644","1314987","0.0-4.0-0.208","15","High_HMMActual","70.185000004014","","","","Images/NewTrialBC.png","37"
"image-keyboard-response","645","1315389","0.0-4.0-1.208","15","High_HMMActual","null","","","","Images/BlackBeadChoice.png","null"
"image-keyboard-response","646","1316090","0.0-4.0-2.208","15","High_HMMActual","685.8550000034738","","","","Images/BlackBeadChoiceCorrect.png","39"
"image-keyboard-response","647","1316347","0.0-4.0-0.209","15","High_HMMActual","256.09999999869615","","","","Images/NewTrialBC.png","39"
"image-keyboard-response","648","1316748","0.0-4.0-1.209","15","High_HMMActual","null","","","","Images/WhiteBeadChoice.png","null"
"image-keyboard-response","649","1317450","0.0-4.0-2.209","15","High_HMMActual","null","","","","Images/WhiteBeadChoiceCorrect.png","null"
"image-keyboard-response","650","1317898","0.0-4.0-0.210","15","High_HMMActual","447.7550000010524","","","","Images/NewTrialWC.png","37"
"image-keyboard-response","651","1318299","0.0-4.0-1.210","15","High_HMMActual","null","","","","Images/BlackBeadChoice.png","null"
"image-keyboard-response","652","1319000","0.0-4.0-2.210","15","High_HMMActual","677.5399999970105","","","","Images/BlackBeadChoiceWrong.png","37"
"image-keyboard-response","653","1319310","0.0-4.0-0.211","15","High_HMMActual","309.070000003092","","","","Images/NewTrialWC.png","37"
"image-keyboard-response","654","1319711","0.0-4.0-1.211","15","High_HMMActual","null","","","","Images/BlackBeadChoice.png","null"
"image-keyboard-response","655","1320413","0.0-4.0-2.211","15","High_HMMActual","null","","","","Images/BlackBeadChoiceWrong.png","null"
"image-keyboard-response","656","1320562","0.0-4.0-0.212","15","High_HMMActual","148.87000000453554","","","","Images/NewTrialWC.png","39"
"image-keyboard-response","657","1320964","0.0-4.0-1.212","15","High_HMMActual","null","","","","Images/WhiteBeadChoice.png","null"
"image-keyboard-response","658","1321666","0.0-4.0-2.212","15","High_HMMActual","null","","","","Images/WhiteBeadChoiceCorrect.png","null"
"image-keyboard-response","659","1321696","0.0-4.0-0.213","15","High_HMMActual","29.384999994421378","","","","Images/NewTrialWC.png","37"
"image-keyboard-response","660","1322097","0.0-4.0-1.213","15","High_HMMActual","null","","","","Images/BlackBeadChoice.png","null"
"image-keyboard-response","661","1322799","0.0-4.0-2.213","15","High_HMMActual","null","","","","Images/BlackBeadChoiceWrong.png","null"
"image-keyboard-response","662","1322856","0.0-4.0-0.214","15","High_HMMActual","56.59000000008382","","","","Images/NewTrialWC.png","37"
"image-keyboard-response","663","1323257","0.0-4.0-1.214","15","High_HMMActual","null","","","","Images/BlackBeadChoice.png","null"
"image-keyboard-response","664","1323958","0.0-4.0-2.214","15","High_HMMActual","589.9900000004563","","","","Images/BlackBeadChoiceWrong.png","37"
"image-keyboard-response","665","1324256","0.0-4.0-0.215","15","High_HMMActual","297.089999999851","","","","Images/NewTrialWC.png","37"
"image-keyboard-response","666","1324658","0.0-4.0-1.215","15","High_HMMActual","null","","","","Images/BlackBeadChoice.png","null"
"image-keyboard-response","667","1325359","0.0-4.0-2.215","15","High_HMMActual","239.64999999594875","","","","Images/BlackBeadChoiceCorrect.png","37"
"image-keyboard-response","668","1325741","0.0-4.0-0.216","15","High_HMMActual","380.8850000058301","","","","Images/NewTrialBC.png","37"
"image-keyboard-response","669","1326142","0.0-4.0-1.216","15","High_HMMActual","null","","","","Images/BlackBeadChoice.png","null"
"image-keyboard-response","670","1326844","0.0-4.0-2.216","15","High_HMMActual","679.490000002319","","","","Images/BlackBeadChoiceWrong.png","37"
"image-keyboard-response","671","1327305","0.0-4.0-0.217","15","High_HMMActual","460.5100000044331","","","","Images/NewTrialWC.png","37"
"image-keyboard-response","672","1327707","0.0-4.0-1.217","15","High_HMMActual","null","","","","Images/BlackBeadChoice.png","null"
"image-keyboard-response","673","1328407","0.0-4.0-2.217","15","High_HMMActual","null","","","","Images/BlackBeadChoiceCorrect.png","null"
"image-keyboard-response","674","1328628","0.0-4.0-0.218","15","High_HMMActual","219.98500000336207","","","","Images/NewTrialBC.png","39"
"image-keyboard-response","675","1329029","0.0-4.0-1.218","15","High_HMMActual","null","","","","Images/WhiteBeadChoice.png","null"
"image-keyboard-response","676","1329730","0.0-4.0-2.218","15","High_HMMActual","null","","","","Images/WhiteBeadChoiceCorrect.png","null"
"image-keyboard-response","677","1329921","0.0-4.0-0.219","15","High_HMMActual","189.93500000215136","","","","Images/NewTrialWC.png","37"
"image-keyboard-response","678","1330322","0.0-4.0-1.219","15","High_HMMActual","null","","","","Images/BlackBeadChoice.png","null"
"image-keyboard-response","679","1331023","0.0-4.0-2.219","15","High_HMMActual","null","","","","Images/BlackBeadChoiceCorrect.png","null"
"image-keyboard-response","680","1331097","0.0-4.0-0.220","15","High_HMMActual","73.28499999875203","","","","Images/NewTrialBC.png","37"
"image-keyboard-response","681","1331499","0.0-4.0-1.220","15","High_HMMActual","null","","","","Images/BlackBeadChoice.png","null"
"image-keyboard-response","682","1332200","0.0-4.0-2.220","15","High_HMMActual","678.6050000009127","","","","Images/BlackBeadChoiceWrong.png","37"
"image-keyboard-response","683","1332575","0.0-4.0-0.221","15","High_HMMActual","373.699999996461","","","","Images/NewTrialWC.png","37"
"image-keyboard-response","684","1332976","0.0-4.0-1.221","15","High_HMMActual","null","","","","Images/BlackBeadChoice.png","null"
"image-keyboard-response","685","1333678","0.0-4.0-2.221","15","High_HMMActual","403.089999999851","","","","Images/BlackBeadChoiceCorrect.png","37"
"image-keyboard-response","686","1334104","0.0-4.0-0.222","15","High_HMMActual","425.75999999814667","","","","Images/NewTrialBC.png","39"
"image-keyboard-response","687","1334506","0.0-4.0-1.222","15","High_HMMActual","null","","","","Images/WhiteBeadChoice.png","null"
"image-keyboard-response","688","1335207","0.0-4.0-2.222","15","High_HMMActual","null","","","","Images/WhiteBeadChoiceCorrect.png","null"
"image-keyboard-response","689","1335418","0.0-4.0-0.223","15","High_HMMActual","209.99999999906868","","","","Images/NewTrialWC.png","39"
"image-keyboard-response","690","1335819","0.0-4.0-1.223","15","High_HMMActual","null","","","","Images/WhiteBeadChoice.png","null"
"image-keyboard-response","691","1336521","0.0-4.0-2.223","15","High_HMMActual","null","","","","Images/WhiteBeadChoiceWrong.png","null"
"image-keyboard-response","692","1337269","0.0-4.0-0.224","15","High_HMMActual","747.7499999951106","","","","Images/NewTrialBC.png","37"
"image-keyboard-response","693","1337671","0.0-4.0-1.224","15","High_HMMActual","null","","","","Images/BlackBeadChoice.png","null"
"image-keyboard-response","694","1338372","0.0-4.0-2.224","15","High_HMMActual","null","","","","Images/BlackBeadChoiceCorrect.png","null"
"image-keyboard-response","695","1338564","0.0-4.0-0.225","15","High_HMMActual","191.27000000304542","","","","Images/NewTrialBC.png","37"
"image-keyboard-response","696","1338966","0.0-4.0-1.225","15","High_HMMActual","null","","","","Images/BlackBeadChoice.png","null"
"image-keyboard-response","697","1339667","0.0-4.0-2.225","15","High_HMMActual","null","","","","Images/BlackBeadChoiceWrong.png","null"
"image-keyboard-response","698","1339966","0.0-4.0-0.226","15","High_HMMActual","297.82999999588355","","","","Images/NewTrialWC.png","39"
"image-keyboard-response","699","1340368","0.0-4.0-1.226","15","High_HMMActual","null","","","","Images/WhiteBeadChoice.png","null"
"image-keyboard-response","700","1341070","0.0-4.0-2.226","15","High_HMMActual","null","","","","Images/WhiteBeadChoiceCorrect.png","null"
"image-keyboard-response","701","1341083","0.0-4.0-0.227","15","High_HMMActual","12.19499999564141","","","","Images/NewTrialWC.png","37"
"image-keyboard-response","702","1341484","0.0-4.0-1.227","15","High_HMMActual","null","","","","Images/BlackBeadChoice.png","null"
"image-keyboard-response","703","1342186","0.0-4.0-2.227","15","High_HMMActual","null","","","","Images/BlackBeadChoiceCorrect.png","null"
"image-keyboard-response","704","1342851","0.0-4.0-0.228","15","High_HMMActual","664.6750000000466","","","","Images/NewTrialBC.png","39"
"image-keyboard-response","705","1343253","0.0-4.0-1.228","15","High_HMMActual","null","","","","Images/WhiteBeadChoice.png","null"
"image-keyboard-response","706","1343954","0.0-4.0-2.228","15","High_HMMActual","655.4649999961257","","","","Images/WhiteBeadChoiceCorrect.png","39"
"image-keyboard-response","707","1344555","0.0-4.0-0.229","15","High_HMMActual","600.8299999958836","","","","Images/NewTrialWC.png","39"
