"trial_type","trial_index","time_elapsed","internal_node_id","Script_Picker","Block_Type","rt","url","responses","question_order","stimulus","key_press"
"pavlovia","0","8","0.0-0.0","15","Low_HMMActual","","","","","",""
"external-html","1","80632","0.0-1.0-0.0","15","Low_HMMActual","80565.33499993384","consent.html","","","",""
"survey-multi-choice","2","90599","0.0-1.0-1.0","15","Low_HMMActual","9965.685000177473","","{""Q0"":""Male"",""Q1"":""White""}","[0,1]","",""
"survey-text","3","93351","0.0-1.0-2.0","15","Low_HMMActual","2744.359999895096","","{""Q0"":""21""}","","",""
"survey-text","4","100999","0.0-1.0-3.0","15","Low_HMMActual","7539.704999886453","","{""Q0"":""5e9da98c2023990ae094caed""}","","",""
"html-keyboard-response","5","130352","0.0-2.0-0.0","15","Low_HMMActual","29245.940000051633","","","","<div class=""container"" style=""height:800px;width:800px;display:flex;flex-direction:column;justify-content:center;align-items:center;text-align:center;font-weight:normal;font-family:Arial;font-size:20px""><p>In this task you will see black or white beads being pulled from jars. <br><br>On each trial, a bead will be pulled from one of two jars. Once you see this bead, your goal is to predict the color of NEXT bead that will be pulled. <br> <br>Every time you correctly guess the color of the NEXT bead, you will get a point. <br><br>Press the SPACEBAR to continue.</p><div>","32"
"html-keyboard-response","6","142828","0.0-2.0-1.0","15","Low_HMMActual","12474.599999841303","","","","<div class=""container"" style=""height:800px;width:800px;display:flex;flex-direction:column;justify-content:center;align-items:center;text-align:center;font-weight:normal;font-family:Arial;font-size:20px""><p>Jars are filled with 80% white or black beads and 20% of the opposite color mixed in.<br><br>Press the SPACEBAR to continue. </p><div>","32"
"image-keyboard-response","7","153273","0.0-2.0-2.0","15","Low_HMMActual","10441.690000006929","","","","resources/WhiteJar_HMM.png","32"
"image-keyboard-response","8","159504","0.0-2.0-3.0","15","Low_HMMActual","6228.1399997882545","","","","resources/BlackJar_HMM.png","32"
"html-keyboard-response","9","173882","0.0-2.0-4.0","15","Low_HMMActual","14376.054999884218","","","","<div class=""container"" style=""height:800px;width:800px;display:flex;flex-direction:column;justify-content:center;align-items:center;text-align:center;font-weight:normal;font-family:Arial;font-size:20px""><p>There will be two blocks of trials. Each block will contain 500 trials. <br><br>Here are examples of what you will see on each trial.<br><br>Press the SPACEBAR to continue. </p><div>","32"
"image-keyboard-response","10","180106","0.0-2.0-5.0","15","Low_HMMActual","6221.300000092015","","","","Images/NoChoice.png","32"
"html-keyboard-response","11","242448","0.0-2.0-6.0","15","Low_HMMActual","62340.2500001248","","","","<div class=""container"" style=""height:800px;width:800px;display:flex;flex-direction:column;justify-content:center;align-items:center;text-align:center;font-weight:normal;font-family:Arial;font-size:20px""><p> The jar the beads are pulled from is NOT choosen at random on each trial.<br><br>After each prediction, there will be a chance that the jars will switch, and that the next bead will be pulled from the opposite jar as the previous trial.<br><br>In each block, the chance that a jar will switch will either be LOW (the jars will not switch very often), or HIGH (the jars will switch almost all the time).<br><br>At the start of each block, you will be told the probability that the jars will switch on each trial. This switch probability will stay constant throughout the block.<br><br>We will now show you some examples of beads being drawn from jars. The bead will appear in the middle of the screen, and the jar the bead was pulled from will be indicated with a black rectangle.<br><br>Press the SPACEBAR to continue. </p><div>","32"
"image-keyboard-response","12","263529","0.0-2.0-7.0","15","Low_HMMActual","21079.284999985248","","","","Images/TutorialWhiteJarDrawHMMC.png","32"
"image-keyboard-response","13","269917","0.0-2.0-8.0","15","Low_HMMActual","6384.46499989368","","","","Images/TutorialBlackJarDrawHMMC.png","32"
"image-keyboard-response","14","272820","0.0-2.0-9.0","15","Low_HMMActual","2900.415000040084","","","","Images/TutorialBlackJarDrawHMMI.png","32"
"html-keyboard-response","15","296429","0.0-2.0-10.0","15","Low_HMMActual","23607.074999948964","","","","<div class=""container"" style=""height:800px;width:800px;display:flex;flex-direction:column;justify-content:center;align-items:center;text-align:center;font-weight:normal;font-family:Arial;font-size:20px""><p> As you observed, a white bead was pulled from a 80% white jar, the jars switched and a black bead was pulled from the 80% black jar, but then a low-probability white bead was pulled from the 80% black jar. <br><br>This means that the color of the bead will not always match to the color of the jar it was pulled from.<br><br>Press SPACEBAR to conitnue.</p><div>","32"
"html-keyboard-response","16","301407","0.0-2.0-11.0","15","Low_HMMActual","4975.515000056475","","","","<div class=""container"" style=""height:800px;width:800px;display:flex;flex-direction:column;justify-content:center;align-items:center;text-align:center;font-weight:normal;font-family:Arial;font-size:20px""><p> You will now be given a 2 question quiz to make sure you understand the task. </p><div>","32"
"image-keyboard-response","17","315669","0.0-2.0-12.0","15","Low_HMMActual","14258.184999926016","","","","Images/TutorialQuestion1.png","39"
"image-keyboard-response","18","326943","0.0-2.0-13.0","15","Low_HMMActual","7909.395000198856","","","","Images/TutorialQuestion2.png","38"
"html-keyboard-response","19","348972","0.0-3.0","15","Low_HMMActual","20362.834999803454","","","","<div class=""container"" style=""height:800px;width:800px;display:flex;flex-direction:column;justify-content:center;align-items:center;text-align:center;font-weight:normal;font-family:Arial;font-size:20px""><p>Loading episode&hellip;</p><div>","32"
"image-keyboard-response","20","369516","0.0-4.0-0.0","15","Low_HMMActual","20539.770000148565","","","","Images/NoChoice.png","39"
"image-keyboard-response","21","369922","0.0-4.0-1.0","15","Low_HMMActual","176.1950000654906","","","","Images/WhiteBeadChoice.png","39"
"image-keyboard-response","22","370625","0.0-4.0-2.0","15","Low_HMMActual","null","","","","Images/WhiteBeadChoiceCorrect.png","null"
"image-keyboard-response","23","374442","0.0-4.0-0.1","15","Low_HMMActual","3815.679999999702","","","","Images/NewTrialWC.png","39"
"image-keyboard-response","24","374845","0.0-4.0-1.1","15","Low_HMMActual","null","","","","Images/WhiteBeadChoice.png","null"
"image-keyboard-response","25","375547","0.0-4.0-2.1","15","Low_HMMActual","null","","","","Images/WhiteBeadChoiceWrong.png","null"
"image-keyboard-response","26","382197","0.0-4.0-0.2","15","Low_HMMActual","6648.040000116453","","","","Images/NewTrialBC.png","39"
"image-keyboard-response","27","382600","0.0-4.0-1.2","15","Low_HMMActual","null","","","","Images/WhiteBeadChoice.png","null"
"image-keyboard-response","28","383303","0.0-4.0-2.2","15","Low_HMMActual","null","","","","Images/WhiteBeadChoiceWrong.png","null"
"image-keyboard-response","29","384462","0.0-4.0-0.3","15","Low_HMMActual","1155.9999999590218","","","","Images/NewTrialBC.png","39"
"image-keyboard-response","30","384865","0.0-4.0-1.3","15","Low_HMMActual","null","","","","Images/WhiteBeadChoice.png","null"
"image-keyboard-response","31","385569","0.0-4.0-2.3","15","Low_HMMActual","null","","","","Images/WhiteBeadChoiceWrong.png","null"
"image-keyboard-response","32","386348","0.0-4.0-0.4","15","Low_HMMActual","774.9550000298768","","","","Images/NewTrialBC.png","39"
"image-keyboard-response","33","386751","0.0-4.0-1.4","15","Low_HMMActual","null","","","","Images/WhiteBeadChoice.png","null"
"image-keyboard-response","34","387454","0.0-4.0-2.4","15","Low_HMMActual","null","","","","Images/WhiteBeadChoiceWrong.png","null"
"image-keyboard-response","35","388322","0.0-4.0-0.5","15","Low_HMMActual","865.5000000726432","","","","Images/NewTrialBC.png","37"
"image-keyboard-response","36","388724","0.0-4.0-1.5","15","Low_HMMActual","null","","","","Images/BlackBeadChoice.png","null"
"image-keyboard-response","37","389428","0.0-4.0-2.5","15","Low_HMMActual","null","","","","Images/BlackBeadChoiceCorrect.png","null"
"image-keyboard-response","38","390267","0.0-4.0-0.6","15","Low_HMMActual","836.030000122264","","","","Images/NewTrialBC.png","37"
"image-keyboard-response","39","390672","0.0-4.0-1.6","15","Low_HMMActual","null","","","","Images/BlackBeadChoice.png","null"
"image-keyboard-response","40","391375","0.0-4.0-2.6","15","Low_HMMActual","null","","","","Images/BlackBeadChoiceCorrect.png","null"
"image-keyboard-response","41","391926","0.0-4.0-0.7","15","Low_HMMActual","546.5299999341369","","","","Images/NewTrialBC.png","37"
"image-keyboard-response","42","392329","0.0-4.0-1.7","15","Low_HMMActual","null","","","","Images/BlackBeadChoice.png","null"
"image-keyboard-response","43","393031","0.0-4.0-2.7","15","Low_HMMActual","null","","","","Images/BlackBeadChoiceCorrect.png","null"
"image-keyboard-response","44","393525","0.0-4.0-0.8","15","Low_HMMActual","491.2499999627471","","","","Images/NewTrialBC.png","37"
"image-keyboard-response","45","393928","0.0-4.0-1.8","15","Low_HMMActual","null","","","","Images/BlackBeadChoice.png","null"
"image-keyboard-response","46","394631","0.0-4.0-2.8","15","Low_HMMActual","null","","","","Images/BlackBeadChoiceWrong.png","null"
"image-keyboard-response","47","398060","0.0-4.0-0.9","15","Low_HMMActual","3426.9749999511987","","","","Images/NewTrialWC.png","37"
"image-keyboard-response","48","398463","0.0-4.0-1.9","15","Low_HMMActual","null","","","","Images/BlackBeadChoice.png","null"
"image-keyboard-response","49","399167","0.0-4.0-2.9","15","Low_HMMActual","null","","","","Images/BlackBeadChoiceCorrect.png","null"
"image-keyboard-response","50","401005","0.0-4.0-0.10","15","Low_HMMActual","1834.6799998544157","","","","Images/NewTrialBC.png","37"
"image-keyboard-response","51","401409","0.0-4.0-1.10","15","Low_HMMActual","null","","","","Images/BlackBeadChoice.png","null"
"image-keyboard-response","52","402113","0.0-4.0-2.10","15","Low_HMMActual","null","","","","Images/BlackBeadChoiceCorrect.png","null"
"image-keyboard-response","53","402718","0.0-4.0-0.11","15","Low_HMMActual","602.3499998264015","","","","Images/NewTrialBC.png","37"
"image-keyboard-response","54","403121","0.0-4.0-1.11","15","Low_HMMActual","null","","","","Images/BlackBeadChoice.png","null"
"image-keyboard-response","55","403822","0.0-4.0-2.11","15","Low_HMMActual","null","","","","Images/BlackBeadChoiceWrong.png","null"
"image-keyboard-response","56","405084","0.0-4.0-0.12","15","Low_HMMActual","1258.5899999830872","","","","Images/NewTrialWC.png","37"
"image-keyboard-response","57","405487","0.0-4.0-1.12","15","Low_HMMActual","null","","","","Images/BlackBeadChoice.png","null"
"image-keyboard-response","58","406189","0.0-4.0-2.12","15","Low_HMMActual","null","","","","Images/BlackBeadChoiceCorrect.png","null"
"image-keyboard-response","59","409754","0.0-4.0-0.13","15","Low_HMMActual","3561.4549999590963","","","","Images/NewTrialBC.png","37"
"image-keyboard-response","60","410156","0.0-4.0-1.13","15","Low_HMMActual","null","","","","Images/BlackBeadChoice.png","null"
"image-keyboard-response","61","410860","0.0-4.0-2.13","15","Low_HMMActual","null","","","","Images/BlackBeadChoiceCorrect.png","null"
"image-keyboard-response","62","412430","0.0-4.0-0.14","15","Low_HMMActual","1565.4449998401105","","","","Images/NewTrialBC.png","37"
"image-keyboard-response","63","412832","0.0-4.0-1.14","15","Low_HMMActual","null","","","","Images/BlackBeadChoice.png","null"
"image-keyboard-response","64","413536","0.0-4.0-2.14","15","Low_HMMActual","null","","","","Images/BlackBeadChoiceCorrect.png","null"
"image-keyboard-response","65","414324","0.0-4.0-0.15","15","Low_HMMActual","783.6249999236315","","","","Images/NewTrialBC.png","37"
"image-keyboard-response","66","414726","0.0-4.0-1.15","15","Low_HMMActual","null","","","","Images/BlackBeadChoice.png","null"
"image-keyboard-response","67","415430","0.0-4.0-2.15","15","Low_HMMActual","null","","","","Images/BlackBeadChoiceCorrect.png","null"
"image-keyboard-response","68","417036","0.0-4.0-0.16","15","Low_HMMActual","1603.9149998687208","","","","Images/NewTrialBC.png","37"
"image-keyboard-response","69","417445","0.0-4.0-1.16","15","Low_HMMActual","null","","","","Images/BlackBeadChoice.png","null"
"image-keyboard-response","70","418150","0.0-4.0-2.16","15","Low_HMMActual","null","","","","Images/BlackBeadChoiceCorrect.png","null"
"image-keyboard-response","71","418740","0.0-4.0-0.17","15","Low_HMMActual","586.4749997854233","","","","Images/NewTrialBC.png","37"
"image-keyboard-response","72","419143","0.0-4.0-1.17","15","Low_HMMActual","null","","","","Images/BlackBeadChoice.png","null"
"image-keyboard-response","73","419846","0.0-4.0-2.17","15","Low_HMMActual","null","","","","Images/BlackBeadChoiceCorrect.png","null"
"image-keyboard-response","74","420238","0.0-4.0-0.18","15","Low_HMMActual","389.59000003524125","","","","Images/NewTrialBC.png","37"
"image-keyboard-response","75","420641","0.0-4.0-1.18","15","Low_HMMActual","null","","","","Images/BlackBeadChoice.png","null"
"image-keyboard-response","76","421344","0.0-4.0-2.18","15","Low_HMMActual","null","","","","Images/BlackBeadChoiceCorrect.png","null"
"image-keyboard-response","77","421719","0.0-4.0-0.19","15","Low_HMMActual","371.430000057444","","","","Images/NewTrialBC.png","37"
"image-keyboard-response","78","422122","0.0-4.0-1.19","15","Low_HMMActual","null","","","","Images/BlackBeadChoice.png","null"
"image-keyboard-response","79","422825","0.0-4.0-2.19","15","Low_HMMActual","null","","","","Images/BlackBeadChoiceCorrect.png","null"
"image-keyboard-response","80","423174","0.0-4.0-0.20","15","Low_HMMActual","345.5850000027567","","","","Images/NewTrialBC.png","37"
"image-keyboard-response","81","423578","0.0-4.0-1.20","15","Low_HMMActual","null","","","","Images/BlackBeadChoice.png","null"
"image-keyboard-response","82","424282","0.0-4.0-2.20","15","Low_HMMActual","null","","","","Images/BlackBeadChoiceCorrect.png","null"
"image-keyboard-response","83","424595","0.0-4.0-0.21","15","Low_HMMActual","310.60000020079315","","","","Images/NewTrialBC.png","37"
"image-keyboard-response","84","424997","0.0-4.0-1.21","15","Low_HMMActual","null","","","","Images/BlackBeadChoice.png","null"
"image-keyboard-response","85","425701","0.0-4.0-2.21","15","Low_HMMActual","null","","","","Images/BlackBeadChoiceWrong.png","null"
"image-keyboard-response","86","426578","0.0-4.0-0.22","15","Low_HMMActual","874.8350001405925","","","","Images/NewTrialWC.png","37"
"image-keyboard-response","87","426982","0.0-4.0-1.22","15","Low_HMMActual","null","","","","Images/BlackBeadChoice.png","null"
"image-keyboard-response","88","427685","0.0-4.0-2.22","15","Low_HMMActual","null","","","","Images/BlackBeadChoiceCorrect.png","null"
"image-keyboard-response","89","427992","0.0-4.0-0.23","15","Low_HMMActual","303.2700000330806","","","","Images/NewTrialBC.png","37"
"image-keyboard-response","90","428394","0.0-4.0-1.23","15","Low_HMMActual","null","","","","Images/BlackBeadChoice.png","null"
"image-keyboard-response","91","429096","0.0-4.0-2.23","15","Low_HMMActual","null","","","","Images/BlackBeadChoiceCorrect.png","null"
"image-keyboard-response","92","429429","0.0-4.0-0.24","15","Low_HMMActual","330.2900001872331","","","","Images/NewTrialBC.png","37"
"image-keyboard-response","93","429832","0.0-4.0-1.24","15","Low_HMMActual","null","","","","Images/BlackBeadChoice.png","null"
"image-keyboard-response","94","430535","0.0-4.0-2.24","15","Low_HMMActual","null","","","","Images/BlackBeadChoiceCorrect.png","null"
"image-keyboard-response","95","430947","0.0-4.0-0.25","15","Low_HMMActual","408.5349999368191","","","","Images/NewTrialBC.png","37"
"image-keyboard-response","96","431351","0.0-4.0-1.25","15","Low_HMMActual","null","","","","Images/BlackBeadChoice.png","null"
"image-keyboard-response","97","432055","0.0-4.0-2.25","15","Low_HMMActual","null","","","","Images/BlackBeadChoiceCorrect.png","null"
"image-keyboard-response","98","432350","0.0-4.0-0.26","15","Low_HMMActual","291.6500000283122","","","","Images/NewTrialBC.png","37"
"image-keyboard-response","99","432754","0.0-4.0-1.26","15","Low_HMMActual","null","","","","Images/BlackBeadChoice.png","null"
"image-keyboard-response","100","433459","0.0-4.0-2.26","15","Low_HMMActual","null","","","","Images/BlackBeadChoiceCorrect.png","null"
"image-keyboard-response","101","433866","0.0-4.0-0.27","15","Low_HMMActual","404.8599998932332","","","","Images/NewTrialBC.png","37"
"image-keyboard-response","102","434269","0.0-4.0-1.27","15","Low_HMMActual","null","","","","Images/BlackBeadChoice.png","null"
"image-keyboard-response","103","434971","0.0-4.0-2.27","15","Low_HMMActual","null","","","","Images/BlackBeadChoiceCorrect.png","null"
"image-keyboard-response","104","438834","0.0-4.0-0.28","15","Low_HMMActual","3861.4400001242757","","","","Images/NewTrialBC.png","37"
"image-keyboard-response","105","439238","0.0-4.0-1.28","15","Low_HMMActual","null","","","","Images/BlackBeadChoice.png","null"
"image-keyboard-response","106","439941","0.0-4.0-2.28","15","Low_HMMActual","null","","","","Images/BlackBeadChoiceCorrect.png","null"
"image-keyboard-response","107","440435","0.0-4.0-0.29","15","Low_HMMActual","492.27500008419156","","","","Images/NewTrialBC.png","37"
"image-keyboard-response","108","440838","0.0-4.0-1.29","15","Low_HMMActual","null","","","","Images/BlackBeadChoice.png","null"
"image-keyboard-response","109","441541","0.0-4.0-2.29","15","Low_HMMActual","null","","","","Images/BlackBeadChoiceCorrect.png","null"
"image-keyboard-response","110","441922","0.0-4.0-0.30","15","Low_HMMActual","378.7949997931719","","","","Images/NewTrialBC.png","37"
"image-keyboard-response","111","442325","0.0-4.0-1.30","15","Low_HMMActual","null","","","","Images/BlackBeadChoice.png","null"
"image-keyboard-response","112","443028","0.0-4.0-2.30","15","Low_HMMActual","null","","","","Images/BlackBeadChoiceWrong.png","null"
"image-keyboard-response","113","456374","0.0-4.0-0.31","15","Low_HMMActual","13343.755000038072","","","","Images/NewTrialWC.png","37"
"image-keyboard-response","114","456777","0.0-4.0-1.31","15","Low_HMMActual","null","","","","Images/BlackBeadChoice.png","null"
"image-keyboard-response","115","457481","0.0-4.0-2.31","15","Low_HMMActual","null","","","","Images/BlackBeadChoiceCorrect.png","null"
"image-keyboard-response","116","459123","0.0-4.0-0.32","15","Low_HMMActual","1640.940000070259","","","","Images/NewTrialBC.png","37"
"image-keyboard-response","117","459525","0.0-4.0-1.32","15","Low_HMMActual","null","","","","Images/BlackBeadChoice.png","null"
"image-keyboard-response","118","460227","0.0-4.0-2.32","15","Low_HMMActual","null","","","","Images/BlackBeadChoiceWrong.png","null"
"image-keyboard-response","119","462163","0.0-4.0-0.33","15","Low_HMMActual","1932.2000001557171","","","","Images/NewTrialWC.png","37"
"image-keyboard-response","120","462567","0.0-4.0-1.33","15","Low_HMMActual","null","","","","Images/BlackBeadChoice.png","null"
"image-keyboard-response","121","463270","0.0-4.0-2.33","15","Low_HMMActual","null","","","","Images/BlackBeadChoiceCorrect.png","null"
"image-keyboard-response","122","464007","0.0-4.0-0.34","15","Low_HMMActual","733.1499999854714","","","","Images/NewTrialBC.png","37"
"image-keyboard-response","123","464410","0.0-4.0-1.34","15","Low_HMMActual","null","","","","Images/BlackBeadChoice.png","null"
"image-keyboard-response","124","465114","0.0-4.0-2.34","15","Low_HMMActual","null","","","","Images/BlackBeadChoiceCorrect.png","null"
"image-keyboard-response","125","465645","0.0-4.0-0.35","15","Low_HMMActual","528.9699998684227","","","","Images/NewTrialBC.png","37"
"image-keyboard-response","126","466047","0.0-4.0-1.35","15","Low_HMMActual","null","","","","Images/BlackBeadChoice.png","null"
"image-keyboard-response","127","466750","0.0-4.0-2.35","15","Low_HMMActual","null","","","","Images/BlackBeadChoiceCorrect.png","null"
"image-keyboard-response","128","467472","0.0-4.0-0.36","15","Low_HMMActual","720.4050000291318","","","","Images/NewTrialBC.png","37"
"image-keyboard-response","129","467875","0.0-4.0-1.36","15","Low_HMMActual","23.234999971464276","","","","Images/BlackBeadChoice.png","37"
"image-keyboard-response","130","468579","0.0-4.0-2.36","15","Low_HMMActual","null","","","","Images/BlackBeadChoiceCorrect.png","null"
"image-keyboard-response","131","469169","0.0-4.0-0.37","15","Low_HMMActual","588.5450001806021","","","","Images/NewTrialBC.png","37"
"image-keyboard-response","132","469572","0.0-4.0-1.37","15","Low_HMMActual","null","","","","Images/BlackBeadChoice.png","null"
"image-keyboard-response","133","470275","0.0-4.0-2.37","15","Low_HMMActual","null","","","","Images/BlackBeadChoiceCorrect.png","null"
"image-keyboard-response","134","470599","0.0-4.0-0.38","15","Low_HMMActual","320.8649998996407","","","","Images/NewTrialBC.png","37"
"image-keyboard-response","135","471001","0.0-4.0-1.38","15","Low_HMMActual","null","","","","Images/BlackBeadChoice.png","null"
"image-keyboard-response","136","471704","0.0-4.0-2.38","15","Low_HMMActual","null","","","","Images/BlackBeadChoiceCorrect.png","null"
"image-keyboard-response","137","472005","0.0-4.0-0.39","15","Low_HMMActual","295.90000002644956","","","","Images/NewTrialBC.png","37"
"image-keyboard-response","138","472408","0.0-4.0-1.39","15","Low_HMMActual","null","","","","Images/BlackBeadChoice.png","null"
"image-keyboard-response","139","473112","0.0-4.0-2.39","15","Low_HMMActual","null","","","","Images/BlackBeadChoiceCorrect.png","null"
"image-keyboard-response","140","473367","0.0-4.0-0.40","15","Low_HMMActual","252.4049999192357","","","","Images/NewTrialBC.png","37"
"image-keyboard-response","141","473770","0.0-4.0-1.40","15","Low_HMMActual","null","","","","Images/BlackBeadChoice.png","null"
"image-keyboard-response","142","474474","0.0-4.0-2.40","15","Low_HMMActual","null","","","","Images/BlackBeadChoiceCorrect.png","null"
"image-keyboard-response","143","474725","0.0-4.0-0.41","15","Low_HMMActual","248.11000004410744","","","","Images/NewTrialBC.png","37"
"image-keyboard-response","144","475128","0.0-4.0-1.41","15","Low_HMMActual","null","","","","Images/BlackBeadChoice.png","null"
"image-keyboard-response","145","475831","0.0-4.0-2.41","15","Low_HMMActual","null","","","","Images/BlackBeadChoiceCorrect.png","null"
"image-keyboard-response","146","475944","0.0-4.0-0.42","15","Low_HMMActual","109.33499992825091","","","","Images/NewTrialBC.png","37"
"image-keyboard-response","147","476347","0.0-4.0-1.42","15","Low_HMMActual","null","","","","Images/BlackBeadChoice.png","null"
"image-keyboard-response","148","477050","0.0-4.0-2.42","15","Low_HMMActual","null","","","","Images/BlackBeadChoiceCorrect.png","null"
"image-keyboard-response","149","477288","0.0-4.0-0.43","15","Low_HMMActual","234.54500013031065","","","","Images/NewTrialBC.png","37"
"image-keyboard-response","150","477690","0.0-4.0-1.43","15","Low_HMMActual","null","","","","Images/BlackBeadChoice.png","null"
"image-keyboard-response","151","478394","0.0-4.0-2.43","15","Low_HMMActual","null","","","","Images/BlackBeadChoiceWrong.png","null"
"image-keyboard-response","152","479160","0.0-4.0-0.44","15","Low_HMMActual","763.7750001158565","","","","Images/NewTrialWC.png","37"
"image-keyboard-response","153","479563","0.0-4.0-1.44","15","Low_HMMActual","null","","","","Images/BlackBeadChoice.png","null"
"image-keyboard-response","154","480267","0.0-4.0-2.44","15","Low_HMMActual","301.6399999614805","","","","Images/BlackBeadChoiceCorrect.png","37"
"image-keyboard-response","155","480992","0.0-4.0-0.45","15","Low_HMMActual","722.4249998107553","","","","Images/NewTrialBC.png","37"
"image-keyboard-response","156","481395","0.0-4.0-1.45","15","Low_HMMActual","null","","","","Images/BlackBeadChoice.png","null"
"image-keyboard-response","157","482098","0.0-4.0-2.45","15","Low_HMMActual","null","","","","Images/BlackBeadChoiceWrong.png","null"
"image-keyboard-response","158","482445","0.0-4.0-0.46","15","Low_HMMActual","344.00499984622","","","","Images/NewTrialWC.png","37"
"image-keyboard-response","159","482848","0.0-4.0-1.46","15","Low_HMMActual","null","","","","Images/BlackBeadChoice.png","null"
"image-keyboard-response","160","483551","0.0-4.0-2.46","15","Low_HMMActual","null","","","","Images/BlackBeadChoiceCorrect.png","null"
"image-keyboard-response","161","483901","0.0-4.0-0.47","15","Low_HMMActual","347.70999988541007","","","","Images/NewTrialBC.png","37"
"image-keyboard-response","162","484304","0.0-4.0-1.47","15","Low_HMMActual","null","","","","Images/BlackBeadChoice.png","null"
"image-keyboard-response","163","485008","0.0-4.0-2.47","15","Low_HMMActual","null","","","","Images/BlackBeadChoiceCorrect.png","null"
"image-keyboard-response","164","485317","0.0-4.0-0.48","15","Low_HMMActual","307.81499994918704","","","","Images/NewTrialBC.png","37"
"image-keyboard-response","165","485718","0.0-4.0-1.48","15","Low_HMMActual","null","","","","Images/BlackBeadChoice.png","null"
"image-keyboard-response","166","486420","0.0-4.0-2.48","15","Low_HMMActual","null","","","","Images/BlackBeadChoiceCorrect.png","null"
"image-keyboard-response","167","504794","0.0-4.0-0.49","15","Low_HMMActual","18372.4350000266","","","","Images/NewTrialBC.png","37"
"image-keyboard-response","168","505198","0.0-4.0-1.49","15","Low_HMMActual","null","","","","Images/BlackBeadChoice.png","null"
"image-keyboard-response","169","505901","0.0-4.0-2.49","15","Low_HMMActual","null","","","","Images/BlackBeadChoiceWrong.png","null"
"image-keyboard-response","170","512038","0.0-4.0-0.50","15","Low_HMMActual","6132.965000113472","","","","Images/NewTrialWC.png","37"
"image-keyboard-response","171","512439","0.0-4.0-1.50","15","Low_HMMActual","null","","","","Images/BlackBeadChoice.png","null"
"image-keyboard-response","172","513142","0.0-4.0-2.50","15","Low_HMMActual","null","","","","Images/BlackBeadChoiceCorrect.png","null"
"image-keyboard-response","173","513510","0.0-4.0-0.51","15","Low_HMMActual","365.04000006243587","","","","Images/NewTrialBC.png","37"
"image-keyboard-response","174","513913","0.0-4.0-1.51","15","Low_HMMActual","null","","","","Images/BlackBeadChoice.png","null"
"image-keyboard-response","175","514616","0.0-4.0-2.51","15","Low_HMMActual","null","","","","Images/BlackBeadChoiceCorrect.png","null"
"image-keyboard-response","176","515138","0.0-4.0-0.52","15","Low_HMMActual","519.8500000406057","","","","Images/NewTrialBC.png","37"
"image-keyboard-response","177","515542","0.0-4.0-1.52","15","Low_HMMActual","null","","","","Images/BlackBeadChoice.png","null"
"image-keyboard-response","178","516244","0.0-4.0-2.52","15","Low_HMMActual","null","","","","Images/BlackBeadChoiceCorrect.png","null"
"image-keyboard-response","179","516969","0.0-4.0-0.53","15","Low_HMMActual","722.6050000172108","","","","Images/NewTrialBC.png","37"
"image-keyboard-response","180","517371","0.0-4.0-1.53","15","Low_HMMActual","null","","","","Images/BlackBeadChoice.png","null"
"image-keyboard-response","181","518075","0.0-4.0-2.53","15","Low_HMMActual","null","","","","Images/BlackBeadChoiceCorrect.png","null"
"image-keyboard-response","182","519040","0.0-4.0-0.54","15","Low_HMMActual","958.4999999497086","","","","Images/NewTrialBC.png","37"
"image-keyboard-response","183","519443","0.0-4.0-1.54","15","Low_HMMActual","null","","","","Images/BlackBeadChoice.png","null"
"image-keyboard-response","184","520146","0.0-4.0-2.54","15","Low_HMMActual","null","","","","Images/BlackBeadChoiceCorrect.png","null"
"image-keyboard-response","185","521065","0.0-4.0-0.55","15","Low_HMMActual","916.2999999243766","","","","Images/NewTrialBC.png","37"
"image-keyboard-response","186","521469","0.0-4.0-1.55","15","Low_HMMActual","null","","","","Images/BlackBeadChoice.png","null"
"image-keyboard-response","187","522171","0.0-4.0-2.55","15","Low_HMMActual","null","","","","Images/BlackBeadChoiceCorrect.png","null"
"image-keyboard-response","188","523290","0.0-4.0-0.56","15","Low_HMMActual","1114.894999889657","","","","Images/NewTrialBC.png","37"
"image-keyboard-response","189","523693","0.0-4.0-1.56","15","Low_HMMActual","null","","","","Images/BlackBeadChoice.png","null"
"image-keyboard-response","190","524397","0.0-4.0-2.56","15","Low_HMMActual","null","","","","Images/BlackBeadChoiceCorrect.png","null"
"image-keyboard-response","191","525419","0.0-4.0-0.57","15","Low_HMMActual","1019.2100000567734","","","","Images/NewTrialBC.png","37"
"image-keyboard-response","192","525820","0.0-4.0-1.57","15","Low_HMMActual","null","","","","Images/BlackBeadChoice.png","null"
"image-keyboard-response","193","526522","0.0-4.0-2.57","15","Low_HMMActual","null","","","","Images/BlackBeadChoiceWrong.png","null"
"image-keyboard-response","194","527513","0.0-4.0-0.58","15","Low_HMMActual","988.829999929294","","","","Images/NewTrialWC.png","37"
"image-keyboard-response","195","527919","0.0-4.0-1.58","15","Low_HMMActual","null","","","","Images/BlackBeadChoice.png","null"
"image-keyboard-response","196","528623","0.0-4.0-2.58","15","Low_HMMActual","null","","","","Images/BlackBeadChoiceCorrect.png","null"
"image-keyboard-response","197","528950","0.0-4.0-0.59","15","Low_HMMActual","323.33000004291534","","","","Images/NewTrialBC.png","37"
"image-keyboard-response","198","529353","0.0-4.0-1.59","15","Low_HMMActual","null","","","","Images/BlackBeadChoice.png","null"
"image-keyboard-response","199","530104","0.0-4.0-2.59","15","Low_HMMActual","null","","","","Images/BlackBeadChoiceWrong.png","null"
"image-keyboard-response","200","530856","0.0-4.0-0.60","15","Low_HMMActual","746.3850001804531","","","","Images/NewTrialWC.png","37"
"image-keyboard-response","201","531258","0.0-4.0-1.60","15","Low_HMMActual","null","","","","Images/BlackBeadChoice.png","null"
"image-keyboard-response","202","531960","0.0-4.0-2.60","15","Low_HMMActual","null","","","","Images/BlackBeadChoiceCorrect.png","null"
"image-keyboard-response","203","532723","0.0-4.0-0.61","15","Low_HMMActual","760.5449999682605","","","","Images/NewTrialBC.png","37"
"image-keyboard-response","204","533125","0.0-4.0-1.61","15","Low_HMMActual","null","","","","Images/BlackBeadChoice.png","null"
"image-keyboard-response","205","533828","0.0-4.0-2.61","15","Low_HMMActual","null","","","","Images/BlackBeadChoiceCorrect.png","null"
"image-keyboard-response","206","534267","0.0-4.0-0.62","15","Low_HMMActual","437.8500001039356","","","","Images/NewTrialBC.png","37"
"image-keyboard-response","207","534670","0.0-4.0-1.62","15","Low_HMMActual","null","","","","Images/BlackBeadChoice.png","null"
"image-keyboard-response","208","535373","0.0-4.0-2.62","15","Low_HMMActual","null","","","","Images/BlackBeadChoiceCorrect.png","null"
"image-keyboard-response","209","536004","0.0-4.0-0.63","15","Low_HMMActual","628.3549999352545","","","","Images/NewTrialBC.png","37"
"image-keyboard-response","210","536407","0.0-4.0-1.63","15","Low_HMMActual","null","","","","Images/BlackBeadChoice.png","null"
"image-keyboard-response","211","537110","0.0-4.0-2.63","15","Low_HMMActual","null","","","","Images/BlackBeadChoiceCorrect.png","null"
"image-keyboard-response","212","537551","0.0-4.0-0.64","15","Low_HMMActual","439.05000016093254","","","","Images/NewTrialBC.png","37"
"image-keyboard-response","213","537954","0.0-4.0-1.64","15","Low_HMMActual","null","","","","Images/BlackBeadChoice.png","null"
"image-keyboard-response","214","538657","0.0-4.0-2.64","15","Low_HMMActual","null","","","","Images/BlackBeadChoiceCorrect.png","null"
"image-keyboard-response","215","539019","0.0-4.0-0.65","15","Low_HMMActual","358.4549999795854","","","","Images/NewTrialBC.png","37"
"image-keyboard-response","216","539423","0.0-4.0-1.65","15","Low_HMMActual","null","","","","Images/BlackBeadChoice.png","null"
"image-keyboard-response","217","540126","0.0-4.0-2.65","15","Low_HMMActual","null","","","","Images/BlackBeadChoiceCorrect.png","null"
"image-keyboard-response","218","540364","0.0-4.0-0.66","15","Low_HMMActual","235.23499979637563","","","","Images/NewTrialBC.png","37"
"image-keyboard-response","219","540767","0.0-4.0-1.66","15","Low_HMMActual","null","","","","Images/BlackBeadChoice.png","null"
"image-keyboard-response","220","541471","0.0-4.0-2.66","15","Low_HMMActual","null","","","","Images/BlackBeadChoiceCorrect.png","null"
"image-keyboard-response","221","541706","0.0-4.0-0.67","15","Low_HMMActual","233.524999814108","","","","Images/NewTrialBC.png","37"
"image-keyboard-response","222","542112","0.0-4.0-1.67","15","Low_HMMActual","null","","","","Images/BlackBeadChoice.png","null"
"image-keyboard-response","223","542823","0.0-4.0-2.67","15","Low_HMMActual","null","","","","Images/BlackBeadChoiceCorrect.png","null"
"image-keyboard-response","224","543053","0.0-4.0-0.68","15","Low_HMMActual","226.28000006079674","","","","Images/NewTrialBC.png","37"
"image-keyboard-response","225","543456","0.0-4.0-1.68","15","Low_HMMActual","null","","","","Images/BlackBeadChoice.png","null"
"image-keyboard-response","226","544160","0.0-4.0-2.68","15","Low_HMMActual","null","","","","Images/BlackBeadChoiceCorrect.png","null"
"image-keyboard-response","227","544300","0.0-4.0-0.69","15","Low_HMMActual","137.95000012032688","","","","Images/NewTrialBC.png","37"
"image-keyboard-response","228","544702","0.0-4.0-1.69","15","Low_HMMActual","null","","","","Images/BlackBeadChoice.png","null"
"image-keyboard-response","229","545405","0.0-4.0-2.69","15","Low_HMMActual","489.01500017382205","","","","Images/BlackBeadChoiceCorrect.png","37"
"image-keyboard-response","230","545789","0.0-4.0-0.70","15","Low_HMMActual","376.88999995589256","","","","Images/NewTrialBC.png","37"
"image-keyboard-response","231","546192","0.0-4.0-1.70","15","Low_HMMActual","null","","","","Images/BlackBeadChoice.png","null"
"image-keyboard-response","232","546896","0.0-4.0-2.70","15","Low_HMMActual","null","","","","Images/BlackBeadChoiceCorrect.png","null"
"image-keyboard-response","233","547153","0.0-4.0-0.71","15","Low_HMMActual","253.31499986350536","","","","Images/NewTrialBC.png","37"
"image-keyboard-response","234","547555","0.0-4.0-1.71","15","Low_HMMActual","null","","","","Images/BlackBeadChoice.png","null"
"image-keyboard-response","235","548257","0.0-4.0-2.71","15","Low_HMMActual","457.87999988533556","","","","Images/BlackBeadChoiceCorrect.png","37"
"image-keyboard-response","236","548907","0.0-4.0-0.72","15","Low_HMMActual","647.2849999554455","","","","Images/NewTrialBC.png","37"
"image-keyboard-response","237","549309","0.0-4.0-1.72","15","Low_HMMActual","null","","","","Images/BlackBeadChoice.png","null"
"image-keyboard-response","238","550012","0.0-4.0-2.72","15","Low_HMMActual","null","","","","Images/BlackBeadChoiceWrong.png","null"
"image-keyboard-response","239","550443","0.0-4.0-0.73","15","Low_HMMActual","427.50999983400106","","","","Images/NewTrialWC.png","37"
"image-keyboard-response","240","550846","0.0-4.0-1.73","15","Low_HMMActual","null","","","","Images/BlackBeadChoice.png","null"
"image-keyboard-response","241","551552","0.0-4.0-2.73","15","Low_HMMActual","442.7000000141561","","","","Images/BlackBeadChoiceCorrect.png","37"
"image-keyboard-response","242","551857","0.0-4.0-0.74","15","Low_HMMActual","300.4600000567734","","","","Images/NewTrialBC.png","37"
"image-keyboard-response","243","552260","0.0-4.0-1.74","15","Low_HMMActual","null","","","","Images/BlackBeadChoice.png","null"
"image-keyboard-response","244","552962","0.0-4.0-2.74","15","Low_HMMActual","674.2799999192357","","","","Images/BlackBeadChoiceWrong.png","37"
"image-keyboard-response","245","553619","0.0-4.0-0.75","15","Low_HMMActual","654.8500000499189","","","","Images/NewTrialWC.png","37"
"image-keyboard-response","246","554021","0.0-4.0-1.75","15","Low_HMMActual","null","","","","Images/BlackBeadChoice.png","null"
"image-keyboard-response","247","554723","0.0-4.0-2.75","15","Low_HMMActual","null","","","","Images/BlackBeadChoiceCorrect.png","null"
"image-keyboard-response","248","556971","0.0-4.0-0.76","15","Low_HMMActual","2245.545000070706","","","","Images/NewTrialBC.png","37"
"image-keyboard-response","249","557373","0.0-4.0-1.76","15","Low_HMMActual","null","","","","Images/BlackBeadChoice.png","null"
"image-keyboard-response","250","558077","0.0-4.0-2.76","15","Low_HMMActual","null","","","","Images/BlackBeadChoiceCorrect.png","null"
"image-keyboard-response","251","561529","0.0-4.0-0.77","15","Low_HMMActual","3446.440000087023","","","","Images/NewTrialBC.png","37"
"image-keyboard-response","252","561932","0.0-4.0-1.77","15","Low_HMMActual","null","","","","Images/BlackBeadChoice.png","null"
"image-keyboard-response","253","562634","0.0-4.0-2.77","15","Low_HMMActual","null","","","","Images/BlackBeadChoiceCorrect.png","null"
"image-keyboard-response","254","563173","0.0-4.0-0.78","15","Low_HMMActual","536.5699999965727","","","","Images/NewTrialBC.png","37"
"image-keyboard-response","255","563576","0.0-4.0-1.78","15","Low_HMMActual","null","","","","Images/BlackBeadChoice.png","null"
"image-keyboard-response","256","564278","0.0-4.0-2.78","15","Low_HMMActual","null","","","","Images/BlackBeadChoiceWrong.png","null"
"image-keyboard-response","257","565720","0.0-4.0-0.79","15","Low_HMMActual","1438.0499999970198","","","","Images/NewTrialWC.png","37"
"image-keyboard-response","258","566122","0.0-4.0-1.79","15","Low_HMMActual","null","","","","Images/BlackBeadChoice.png","null"
"image-keyboard-response","259","566824","0.0-4.0-2.79","15","Low_HMMActual","null","","","","Images/BlackBeadChoiceCorrect.png","null"
"image-keyboard-response","260","569829","0.0-4.0-0.80","15","Low_HMMActual","3002.8499998152256","","","","Images/NewTrialBC.png","37"
"image-keyboard-response","261","570231","0.0-4.0-1.80","15","Low_HMMActual","null","","","","Images/BlackBeadChoice.png","null"
"image-keyboard-response","262","570934","0.0-4.0-2.80","15","Low_HMMActual","null","","","","Images/BlackBeadChoiceWrong.png","null"
"image-keyboard-response","263","573282","0.0-4.0-0.81","15","Low_HMMActual","2345.8499999251217","","","","Images/NewTrialWC.png","39"
"image-keyboard-response","264","573685","0.0-4.0-1.81","15","Low_HMMActual","null","","","","Images/WhiteBeadChoice.png","null"
"image-keyboard-response","265","574387","0.0-4.0-2.81","15","Low_HMMActual","null","","","","Images/WhiteBeadChoiceCorrect.png","null"
"image-keyboard-response","266","576158","0.0-4.0-0.82","15","Low_HMMActual","1770.090000005439","","","","Images/NewTrialWC.png","37"
"image-keyboard-response","267","576561","0.0-4.0-1.82","15","Low_HMMActual","null","","","","Images/BlackBeadChoice.png","null"
"image-keyboard-response","268","577264","0.0-4.0-2.82","15","Low_HMMActual","null","","","","Images/BlackBeadChoiceWrong.png","null"
"image-keyboard-response","269","577906","0.0-4.0-0.83","15","Low_HMMActual","640.5950000043958","","","","Images/NewTrialWC.png","39"
"image-keyboard-response","270","578310","0.0-4.0-1.83","15","Low_HMMActual","null","","","","Images/WhiteBeadChoice.png","null"
"image-keyboard-response","271","579012","0.0-4.0-2.83","15","Low_HMMActual","null","","","","Images/WhiteBeadChoiceWrong.png","null"
"image-keyboard-response","272","579773","0.0-4.0-0.84","15","Low_HMMActual","757.5049998704344","","","","Images/NewTrialBC.png","37"
"image-keyboard-response","273","580176","0.0-4.0-1.84","15","Low_HMMActual","null","","","","Images/BlackBeadChoice.png","null"
"image-keyboard-response","274","580878","0.0-4.0-2.84","15","Low_HMMActual","null","","","","Images/BlackBeadChoiceCorrect.png","null"
"image-keyboard-response","275","581138","0.0-4.0-0.85","15","Low_HMMActual","256.5150000154972","","","","Images/NewTrialBC.png","37"
"image-keyboard-response","276","581573","0.0-4.0-1.85","15","Low_HMMActual","null","","","","Images/BlackBeadChoice.png","null"
"image-keyboard-response","277","582275","0.0-4.0-2.85","15","Low_HMMActual","null","","","","Images/BlackBeadChoiceCorrect.png","null"
"image-keyboard-response","278","582392","0.0-4.0-0.86","15","Low_HMMActual","114.5999999716878","","","","Images/NewTrialBC.png","37"
"image-keyboard-response","279","582795","0.0-4.0-1.86","15","Low_HMMActual","null","","","","Images/BlackBeadChoice.png","null"
"image-keyboard-response","280","583499","0.0-4.0-2.86","15","Low_HMMActual","null","","","","Images/BlackBeadChoiceWrong.png","null"
"image-keyboard-response","281","584346","0.0-4.0-0.87","15","Low_HMMActual","843.3999998960644","","","","Images/NewTrialWC.png","39"
"image-keyboard-response","282","584749","0.0-4.0-1.87","15","Low_HMMActual","null","","","","Images/WhiteBeadChoice.png","null"
"image-keyboard-response","283","585453","0.0-4.0-2.87","15","Low_HMMActual","null","","","","Images/WhiteBeadChoiceCorrect.png","null"
"image-keyboard-response","284","586455","0.0-4.0-0.88","15","Low_HMMActual","999.6749998535961","","","","Images/NewTrialWC.png","37"
"image-keyboard-response","285","586858","0.0-4.0-1.88","15","Low_HMMActual","null","","","","Images/BlackBeadChoice.png","null"
"image-keyboard-response","286","587562","0.0-4.0-2.88","15","Low_HMMActual","null","","","","Images/BlackBeadChoiceWrong.png","null"
"image-keyboard-response","287","587860","0.0-4.0-0.89","15","Low_HMMActual","296.32500000298023","","","","Images/NewTrialWC.png","39"
"image-keyboard-response","288","588264","0.0-4.0-1.89","15","Low_HMMActual","null","","","","Images/WhiteBeadChoice.png","null"
"image-keyboard-response","289","588967","0.0-4.0-2.89","15","Low_HMMActual","null","","","","Images/WhiteBeadChoiceWrong.png","null"
"image-keyboard-response","290","589355","0.0-4.0-0.90","15","Low_HMMActual","385.6400002259761","","","","Images/NewTrialBC.png","37"
"image-keyboard-response","291","589758","0.0-4.0-1.90","15","Low_HMMActual","null","","","","Images/BlackBeadChoice.png","null"
"image-keyboard-response","292","590462","0.0-4.0-2.90","15","Low_HMMActual","null","","","","Images/BlackBeadChoiceWrong.png","null"
"image-keyboard-response","293","590870","0.0-4.0-0.91","15","Low_HMMActual","405.93500016257167","","","","Images/NewTrialWC.png","39"
"image-keyboard-response","294","591273","0.0-4.0-1.91","15","Low_HMMActual","null","","","","Images/WhiteBeadChoice.png","null"
"image-keyboard-response","295","591977","0.0-4.0-2.91","15","Low_HMMActual","null","","","","Images/WhiteBeadChoiceWrong.png","null"
"image-keyboard-response","296","592380","0.0-4.0-0.92","15","Low_HMMActual","400.2300000283867","","","","Images/NewTrialBC.png","37"
"image-keyboard-response","297","592782","0.0-4.0-1.92","15","Low_HMMActual","null","","","","Images/BlackBeadChoice.png","null"
"image-keyboard-response","298","593486","0.0-4.0-2.92","15","Low_HMMActual","null","","","","Images/BlackBeadChoiceWrong.png","null"
"image-keyboard-response","299","594196","0.0-4.0-0.93","15","Low_HMMActual","707.935000071302","","","","Images/NewTrialWC.png","39"
"image-keyboard-response","300","594599","0.0-4.0-1.93","15","Low_HMMActual","null","","","","Images/WhiteBeadChoice.png","null"
"image-keyboard-response","301","595300","0.0-4.0-2.93","15","Low_HMMActual","null","","","","Images/WhiteBeadChoiceWrong.png","null"
"image-keyboard-response","302","596495","0.0-4.0-0.94","15","Low_HMMActual","1192.2100000083447","","","","Images/NewTrialBC.png","37"
"image-keyboard-response","303","596900","0.0-4.0-1.94","15","Low_HMMActual","null","","","","Images/BlackBeadChoice.png","null"
"image-keyboard-response","304","597601","0.0-4.0-2.94","15","Low_HMMActual","null","","","","Images/BlackBeadChoiceCorrect.png","null"
"image-keyboard-response","305","597884","0.0-4.0-0.95","15","Low_HMMActual","280.8799999766052","","","","Images/NewTrialBC.png","37"
"image-keyboard-response","306","598288","0.0-4.0-1.95","15","Low_HMMActual","null","","","","Images/BlackBeadChoice.png","null"
"image-keyboard-response","307","598991","0.0-4.0-2.95","15","Low_HMMActual","null","","","","Images/BlackBeadChoiceCorrect.png","null"
"image-keyboard-response","308","599487","0.0-4.0-0.96","15","Low_HMMActual","493.3100000489503","","","","Images/NewTrialBC.png","37"
"image-keyboard-response","309","599894","0.0-4.0-1.96","15","Low_HMMActual","null","","","","Images/BlackBeadChoice.png","null"
"image-keyboard-response","310","600598","0.0-4.0-2.96","15","Low_HMMActual","null","","","","Images/BlackBeadChoiceCorrect.png","null"
"image-keyboard-response","311","600920","0.0-4.0-0.97","15","Low_HMMActual","320.0950000900775","","","","Images/NewTrialBC.png","37"
"image-keyboard-response","312","601323","0.0-4.0-1.97","15","Low_HMMActual","null","","","","Images/BlackBeadChoice.png","null"
"image-keyboard-response","313","602026","0.0-4.0-2.97","15","Low_HMMActual","null","","","","Images/BlackBeadChoiceCorrect.png","null"
"image-keyboard-response","314","602452","0.0-4.0-0.98","15","Low_HMMActual","422.25500009953976","","","","Images/NewTrialBC.png","37"
"image-keyboard-response","315","602855","0.0-4.0-1.98","15","Low_HMMActual","null","","","","Images/BlackBeadChoice.png","null"
"image-keyboard-response","316","603559","0.0-4.0-2.98","15","Low_HMMActual","null","","","","Images/BlackBeadChoiceWrong.png","null"
"image-keyboard-response","317","603913","0.0-4.0-0.99","15","Low_HMMActual","349.6399999130517","","","","Images/NewTrialWC.png","39"
"image-keyboard-response","318","604314","0.0-4.0-1.99","15","Low_HMMActual","null","","","","Images/WhiteBeadChoice.png","null"
"image-keyboard-response","319","605018","0.0-4.0-2.99","15","Low_HMMActual","null","","","","Images/WhiteBeadChoiceWrong.png","null"
"image-keyboard-response","320","605424","0.0-4.0-0.100","15","Low_HMMActual","403.56500004418194","","","","Images/NewTrialBC.png","37"
"image-keyboard-response","321","605827","0.0-4.0-1.100","15","Low_HMMActual","null","","","","Images/BlackBeadChoice.png","null"
"image-keyboard-response","322","606531","0.0-4.0-2.100","15","Low_HMMActual","null","","","","Images/BlackBeadChoiceCorrect.png","null"
"image-keyboard-response","323","606916","0.0-4.0-0.101","15","Low_HMMActual","382.5000000651926","","","","Images/NewTrialBC.png","37"
"image-keyboard-response","324","607320","0.0-4.0-1.101","15","Low_HMMActual","null","","","","Images/BlackBeadChoice.png","null"
"image-keyboard-response","325","608023","0.0-4.0-2.101","15","Low_HMMActual","null","","","","Images/BlackBeadChoiceCorrect.png","null"
"image-keyboard-response","326","608098","0.0-4.0-0.102","15","Low_HMMActual","72.29999988339841","","","","Images/NewTrialBC.png","37"
"image-keyboard-response","327","608502","0.0-4.0-1.102","15","Low_HMMActual","null","","","","Images/BlackBeadChoice.png","null"
"image-keyboard-response","328","609204","0.0-4.0-2.102","15","Low_HMMActual","null","","","","Images/BlackBeadChoiceCorrect.png","null"
"image-keyboard-response","329","609485","0.0-4.0-0.103","15","Low_HMMActual","278.06499996222556","","","","Images/NewTrialBC.png","37"
"image-keyboard-response","330","609888","0.0-4.0-1.103","15","Low_HMMActual","null","","","","Images/BlackBeadChoice.png","null"
"image-keyboard-response","331","610592","0.0-4.0-2.103","15","Low_HMMActual","null","","","","Images/BlackBeadChoiceCorrect.png","null"
"image-keyboard-response","332","610863","0.0-4.0-0.104","15","Low_HMMActual","268.5799999162555","","","","Images/NewTrialBC.png","37"
"image-keyboard-response","333","611266","0.0-4.0-1.104","15","Low_HMMActual","null","","","","Images/BlackBeadChoice.png","null"
"image-keyboard-response","334","611971","0.0-4.0-2.104","15","Low_HMMActual","null","","","","Images/BlackBeadChoiceCorrect.png","null"
"image-keyboard-response","335","612294","0.0-4.0-0.105","15","Low_HMMActual","319.75500006228685","","","","Images/NewTrialBC.png","37"
"image-keyboard-response","336","612696","0.0-4.0-1.105","15","Low_HMMActual","null","","","","Images/BlackBeadChoice.png","null"
"image-keyboard-response","337","613399","0.0-4.0-2.105","15","Low_HMMActual","null","","","","Images/BlackBeadChoiceCorrect.png","null"
"image-keyboard-response","338","613733","0.0-4.0-0.106","15","Low_HMMActual","333.1349999643862","","","","Images/NewTrialBC.png","37"
"image-keyboard-response","339","614136","0.0-4.0-1.106","15","Low_HMMActual","null","","","","Images/BlackBeadChoice.png","null"
"image-keyboard-response","340","614840","0.0-4.0-2.106","15","Low_HMMActual","null","","","","Images/BlackBeadChoiceCorrect.png","null"
"image-keyboard-response","341","615119","0.0-4.0-0.107","15","Low_HMMActual","275.70000011473894","","","","Images/NewTrialBC.png","37"
"image-keyboard-response","342","615546","0.0-4.0-1.107","15","Low_HMMActual","null","","","","Images/BlackBeadChoice.png","null"
"image-keyboard-response","343","616262","0.0-4.0-2.107","15","Low_HMMActual","null","","","","Images/BlackBeadChoiceCorrect.png","null"
"image-keyboard-response","344","616531","0.0-4.0-0.108","15","Low_HMMActual","266.679999884218","","","","Images/NewTrialBC.png","37"
"image-keyboard-response","345","616934","0.0-4.0-1.108","15","Low_HMMActual","null","","","","Images/BlackBeadChoice.png","null"
"image-keyboard-response","346","617639","0.0-4.0-2.108","15","Low_HMMActual","null","","","","Images/BlackBeadChoiceCorrect.png","null"
"image-keyboard-response","347","617905","0.0-4.0-0.109","15","Low_HMMActual","264.05499991960824","","","","Images/NewTrialBC.png","37"
"image-keyboard-response","348","618309","0.0-4.0-1.109","15","Low_HMMActual","null","","","","Images/BlackBeadChoice.png","null"
"image-keyboard-response","349","619012","0.0-4.0-2.109","15","Low_HMMActual","null","","","","Images/BlackBeadChoiceWrong.png","null"
"image-keyboard-response","350","619739","0.0-4.0-0.110","15","Low_HMMActual","724.6449999511242","","","","Images/NewTrialWC.png","37"
"image-keyboard-response","351","620146","0.0-4.0-1.110","15","Low_HMMActual","null","","","","Images/BlackBeadChoice.png","null"
"image-keyboard-response","352","620849","0.0-4.0-2.110","15","Low_HMMActual","null","","","","Images/BlackBeadChoiceCorrect.png","null"
"image-keyboard-response","353","620912","0.0-4.0-0.111","15","Low_HMMActual","60.929999919608235","","","","Images/NewTrialBC.png","37"
"image-keyboard-response","354","621316","0.0-4.0-1.111","15","Low_HMMActual","null","","","","Images/BlackBeadChoice.png","null"
"image-keyboard-response","355","622019","0.0-4.0-2.111","15","Low_HMMActual","482.5999999884516","","","","Images/BlackBeadChoiceCorrect.png","37"
"image-keyboard-response","356","622495","0.0-4.0-0.112","15","Low_HMMActual","472.3350000567734","","","","Images/NewTrialBC.png","37"
"image-keyboard-response","357","622897","0.0-4.0-1.112","15","Low_HMMActual","null","","","","Images/BlackBeadChoice.png","null"
"image-keyboard-response","358","623601","0.0-4.0-2.112","15","Low_HMMActual","null","","","","Images/BlackBeadChoiceWrong.png","null"
"image-keyboard-response","359","624005","0.0-4.0-0.113","15","Low_HMMActual","402.00999984517694","","","","Images/NewTrialWC.png","37"
"image-keyboard-response","360","624408","0.0-4.0-1.113","15","Low_HMMActual","null","","","","Images/BlackBeadChoice.png","null"
"image-keyboard-response","361","625111","0.0-4.0-2.113","15","Low_HMMActual","null","","","","Images/BlackBeadChoiceCorrect.png","null"
"image-keyboard-response","362","625181","0.0-4.0-0.114","15","Low_HMMActual","67.39500002004206","","","","Images/NewTrialBC.png","37"
"image-keyboard-response","363","625584","0.0-4.0-1.114","15","Low_HMMActual","null","","","","Images/BlackBeadChoice.png","null"
"image-keyboard-response","364","626287","0.0-4.0-2.114","15","Low_HMMActual","null","","","","Images/BlackBeadChoiceWrong.png","null"
"image-keyboard-response","365","626843","0.0-4.0-0.115","15","Low_HMMActual","554.8449999187142","","","","Images/NewTrialWC.png","39"
"image-keyboard-response","366","627246","0.0-4.0-1.115","15","Low_HMMActual","null","","","","Images/WhiteBeadChoice.png","null"
"image-keyboard-response","367","627950","0.0-4.0-2.115","15","Low_HMMActual","null","","","","Images/WhiteBeadChoiceWrong.png","null"
"image-keyboard-response","368","628251","0.0-4.0-0.116","15","Low_HMMActual","298.5900000203401","","","","Images/NewTrialBC.png","37"
"image-keyboard-response","369","628654","0.0-4.0-1.116","15","Low_HMMActual","null","","","","Images/BlackBeadChoice.png","null"
"image-keyboard-response","370","629358","0.0-4.0-2.116","15","Low_HMMActual","null","","","","Images/BlackBeadChoiceCorrect.png","null"
"image-keyboard-response","371","629662","0.0-4.0-0.117","15","Low_HMMActual","301.20999994687736","","","","Images/NewTrialBC.png","37"
"image-keyboard-response","372","630063","0.0-4.0-1.117","15","Low_HMMActual","null","","","","Images/BlackBeadChoice.png","null"
"image-keyboard-response","373","630766","0.0-4.0-2.117","15","Low_HMMActual","null","","","","Images/BlackBeadChoiceCorrect.png","null"
"image-keyboard-response","374","631220","0.0-4.0-0.118","15","Low_HMMActual","450.46500000171363","","","","Images/NewTrialBC.png","37"
"image-keyboard-response","375","631622","0.0-4.0-1.118","15","Low_HMMActual","null","","","","Images/BlackBeadChoice.png","null"
"image-keyboard-response","376","632326","0.0-4.0-2.118","15","Low_HMMActual","null","","","","Images/BlackBeadChoiceWrong.png","null"
"image-keyboard-response","377","633237","0.0-4.0-0.119","15","Low_HMMActual","908.2799998577684","","","","Images/NewTrialWC.png","37"
"image-keyboard-response","378","633640","0.0-4.0-1.119","15","Low_HMMActual","null","","","","Images/BlackBeadChoice.png","null"
"image-keyboard-response","379","634342","0.0-4.0-2.119","15","Low_HMMActual","null","","","","Images/BlackBeadChoiceWrong.png","null"
"image-keyboard-response","380","634992","0.0-4.0-0.120","15","Low_HMMActual","648.2949999626726","","","","Images/NewTrialWC.png","37"
"image-keyboard-response","381","635395","0.0-4.0-1.120","15","Low_HMMActual","null","","","","Images/BlackBeadChoice.png","null"
"image-keyboard-response","382","636098","0.0-4.0-2.120","15","Low_HMMActual","null","","","","Images/BlackBeadChoiceCorrect.png","null"
"image-keyboard-response","383","636476","0.0-4.0-0.121","15","Low_HMMActual","374.3050000630319","","","","Images/NewTrialBC.png","37"
"image-keyboard-response","384","636878","0.0-4.0-1.121","15","Low_HMMActual","null","","","","Images/BlackBeadChoice.png","null"
"image-keyboard-response","385","637580","0.0-4.0-2.121","15","Low_HMMActual","null","","","","Images/BlackBeadChoiceCorrect.png","null"
"image-keyboard-response","386","637822","0.0-4.0-0.122","15","Low_HMMActual","240.6800000462681","","","","Images/NewTrialBC.png","37"
"image-keyboard-response","387","638224","0.0-4.0-1.122","15","Low_HMMActual","null","","","","Images/BlackBeadChoice.png","null"
"image-keyboard-response","388","638926","0.0-4.0-2.122","15","Low_HMMActual","null","","","","Images/BlackBeadChoiceCorrect.png","null"
"image-keyboard-response","389","639652","0.0-4.0-0.123","15","Low_HMMActual","722.5750000216067","","","","Images/NewTrialBC.png","37"
"image-keyboard-response","390","640053","0.0-4.0-1.123","15","Low_HMMActual","null","","","","Images/BlackBeadChoice.png","null"
"image-keyboard-response","391","640755","0.0-4.0-2.123","15","Low_HMMActual","null","","","","Images/BlackBeadChoiceCorrect.png","null"
"image-keyboard-response","392","641283","0.0-4.0-0.124","15","Low_HMMActual","526.4950001146644","","","","Images/NewTrialBC.png","39"
"image-keyboard-response","393","641686","0.0-4.0-1.124","15","Low_HMMActual","null","","","","Images/WhiteBeadChoice.png","null"
"image-keyboard-response","394","642393","0.0-4.0-2.124","15","Low_HMMActual","null","","","","Images/WhiteBeadChoiceWrong.png","null"
"image-keyboard-response","395","643306","0.0-4.0-0.125","15","Low_HMMActual","911.0499999951571","","","","Images/NewTrialBC.png","37"
"image-keyboard-response","396","643709","0.0-4.0-1.125","15","Low_HMMActual","null","","","","Images/BlackBeadChoice.png","null"
"image-keyboard-response","397","644412","0.0-4.0-2.125","15","Low_HMMActual","null","","","","Images/BlackBeadChoiceWrong.png","null"
"image-keyboard-response","398","648195","0.0-4.0-0.126","15","Low_HMMActual","3780.1200000103563","","","","Images/NewTrialWC.png","37"
"image-keyboard-response","399","648598","0.0-4.0-1.126","15","Low_HMMActual","null","","","","Images/BlackBeadChoice.png","null"
"image-keyboard-response","400","649300","0.0-4.0-2.126","15","Low_HMMActual","null","","","","Images/BlackBeadChoiceCorrect.png","null"
"image-keyboard-response","401","649622","0.0-4.0-0.127","15","Low_HMMActual","319.5599999744445","","","","Images/NewTrialBC.png","37"
"image-keyboard-response","402","650024","0.0-4.0-1.127","15","Low_HMMActual","null","","","","Images/BlackBeadChoice.png","null"
"image-keyboard-response","403","650726","0.0-4.0-2.127","15","Low_HMMActual","null","","","","Images/BlackBeadChoiceCorrect.png","null"
"image-keyboard-response","404","651266","0.0-4.0-0.128","15","Low_HMMActual","536.6950000170618","","","","Images/NewTrialBC.png","37"
"image-keyboard-response","405","651668","0.0-4.0-1.128","15","Low_HMMActual","null","","","","Images/BlackBeadChoice.png","null"
"image-keyboard-response","406","652371","0.0-4.0-2.128","15","Low_HMMActual","null","","","","Images/BlackBeadChoiceWrong.png","null"
"image-keyboard-response","407","655198","0.0-4.0-0.129","15","Low_HMMActual","2824.2450000252575","","","","Images/NewTrialWC.png","37"
"image-keyboard-response","408","655601","0.0-4.0-1.129","15","Low_HMMActual","null","","","","Images/BlackBeadChoice.png","null"
"image-keyboard-response","409","656303","0.0-4.0-2.129","15","Low_HMMActual","null","","","","Images/BlackBeadChoiceCorrect.png","null"
"image-keyboard-response","410","657231","0.0-4.0-0.130","15","Low_HMMActual","924.5200001168996","","","","Images/NewTrialBC.png","37"
"image-keyboard-response","411","657635","0.0-4.0-1.130","15","Low_HMMActual","null","","","","Images/BlackBeadChoice.png","null"
"image-keyboard-response","412","658336","0.0-4.0-2.130","15","Low_HMMActual","null","","","","Images/BlackBeadChoiceCorrect.png","null"
"image-keyboard-response","413","658659","0.0-4.0-0.131","15","Low_HMMActual","319.63000004179776","","","","Images/NewTrialBC.png","37"
"image-keyboard-response","414","659062","0.0-4.0-1.131","15","Low_HMMActual","null","","","","Images/BlackBeadChoice.png","null"
"image-keyboard-response","415","659765","0.0-4.0-2.131","15","Low_HMMActual","null","","","","Images/BlackBeadChoiceCorrect.png","null"
"image-keyboard-response","416","660320","0.0-4.0-0.132","15","Low_HMMActual","552.2499999497086","","","","Images/NewTrialBC.png","37"
"image-keyboard-response","417","660722","0.0-4.0-1.132","15","Low_HMMActual","null","","","","Images/BlackBeadChoice.png","null"
"image-keyboard-response","418","661426","0.0-4.0-2.132","15","Low_HMMActual","null","","","","Images/BlackBeadChoiceCorrect.png","null"
"image-keyboard-response","419","661761","0.0-4.0-0.133","15","Low_HMMActual","325.93500008806586","","","","Images/NewTrialBC.png","39"
"image-keyboard-response","420","662164","0.0-4.0-1.133","15","Low_HMMActual","null","","","","Images/WhiteBeadChoice.png","null"
"image-keyboard-response","421","662867","0.0-4.0-2.133","15","Low_HMMActual","null","","","","Images/WhiteBeadChoiceWrong.png","null"
"image-keyboard-response","422","664003","0.0-4.0-0.134","15","Low_HMMActual","1133.2900000270456","","","","Images/NewTrialBC.png","39"
"image-keyboard-response","423","664406","0.0-4.0-1.134","15","Low_HMMActual","null","","","","Images/WhiteBeadChoice.png","null"
"image-keyboard-response","424","665109","0.0-4.0-2.134","15","Low_HMMActual","null","","","","Images/WhiteBeadChoiceCorrect.png","null"
"image-keyboard-response","425","667177","0.0-4.0-0.135","15","Low_HMMActual","2064.5500000100583","","","","Images/NewTrialWC.png","37"
"image-keyboard-response","426","667579","0.0-4.0-1.135","15","Low_HMMActual","null","","","","Images/BlackBeadChoice.png","null"
"image-keyboard-response","427","668282","0.0-4.0-2.135","15","Low_HMMActual","null","","","","Images/BlackBeadChoiceWrong.png","null"
"image-keyboard-response","428","669106","0.0-4.0-0.136","15","Low_HMMActual","820.5500000622123","","","","Images/NewTrialWC.png","37"
"image-keyboard-response","429","669509","0.0-4.0-1.136","15","Low_HMMActual","null","","","","Images/BlackBeadChoice.png","null"
"image-keyboard-response","430","670214","0.0-4.0-2.136","15","Low_HMMActual","null","","","","Images/BlackBeadChoiceCorrect.png","null"
"image-keyboard-response","431","671472","0.0-4.0-0.137","15","Low_HMMActual","1255.570000037551","","","","Images/NewTrialBC.png","37"
"image-keyboard-response","432","671874","0.0-4.0-1.137","15","Low_HMMActual","null","","","","Images/BlackBeadChoice.png","null"
"image-keyboard-response","433","672578","0.0-4.0-2.137","15","Low_HMMActual","null","","","","Images/BlackBeadChoiceWrong.png","null"
"image-keyboard-response","434","673015","0.0-4.0-0.138","15","Low_HMMActual","430.6449999567121","","","","Images/NewTrialWC.png","37"
"image-keyboard-response","435","673418","0.0-4.0-1.138","15","Low_HMMActual","null","","","","Images/BlackBeadChoice.png","null"
"image-keyboard-response","436","674122","0.0-4.0-2.138","15","Low_HMMActual","null","","","","Images/BlackBeadChoiceCorrect.png","null"
"image-keyboard-response","437","674531","0.0-4.0-0.139","15","Low_HMMActual","405.99499992094934","","","","Images/NewTrialBC.png","37"
"image-keyboard-response","438","674933","0.0-4.0-1.139","15","Low_HMMActual","null","","","","Images/BlackBeadChoice.png","null"
"image-keyboard-response","439","675637","0.0-4.0-2.139","15","Low_HMMActual","null","","","","Images/BlackBeadChoiceCorrect.png","null"
"image-keyboard-response","440","675933","0.0-4.0-0.140","15","Low_HMMActual","288.8599999714643","","","","Images/NewTrialBC.png","37"
"image-keyboard-response","441","676335","0.0-4.0-1.140","15","Low_HMMActual","null","","","","Images/BlackBeadChoice.png","null"
"image-keyboard-response","442","677037","0.0-4.0-2.140","15","Low_HMMActual","null","","","","Images/BlackBeadChoiceWrong.png","null"
"image-keyboard-response","443","678010","0.0-4.0-0.141","15","Low_HMMActual","969.4749999325722","","","","Images/NewTrialWC.png","37"
"image-keyboard-response","444","678413","0.0-4.0-1.141","15","Low_HMMActual","null","","","","Images/BlackBeadChoice.png","null"
"image-keyboard-response","445","679116","0.0-4.0-2.141","15","Low_HMMActual","null","","","","Images/BlackBeadChoiceCorrect.png","null"
"image-keyboard-response","446","679860","0.0-4.0-0.142","15","Low_HMMActual","742.2999998088926","","","","Images/NewTrialBC.png","37"
"image-keyboard-response","447","680264","0.0-4.0-1.142","15","Low_HMMActual","null","","","","Images/BlackBeadChoice.png","null"
"image-keyboard-response","448","680967","0.0-4.0-2.142","15","Low_HMMActual","null","","","","Images/BlackBeadChoiceCorrect.png","null"
"image-keyboard-response","449","681939","0.0-4.0-0.143","15","Low_HMMActual","967.7349999547005","","","","Images/NewTrialBC.png","37"
"image-keyboard-response","450","682341","0.0-4.0-1.143","15","Low_HMMActual","null","","","","Images/BlackBeadChoice.png","null"
"image-keyboard-response","451","683043","0.0-4.0-2.143","15","Low_HMMActual","null","","","","Images/BlackBeadChoiceWrong.png","null"
"image-keyboard-response","452","684011","0.0-4.0-0.144","15","Low_HMMActual","965.6950000207871","","","","Images/NewTrialWC.png","37"
"image-keyboard-response","453","684415","0.0-4.0-1.144","15","Low_HMMActual","null","","","","Images/BlackBeadChoice.png","null"
"image-keyboard-response","454","685119","0.0-4.0-2.144","15","Low_HMMActual","null","","","","Images/BlackBeadChoiceCorrect.png","null"
"image-keyboard-response","455","685470","0.0-4.0-0.145","15","Low_HMMActual","348.0149998795241","","","","Images/NewTrialBC.png","37"
"image-keyboard-response","456","685872","0.0-4.0-1.145","15","Low_HMMActual","null","","","","Images/BlackBeadChoice.png","null"
"image-keyboard-response","457","686575","0.0-4.0-2.145","15","Low_HMMActual","null","","","","Images/BlackBeadChoiceCorrect.png","null"
"image-keyboard-response","458","686818","0.0-4.0-0.146","15","Low_HMMActual","238.37499995715916","","","","Images/NewTrialBC.png","39"
"image-keyboard-response","459","687221","0.0-4.0-1.146","15","Low_HMMActual","null","","","","Images/WhiteBeadChoice.png","null"
"image-keyboard-response","460","687924","0.0-4.0-2.146","15","Low_HMMActual","null","","","","Images/WhiteBeadChoiceWrong.png","null"
"image-keyboard-response","461","688666","0.0-4.0-0.147","15","Low_HMMActual","739.185000071302","","","","Images/NewTrialBC.png","39"
"image-keyboard-response","462","689069","0.0-4.0-1.147","15","Low_HMMActual","null","","","","Images/WhiteBeadChoice.png","null"
"image-keyboard-response","463","689772","0.0-4.0-2.147","15","Low_HMMActual","null","","","","Images/WhiteBeadChoiceWrong.png","null"
"image-keyboard-response","464","690248","0.0-4.0-0.148","15","Low_HMMActual","473.909999942407","","","","Images/NewTrialBC.png","39"
"image-keyboard-response","465","690652","0.0-4.0-1.148","15","Low_HMMActual","null","","","","Images/WhiteBeadChoice.png","null"
"image-keyboard-response","466","691356","0.0-4.0-2.148","15","Low_HMMActual","null","","","","Images/WhiteBeadChoiceWrong.png","null"
"image-keyboard-response","467","692496","0.0-4.0-0.149","15","Low_HMMActual","1136.4549999125302","","","","Images/NewTrialBC.png","39"
"image-keyboard-response","468","692898","0.0-4.0-1.149","15","Low_HMMActual","null","","","","Images/WhiteBeadChoice.png","null"
"image-keyboard-response","469","693602","0.0-4.0-2.149","15","Low_HMMActual","472.5299999117851","","","","Images/WhiteBeadChoiceWrong.png","37"
"image-keyboard-response","470","693979","0.0-4.0-0.150","15","Low_HMMActual","376.41999986954033","","","","Images/NewTrialBC.png","37"
"image-keyboard-response","471","694385","0.0-4.0-1.150","15","Low_HMMActual","null","","","","Images/BlackBeadChoice.png","null"
"image-keyboard-response","472","695088","0.0-4.0-2.150","15","Low_HMMActual","null","","","","Images/BlackBeadChoiceCorrect.png","null"
"image-keyboard-response","473","695722","0.0-4.0-0.151","15","Low_HMMActual","630.8800000697374","","","","Images/NewTrialBC.png","39"
"image-keyboard-response","474","696123","0.0-4.0-1.151","15","Low_HMMActual","null","","","","Images/WhiteBeadChoice.png","null"
"image-keyboard-response","475","696826","0.0-4.0-2.151","15","Low_HMMActual","null","","","","Images/WhiteBeadChoiceWrong.png","null"
"image-keyboard-response","476","697143","0.0-4.0-0.152","15","Low_HMMActual","313.4300000965595","","","","Images/NewTrialBC.png","37"
"image-keyboard-response","477","697546","0.0-4.0-1.152","15","Low_HMMActual","null","","","","Images/BlackBeadChoice.png","null"
"image-keyboard-response","478","698249","0.0-4.0-2.152","15","Low_HMMActual","null","","","","Images/BlackBeadChoiceCorrect.png","null"
"image-keyboard-response","479","698805","0.0-4.0-0.153","15","Low_HMMActual","552.3200000170618","","","","Images/NewTrialBC.png","37"
"image-keyboard-response","480","699206","0.0-4.0-1.153","15","Low_HMMActual","null","","","","Images/BlackBeadChoice.png","null"
"image-keyboard-response","481","699909","0.0-4.0-2.153","15","Low_HMMActual","null","","","","Images/BlackBeadChoiceCorrect.png","null"
"image-keyboard-response","482","700173","0.0-4.0-0.154","15","Low_HMMActual","262.1100000105798","","","","Images/NewTrialBC.png","39"
"image-keyboard-response","483","700575","0.0-4.0-1.154","15","Low_HMMActual","null","","","","Images/WhiteBeadChoice.png","null"
"image-keyboard-response","484","701278","0.0-4.0-2.154","15","Low_HMMActual","null","","","","Images/WhiteBeadChoiceWrong.png","null"
"image-keyboard-response","485","701584","0.0-4.0-0.155","15","Low_HMMActual","303.2800001092255","","","","Images/NewTrialBC.png","37"
"image-keyboard-response","486","702027","0.0-4.0-1.155","15","Low_HMMActual","null","","","","Images/BlackBeadChoice.png","null"
"image-keyboard-response","487","702730","0.0-4.0-2.155","15","Low_HMMActual","null","","","","Images/BlackBeadChoiceWrong.png","null"
"image-keyboard-response","488","703880","0.0-4.0-0.156","15","Low_HMMActual","1147.9650000110269","","","","Images/NewTrialWC.png","37"
"image-keyboard-response","489","704282","0.0-4.0-1.156","15","Low_HMMActual","null","","","","Images/BlackBeadChoice.png","null"
"image-keyboard-response","490","704984","0.0-4.0-2.156","15","Low_HMMActual","null","","","","Images/BlackBeadChoiceCorrect.png","null"
"image-keyboard-response","491","705594","0.0-4.0-0.157","15","Low_HMMActual","607.6950000133365","","","","Images/NewTrialBC.png","37"
"image-keyboard-response","492","705997","0.0-4.0-1.157","15","Low_HMMActual","null","","","","Images/BlackBeadChoice.png","null"
"image-keyboard-response","493","706700","0.0-4.0-2.157","15","Low_HMMActual","null","","","","Images/BlackBeadChoiceWrong.png","null"
"image-keyboard-response","494","709021","0.0-4.0-0.158","15","Low_HMMActual","2318.585000000894","","","","Images/NewTrialWC.png","37"
"image-keyboard-response","495","709424","0.0-4.0-1.158","15","Low_HMMActual","null","","","","Images/BlackBeadChoice.png","null"
"image-keyboard-response","496","710126","0.0-4.0-2.158","15","Low_HMMActual","null","","","","Images/BlackBeadChoiceWrong.png","null"
"image-keyboard-response","497","710502","0.0-4.0-0.159","15","Low_HMMActual","373.1749998405576","","","","Images/NewTrialWC.png","37"
"image-keyboard-response","498","710906","0.0-4.0-1.159","15","Low_HMMActual","null","","","","Images/BlackBeadChoice.png","null"
"image-keyboard-response","499","711609","0.0-4.0-2.159","15","Low_HMMActual","null","","","","Images/BlackBeadChoiceCorrect.png","null"
"image-keyboard-response","500","711969","0.0-4.0-0.160","15","Low_HMMActual","358.924999833107","","","","Images/NewTrialBC.png","37"
"image-keyboard-response","501","712371","0.0-4.0-1.160","15","Low_HMMActual","null","","","","Images/BlackBeadChoice.png","null"
"image-keyboard-response","502","713075","0.0-4.0-2.160","15","Low_HMMActual","354.0300000458956","","","","Images/BlackBeadChoiceCorrect.png","37"
"image-keyboard-response","503","713381","0.0-4.0-0.161","15","Low_HMMActual","303.5999999847263","","","","Images/NewTrialBC.png","37"
"image-keyboard-response","504","713783","0.0-4.0-1.161","15","Low_HMMActual","null","","","","Images/BlackBeadChoice.png","null"
"image-keyboard-response","505","714487","0.0-4.0-2.161","15","Low_HMMActual","341.04999992996454","","","","Images/BlackBeadChoiceCorrect.png","37"
"image-keyboard-response","506","714845","0.0-4.0-0.162","15","Low_HMMActual","352.97499992884696","","","","Images/NewTrialBC.png","37"
"image-keyboard-response","507","715248","0.0-4.0-1.162","15","Low_HMMActual","null","","","","Images/BlackBeadChoice.png","null"
"image-keyboard-response","508","715950","0.0-4.0-2.162","15","Low_HMMActual","560.3699998464435","","","","Images/BlackBeadChoiceWrong.png","39"
"image-keyboard-response","509","718081","0.0-4.0-0.163","15","Low_HMMActual","2126.6599998343736","","","","Images/NewTrialWC.png","39"
"image-keyboard-response","510","718490","0.0-4.0-1.163","15","Low_HMMActual","null","","","","Images/WhiteBeadChoice.png","null"
"image-keyboard-response","511","719195","0.0-4.0-2.163","15","Low_HMMActual","null","","","","Images/WhiteBeadChoiceWrong.png","null"
"image-keyboard-response","512","720025","0.0-4.0-0.164","15","Low_HMMActual","826.9700000528246","","","","Images/NewTrialBC.png","39"
"image-keyboard-response","513","720428","0.0-4.0-1.164","15","Low_HMMActual","null","","","","Images/WhiteBeadChoice.png","null"
"image-keyboard-response","514","721130","0.0-4.0-2.164","15","Low_HMMActual","null","","","","Images/WhiteBeadChoiceWrong.png","null"
"image-keyboard-response","515","721434","0.0-4.0-0.165","15","Low_HMMActual","300.5750000011176","","","","Images/NewTrialBC.png","37"
"image-keyboard-response","516","721837","0.0-4.0-1.165","15","Low_HMMActual","null","","","","Images/BlackBeadChoice.png","null"
"image-keyboard-response","517","722539","0.0-4.0-2.165","15","Low_HMMActual","null","","","","Images/BlackBeadChoiceCorrect.png","null"
"image-keyboard-response","518","723229","0.0-4.0-0.166","15","Low_HMMActual","686.6950001567602","","","","Images/NewTrialBC.png","39"
"image-keyboard-response","519","723631","0.0-4.0-1.166","15","Low_HMMActual","null","","","","Images/WhiteBeadChoice.png","null"
"image-keyboard-response","520","724335","0.0-4.0-2.166","15","Low_HMMActual","null","","","","Images/WhiteBeadChoiceWrong.png","null"
"image-keyboard-response","521","724821","0.0-4.0-0.167","15","Low_HMMActual","483.40000002644956","","","","Images/NewTrialBC.png","39"
"image-keyboard-response","522","725224","0.0-4.0-1.167","15","Low_HMMActual","null","","","","Images/WhiteBeadChoice.png","null"
"image-keyboard-response","523","725927","0.0-4.0-2.167","15","Low_HMMActual","null","","","","Images/WhiteBeadChoiceWrong.png","null"
"image-keyboard-response","524","726652","0.0-4.0-0.168","15","Low_HMMActual","720.9400001447648","","","","Images/NewTrialBC.png","39"
"image-keyboard-response","525","727054","0.0-4.0-1.168","15","Low_HMMActual","null","","","","Images/WhiteBeadChoice.png","null"
"image-keyboard-response","526","727757","0.0-4.0-2.168","15","Low_HMMActual","null","","","","Images/WhiteBeadChoiceWrong.png","null"
"image-keyboard-response","527","728240","0.0-4.0-0.169","15","Low_HMMActual","479.49500009417534","","","","Images/NewTrialBC.png","37"
"image-keyboard-response","528","728642","0.0-4.0-1.169","15","Low_HMMActual","null","","","","Images/BlackBeadChoice.png","null"
"image-keyboard-response","529","729345","0.0-4.0-2.169","15","Low_HMMActual","null","","","","Images/BlackBeadChoiceWrong.png","null"
"image-keyboard-response","530","730921","0.0-4.0-0.170","15","Low_HMMActual","1572.3250000737607","","","","Images/NewTrialWC.png","37"
"image-keyboard-response","531","731324","0.0-4.0-1.170","15","Low_HMMActual","null","","","","Images/BlackBeadChoice.png","null"
"image-keyboard-response","532","732027","0.0-4.0-2.170","15","Low_HMMActual","null","","","","Images/BlackBeadChoiceWrong.png","null"
"image-keyboard-response","533","732778","0.0-4.0-0.171","15","Low_HMMActual","748.3000000938773","","","","Images/NewTrialWC.png","37"
"image-keyboard-response","534","733181","0.0-4.0-1.171","15","Low_HMMActual","null","","","","Images/BlackBeadChoice.png","null"
"image-keyboard-response","535","733884","0.0-4.0-2.171","15","Low_HMMActual","null","","","","Images/BlackBeadChoiceCorrect.png","null"
"image-keyboard-response","536","734682","0.0-4.0-0.172","15","Low_HMMActual","796.3450001552701","","","","Images/NewTrialBC.png","37"
"image-keyboard-response","537","735086","0.0-4.0-1.172","15","Low_HMMActual","null","","","","Images/BlackBeadChoice.png","null"
"image-keyboard-response","538","735789","0.0-4.0-2.172","15","Low_HMMActual","null","","","","Images/BlackBeadChoiceCorrect.png","null"
"image-keyboard-response","539","736151","0.0-4.0-0.173","15","Low_HMMActual","357.8250000718981","","","","Images/NewTrialBC.png","39"
"image-keyboard-response","540","736555","0.0-4.0-1.173","15","Low_HMMActual","null","","","","Images/WhiteBeadChoice.png","null"
"image-keyboard-response","541","737258","0.0-4.0-2.173","15","Low_HMMActual","null","","","","Images/WhiteBeadChoiceWrong.png","null"
"image-keyboard-response","542","738392","0.0-4.0-0.174","15","Low_HMMActual","1131.05500000529","","","","Images/NewTrialBC.png","37"
"image-keyboard-response","543","738795","0.0-4.0-1.174","15","Low_HMMActual","null","","","","Images/BlackBeadChoice.png","null"
"image-keyboard-response","544","739499","0.0-4.0-2.174","15","Low_HMMActual","null","","","","Images/BlackBeadChoiceCorrect.png","null"
"image-keyboard-response","545","740912","0.0-4.0-0.175","15","Low_HMMActual","1409.779999870807","","","","Images/NewTrialBC.png","39"
"image-keyboard-response","546","741315","0.0-4.0-1.175","15","Low_HMMActual","null","","","","Images/WhiteBeadChoice.png","null"
"image-keyboard-response","547","742017","0.0-4.0-2.175","15","Low_HMMActual","null","","","","Images/WhiteBeadChoiceWrong.png","null"
"image-keyboard-response","548","742522","0.0-4.0-0.176","15","Low_HMMActual","502.30500008910894","","","","Images/NewTrialBC.png","39"
"image-keyboard-response","549","742925","0.0-4.0-1.176","15","Low_HMMActual","null","","","","Images/WhiteBeadChoice.png","null"
"image-keyboard-response","550","743628","0.0-4.0-2.176","15","Low_HMMActual","null","","","","Images/WhiteBeadChoiceWrong.png","null"
"image-keyboard-response","551","743862","0.0-4.0-0.177","15","Low_HMMActual","231.12999997101724","","","","Images/NewTrialBC.png","37"
"image-keyboard-response","552","744264","0.0-4.0-1.177","15","Low_HMMActual","null","","","","Images/BlackBeadChoice.png","null"
"image-keyboard-response","553","744967","0.0-4.0-2.177","15","Low_HMMActual","null","","","","Images/BlackBeadChoiceCorrect.png","null"
"image-keyboard-response","554","745644","0.0-4.0-0.178","15","Low_HMMActual","673.9900000393391","","","","Images/NewTrialBC.png","39"
"image-keyboard-response","555","746047","0.0-4.0-1.178","15","Low_HMMActual","null","","","","Images/WhiteBeadChoice.png","null"
"image-keyboard-response","556","746750","0.0-4.0-2.178","15","Low_HMMActual","null","","","","Images/WhiteBeadChoiceCorrect.png","null"
"image-keyboard-response","557","748386","0.0-4.0-0.179","15","Low_HMMActual","1633.7549998424947","","","","Images/NewTrialWC.png","37"
"image-keyboard-response","558","748789","0.0-4.0-1.179","15","Low_HMMActual","null","","","","Images/BlackBeadChoice.png","null"
"image-keyboard-response","559","749493","0.0-4.0-2.179","15","Low_HMMActual","null","","","","Images/BlackBeadChoiceCorrect.png","null"
"image-keyboard-response","560","750707","0.0-4.0-0.180","15","Low_HMMActual","1211.2700000870973","","","","Images/NewTrialBC.png","37"
"image-keyboard-response","561","751110","0.0-4.0-1.180","15","Low_HMMActual","null","","","","Images/BlackBeadChoice.png","null"
"image-keyboard-response","562","751813","0.0-4.0-2.180","15","Low_HMMActual","null","","","","Images/BlackBeadChoiceCorrect.png","null"
"image-keyboard-response","563","752093","0.0-4.0-0.181","15","Low_HMMActual","278.5350000485778","","","","Images/NewTrialBC.png","37"
"image-keyboard-response","564","752497","0.0-4.0-1.181","15","Low_HMMActual","null","","","","Images/BlackBeadChoice.png","null"
"image-keyboard-response","565","753201","0.0-4.0-2.181","15","Low_HMMActual","null","","","","Images/BlackBeadChoiceCorrect.png","null"
"image-keyboard-response","566","753305","0.0-4.0-0.182","15","Low_HMMActual","100.51000001840293","","","","Images/NewTrialBC.png","37"
"image-keyboard-response","567","753707","0.0-4.0-1.182","15","Low_HMMActual","null","","","","Images/BlackBeadChoice.png","null"
"image-keyboard-response","568","754412","0.0-4.0-2.182","15","Low_HMMActual","null","","","","Images/BlackBeadChoiceCorrect.png","null"
"image-keyboard-response","569","755032","0.0-4.0-0.183","15","Low_HMMActual","618.1300000753254","","","","Images/NewTrialBC.png","37"
"image-keyboard-response","570","755434","0.0-4.0-1.183","15","Low_HMMActual","null","","","","Images/BlackBeadChoice.png","null"
"image-keyboard-response","571","756136","0.0-4.0-2.183","15","Low_HMMActual","null","","","","Images/BlackBeadChoiceCorrect.png","null"
"image-keyboard-response","572","756532","0.0-4.0-0.184","15","Low_HMMActual","392.5699999090284","","","","Images/NewTrialBC.png","37"
"image-keyboard-response","573","756936","0.0-4.0-1.184","15","Low_HMMActual","null","","","","Images/BlackBeadChoice.png","null"
"image-keyboard-response","574","757639","0.0-4.0-2.184","15","Low_HMMActual","null","","","","Images/BlackBeadChoiceWrong.png","null"
"image-keyboard-response","575","758551","0.0-4.0-0.185","15","Low_HMMActual","910.0000001490116","","","","Images/NewTrialWC.png","39"
"image-keyboard-response","576","758954","0.0-4.0-1.185","15","Low_HMMActual","null","","","","Images/WhiteBeadChoice.png","null"
"image-keyboard-response","577","759657","0.0-4.0-2.185","15","Low_HMMActual","null","","","","Images/WhiteBeadChoiceWrong.png","null"
"image-keyboard-response","578","760011","0.0-4.0-0.186","15","Low_HMMActual","350.58500012382865","","","","Images/NewTrialBC.png","39"
"image-keyboard-response","579","760415","0.0-4.0-1.186","15","Low_HMMActual","null","","","","Images/WhiteBeadChoice.png","null"
"image-keyboard-response","580","761117","0.0-4.0-2.186","15","Low_HMMActual","null","","","","Images/WhiteBeadChoiceWrong.png","null"
"image-keyboard-response","581","761474","0.0-4.0-0.187","15","Low_HMMActual","353.5450000781566","","","","Images/NewTrialBC.png","39"
"image-keyboard-response","582","761880","0.0-4.0-1.187","15","Low_HMMActual","null","","","","Images/WhiteBeadChoice.png","null"
"image-keyboard-response","583","762583","0.0-4.0-2.187","15","Low_HMMActual","null","","","","Images/WhiteBeadChoiceCorrect.png","null"
"image-keyboard-response","584","763733","0.0-4.0-0.188","15","Low_HMMActual","1148.1299998704344","","","","Images/NewTrialWC.png","37"
"image-keyboard-response","585","764135","0.0-4.0-1.188","15","Low_HMMActual","null","","","","Images/BlackBeadChoice.png","null"
"image-keyboard-response","586","764837","0.0-4.0-2.188","15","Low_HMMActual","null","","","","Images/BlackBeadChoiceWrong.png","null"
"image-keyboard-response","587","765650","0.0-4.0-0.189","15","Low_HMMActual","809.9150001071393","","","","Images/NewTrialWC.png","37"
"image-keyboard-response","588","766052","0.0-4.0-1.189","15","Low_HMMActual","null","","","","Images/BlackBeadChoice.png","null"
"image-keyboard-response","589","766756","0.0-4.0-2.189","15","Low_HMMActual","null","","","","Images/BlackBeadChoiceCorrect.png","null"
"image-keyboard-response","590","767127","0.0-4.0-0.190","15","Low_HMMActual","368.53999993763864","","","","Images/NewTrialBC.png","37"
"image-keyboard-response","591","767529","0.0-4.0-1.190","15","Low_HMMActual","null","","","","Images/BlackBeadChoice.png","null"
"image-keyboard-response","592","768232","0.0-4.0-2.190","15","Low_HMMActual","null","","","","Images/BlackBeadChoiceWrong.png","null"
"image-keyboard-response","593","768595","0.0-4.0-0.191","15","Low_HMMActual","361.44999996759","","","","Images/NewTrialWC.png","37"
"image-keyboard-response","594","768998","0.0-4.0-1.191","15","Low_HMMActual","null","","","","Images/BlackBeadChoice.png","null"
"image-keyboard-response","595","769701","0.0-4.0-2.191","15","Low_HMMActual","null","","","","Images/BlackBeadChoiceWrong.png","null"
"image-keyboard-response","596","771211","0.0-4.0-0.192","15","Low_HMMActual","1507.7549999114126","","","","Images/NewTrialWC.png","37"
"image-keyboard-response","597","771613","0.0-4.0-1.192","15","Low_HMMActual","null","","","","Images/BlackBeadChoice.png","null"
"image-keyboard-response","598","772315","0.0-4.0-2.192","15","Low_HMMActual","null","","","","Images/BlackBeadChoiceCorrect.png","null"
"image-keyboard-response","599","772796","0.0-4.0-0.193","15","Low_HMMActual","477.93000005185604","","","","Images/NewTrialBC.png","37"
"image-keyboard-response","600","773200","0.0-4.0-1.193","15","Low_HMMActual","null","","","","Images/BlackBeadChoice.png","null"
"image-keyboard-response","601","773902","0.0-4.0-2.193","15","Low_HMMActual","null","","","","Images/BlackBeadChoiceCorrect.png","null"
"image-keyboard-response","602","774298","0.0-4.0-0.194","15","Low_HMMActual","394.4850000552833","","","","Images/NewTrialBC.png","37"
"image-keyboard-response","603","774701","0.0-4.0-1.194","15","Low_HMMActual","null","","","","Images/BlackBeadChoice.png","null"
"image-keyboard-response","604","775405","0.0-4.0-2.194","15","Low_HMMActual","null","","","","Images/BlackBeadChoiceCorrect.png","null"
"image-keyboard-response","605","775564","0.0-4.0-0.195","15","Low_HMMActual","157.11500006727874","","","","Images/NewTrialBC.png","37"
"image-keyboard-response","606","775967","0.0-4.0-1.195","15","Low_HMMActual","null","","","","Images/BlackBeadChoice.png","null"
"image-keyboard-response","607","776671","0.0-4.0-2.195","15","Low_HMMActual","null","","","","Images/BlackBeadChoiceCorrect.png","null"
"image-keyboard-response","608","777013","0.0-4.0-0.196","15","Low_HMMActual","338.22000003419816","","","","Images/NewTrialBC.png","39"
"image-keyboard-response","609","777416","0.0-4.0-1.196","15","Low_HMMActual","null","","","","Images/WhiteBeadChoice.png","null"
"image-keyboard-response","610","778119","0.0-4.0-2.196","15","Low_HMMActual","null","","","","Images/WhiteBeadChoiceWrong.png","null"
"image-keyboard-response","611","778460","0.0-4.0-0.197","15","Low_HMMActual","337.42500003427267","","","","Images/NewTrialBC.png","37"
"image-keyboard-response","612","778863","0.0-4.0-1.197","15","Low_HMMActual","null","","","","Images/BlackBeadChoice.png","null"
"image-keyboard-response","613","779567","0.0-4.0-2.197","15","Low_HMMActual","null","","","","Images/BlackBeadChoiceWrong.png","null"
"image-keyboard-response","614","780546","0.0-4.0-0.198","15","Low_HMMActual","975.3449999261647","","","","Images/NewTrialWC.png","39"
"image-keyboard-response","615","780951","0.0-4.0-1.198","15","Low_HMMActual","null","","","","Images/WhiteBeadChoice.png","null"
"image-keyboard-response","616","781653","0.0-4.0-2.198","15","Low_HMMActual","null","","","","Images/WhiteBeadChoiceWrong.png","null"
"image-keyboard-response","617","781714","0.0-4.0-0.199","15","Low_HMMActual","59.375000186264515","","","","Images/NewTrialBC.png","39"
"image-keyboard-response","618","782117","0.0-4.0-1.199","15","Low_HMMActual","219.89000006578863","","","","Images/WhiteBeadChoice.png","39"
"image-keyboard-response","619","782819","0.0-4.0-2.199","15","Low_HMMActual","null","","","","Images/WhiteBeadChoiceWrong.png","null"
"image-keyboard-response","620","783197","0.0-4.0-0.200","15","Low_HMMActual","375.3599999472499","","","","Images/NewTrialBC.png","39"
"image-keyboard-response","621","783600","0.0-4.0-1.200","15","Low_HMMActual","null","","","","Images/WhiteBeadChoice.png","null"
"image-keyboard-response","622","784302","0.0-4.0-2.200","15","Low_HMMActual","528.5700000822544","","","","Images/WhiteBeadChoiceWrong.png","37"
"image-keyboard-response","623","784793","0.0-4.0-0.201","15","Low_HMMActual","488.93500003032386","","","","Images/NewTrialBC.png","37"
"image-keyboard-response","624","785197","0.0-4.0-1.201","15","Low_HMMActual","null","","","","Images/BlackBeadChoice.png","null"
"image-keyboard-response","625","785900","0.0-4.0-2.201","15","Low_HMMActual","null","","","","Images/BlackBeadChoiceCorrect.png","null"
"image-keyboard-response","626","786556","0.0-4.0-0.202","15","Low_HMMActual","653.5749998874962","","","","Images/NewTrialBC.png","37"
"image-keyboard-response","627","786960","0.0-4.0-1.202","15","Low_HMMActual","null","","","","Images/BlackBeadChoice.png","null"
"image-keyboard-response","628","787663","0.0-4.0-2.202","15","Low_HMMActual","null","","","","Images/BlackBeadChoiceWrong.png","null"
"image-keyboard-response","629","788067","0.0-4.0-0.203","15","Low_HMMActual","401.02999983355403","","","","Images/NewTrialWC.png","37"
"image-keyboard-response","630","788470","0.0-4.0-1.203","15","Low_HMMActual","null","","","","Images/BlackBeadChoice.png","null"
"image-keyboard-response","631","789174","0.0-4.0-2.203","15","Low_HMMActual","null","","","","Images/BlackBeadChoiceCorrect.png","null"
"image-keyboard-response","632","789614","0.0-4.0-0.204","15","Low_HMMActual","437.9950000438839","","","","Images/NewTrialBC.png","37"
"image-keyboard-response","633","790016","0.0-4.0-1.204","15","Low_HMMActual","null","","","","Images/BlackBeadChoice.png","null"
"image-keyboard-response","634","790723","0.0-4.0-2.204","15","Low_HMMActual","380.36499987356365","","","","Images/BlackBeadChoiceCorrect.png","37"
"image-keyboard-response","635","790747","0.0-4.0-0.205","15","Low_HMMActual","20.29499993659556","","","","Images/NewTrialBC.png","37"
"image-keyboard-response","636","791149","0.0-4.0-1.205","15","Low_HMMActual","null","","","","Images/BlackBeadChoice.png","null"
"image-keyboard-response","637","791854","0.0-4.0-2.205","15","Low_HMMActual","451.0050001554191","","","","Images/BlackBeadChoiceCorrect.png","37"
"image-keyboard-response","638","792222","0.0-4.0-0.206","15","Low_HMMActual","365.3299999423325","","","","Images/NewTrialBC.png","37"
"image-keyboard-response","639","792625","0.0-4.0-1.206","15","Low_HMMActual","null","","","","Images/BlackBeadChoice.png","null"
"image-keyboard-response","640","793328","0.0-4.0-2.206","15","Low_HMMActual","286.979999858886","","","","Images/BlackBeadChoiceCorrect.png","37"
"image-keyboard-response","641","793334","0.0-4.0-0.207","15","Low_HMMActual","1.1350000277161598","","","","Images/NewTrialBC.png","37"
"image-keyboard-response","642","793736","0.0-4.0-1.207","15","Low_HMMActual","null","","","","Images/BlackBeadChoice.png","null"
"image-keyboard-response","643","794441","0.0-4.0-2.207","15","Low_HMMActual","328.7100000306964","","","","Images/BlackBeadChoiceCorrect.png","37"
"image-keyboard-response","644","794539","0.0-4.0-0.208","15","Low_HMMActual","95.72999994270504","","","","Images/NewTrialBC.png","37"
"image-keyboard-response","645","794942","0.0-4.0-1.208","15","Low_HMMActual","null","","","","Images/BlackBeadChoice.png","null"
"image-keyboard-response","646","795645","0.0-4.0-2.208","15","Low_HMMActual","425.73000001721084","","","","Images/BlackBeadChoiceCorrect.png","37"
"image-keyboard-response","647","795984","0.0-4.0-0.209","15","Low_HMMActual","335.53999988362193","","","","Images/NewTrialBC.png","37"
"image-keyboard-response","648","796385","0.0-4.0-1.209","15","Low_HMMActual","null","","","","Images/BlackBeadChoice.png","null"
"image-keyboard-response","649","797088","0.0-4.0-2.209","15","Low_HMMActual","null","","","","Images/BlackBeadChoiceCorrect.png","null"
"image-keyboard-response","650","797279","0.0-4.0-0.210","15","Low_HMMActual","188.73500009067357","","","","Images/NewTrialBC.png","37"
"image-keyboard-response","651","797682","0.0-4.0-1.210","15","Low_HMMActual","null","","","","Images/BlackBeadChoice.png","null"
"image-keyboard-response","652","798385","0.0-4.0-2.210","15","Low_HMMActual","null","","","","Images/BlackBeadChoiceCorrect.png","null"
"image-keyboard-response","653","798417","0.0-4.0-0.211","15","Low_HMMActual","30.10500012896955","","","","Images/NewTrialBC.png","39"
"image-keyboard-response","654","798821","0.0-4.0-1.211","15","Low_HMMActual","null","","","","Images/WhiteBeadChoice.png","null"
"image-keyboard-response","655","799524","0.0-4.0-2.211","15","Low_HMMActual","670.8450000733137","","","","Images/WhiteBeadChoiceWrong.png","37"
"image-keyboard-response","656","799890","0.0-4.0-0.212","15","Low_HMMActual","363.7200000230223","","","","Images/NewTrialBC.png","37"
"image-keyboard-response","657","800294","0.0-4.0-1.212","15","Low_HMMActual","null","","","","Images/BlackBeadChoice.png","null"
"image-keyboard-response","658","800997","0.0-4.0-2.212","15","Low_HMMActual","null","","","","Images/BlackBeadChoiceWrong.png","null"
"image-keyboard-response","659","801249","0.0-4.0-0.213","15","Low_HMMActual","248.3500000089407","","","","Images/NewTrialWC.png","39"
"image-keyboard-response","660","801652","0.0-4.0-1.213","15","Low_HMMActual","null","","","","Images/WhiteBeadChoice.png","null"
"image-keyboard-response","661","802356","0.0-4.0-2.213","15","Low_HMMActual","664.0100001823157","","","","Images/WhiteBeadChoiceWrong.png","37"
"image-keyboard-response","662","802730","0.0-4.0-0.214","15","Low_HMMActual","370.7550000399351","","","","Images/NewTrialBC.png","37"
"image-keyboard-response","663","803133","0.0-4.0-1.214","15","Low_HMMActual","null","","","","Images/BlackBeadChoice.png","null"
"image-keyboard-response","664","803836","0.0-4.0-2.214","15","Low_HMMActual","null","","","","Images/BlackBeadChoiceCorrect.png","null"
"image-keyboard-response","665","804296","0.0-4.0-0.215","15","Low_HMMActual","456.89500006847084","","","","Images/NewTrialBC.png","39"
"image-keyboard-response","666","804700","0.0-4.0-1.215","15","Low_HMMActual","null","","","","Images/WhiteBeadChoice.png","null"
"image-keyboard-response","667","805404","0.0-4.0-2.215","15","Low_HMMActual","435.40000007487833","","","","Images/WhiteBeadChoiceWrong.png","37"
"image-keyboard-response","668","805637","0.0-4.0-0.216","15","Low_HMMActual","229.73000002093613","","","","Images/NewTrialBC.png","37"
"image-keyboard-response","669","806039","0.0-4.0-1.216","15","Low_HMMActual","null","","","","Images/BlackBeadChoice.png","null"
"image-keyboard-response","670","806744","0.0-4.0-2.216","15","Low_HMMActual","null","","","","Images/BlackBeadChoiceCorrect.png","null"
"image-keyboard-response","671","807021","0.0-4.0-0.217","15","Low_HMMActual","275.1250001601875","","","","Images/NewTrialBC.png","37"
"image-keyboard-response","672","807425","0.0-4.0-1.217","15","Low_HMMActual","null","","","","Images/BlackBeadChoice.png","null"
"image-keyboard-response","673","808129","0.0-4.0-2.217","15","Low_HMMActual","null","","","","Images/BlackBeadChoiceCorrect.png","null"
"image-keyboard-response","674","808562","0.0-4.0-0.218","15","Low_HMMActual","430.55000016465783","","","","Images/NewTrialBC.png","37"
"image-keyboard-response","675","808966","0.0-4.0-1.218","15","Low_HMMActual","null","","","","Images/BlackBeadChoice.png","null"
"image-keyboard-response","676","809669","0.0-4.0-2.218","15","Low_HMMActual","null","","","","Images/BlackBeadChoiceCorrect.png","null"
"image-keyboard-response","677","810048","0.0-4.0-0.219","15","Low_HMMActual","374.430000083521","","","","Images/NewTrialBC.png","37"
"image-keyboard-response","678","810451","0.0-4.0-1.219","15","Low_HMMActual","null","","","","Images/BlackBeadChoice.png","null"
"image-keyboard-response","679","811155","0.0-4.0-2.219","15","Low_HMMActual","null","","","","Images/BlackBeadChoiceCorrect.png","null"
"image-keyboard-response","680","811432","0.0-4.0-0.220","15","Low_HMMActual","274.6000001206994","","","","Images/NewTrialBC.png","39"
"image-keyboard-response","681","811835","0.0-4.0-1.220","15","Low_HMMActual","null","","","","Images/WhiteBeadChoice.png","null"
"image-keyboard-response","682","812536","0.0-4.0-2.220","15","Low_HMMActual","600.1200000755489","","","","Images/WhiteBeadChoiceWrong.png","37"
"image-keyboard-response","683","812868","0.0-4.0-0.221","15","Low_HMMActual","329.41000000573695","","","","Images/NewTrialBC.png","37"
"image-keyboard-response","684","813271","0.0-4.0-1.221","15","Low_HMMActual","null","","","","Images/BlackBeadChoice.png","null"
"image-keyboard-response","685","813975","0.0-4.0-2.221","15","Low_HMMActual","null","","","","Images/BlackBeadChoiceCorrect.png","null"
"image-keyboard-response","686","814853","0.0-4.0-0.222","15","Low_HMMActual","875.2000001259148","","","","Images/NewTrialBC.png","37"
"image-keyboard-response","687","815256","0.0-4.0-1.222","15","Low_HMMActual","null","","","","Images/BlackBeadChoice.png","null"
"image-keyboard-response","688","815959","0.0-4.0-2.222","15","Low_HMMActual","680.1349997986108","","","","Images/BlackBeadChoiceCorrect.png","37"
"image-keyboard-response","689","816540","0.0-4.0-0.223","15","Low_HMMActual","577.860000077635","","","","Images/NewTrialBC.png","37"
"image-keyboard-response","690","816942","0.0-4.0-1.223","15","Low_HMMActual","null","","","","Images/BlackBeadChoice.png","null"
"image-keyboard-response","691","817645","0.0-4.0-2.223","15","Low_HMMActual","null","","","","Images/BlackBeadChoiceCorrect.png","null"
"image-keyboard-response","692","817952","0.0-4.0-0.224","15","Low_HMMActual","305.2099999040365","","","","Images/NewTrialBC.png","37"
"image-keyboard-response","693","818353","0.0-4.0-1.224","15","Low_HMMActual","null","","","","Images/BlackBeadChoice.png","null"
"image-keyboard-response","694","819056","0.0-4.0-2.224","15","Low_HMMActual","null","","","","Images/BlackBeadChoiceCorrect.png","null"
"image-keyboard-response","695","819295","0.0-4.0-0.225","15","Low_HMMActual","236.53999995440245","","","","Images/NewTrialBC.png","39"
"image-keyboard-response","696","819696","0.0-4.0-1.225","15","Low_HMMActual","null","","","","Images/WhiteBeadChoice.png","null"
"image-keyboard-response","697","820400","0.0-4.0-2.225","15","Low_HMMActual","null","","","","Images/WhiteBeadChoiceWrong.png","null"
"image-keyboard-response","698","820956","0.0-4.0-0.226","15","Low_HMMActual","554.3300001882017","","","","Images/NewTrialBC.png","37"
"image-keyboard-response","699","821358","0.0-4.0-1.226","15","Low_HMMActual","null","","","","Images/BlackBeadChoice.png","null"
"image-keyboard-response","700","822062","0.0-4.0-2.226","15","Low_HMMActual","null","","","","Images/BlackBeadChoiceCorrect.png","null"
"image-keyboard-response","701","823631","0.0-4.0-0.227","15","Low_HMMActual","1565.7399999909103","","","","Images/NewTrialBC.png","37"
"image-keyboard-response","702","824034","0.0-4.0-1.227","15","Low_HMMActual","null","","","","Images/BlackBeadChoice.png","null"
"image-keyboard-response","703","824744","0.0-4.0-2.227","15","Low_HMMActual","null","","","","Images/BlackBeadChoiceCorrect.png","null"
"image-keyboard-response","704","825040","0.0-4.0-0.228","15","Low_HMMActual","293.610000051558","","","","Images/NewTrialBC.png","39"
"image-keyboard-response","705","825443","0.0-4.0-1.228","15","Low_HMMActual","null","","","","Images/WhiteBeadChoice.png","null"
"image-keyboard-response","706","826146","0.0-4.0-2.228","15","Low_HMMActual","500.88499998673797","","","","Images/WhiteBeadChoiceWrong.png","37"
"image-keyboard-response","707","826420","0.0-4.0-0.229","15","Low_HMMActual","271.100000012666","","","","Images/NewTrialBC.png","37"
"image-keyboard-response","708","826823","0.0-4.0-1.229","15","Low_HMMActual","null","","","","Images/BlackBeadChoice.png","null"
"image-keyboard-response","709","827528","0.0-4.0-2.229","15","Low_HMMActual","305.88999995961785","","","","Images/BlackBeadChoiceCorrect.png","37"
"image-keyboard-response","710","827659","0.0-4.0-0.230","15","Low_HMMActual","127.98000010661781","","","","Images/NewTrialBC.png","37"
"image-keyboard-response","711","828060","0.0-4.0-1.230","15","Low_HMMActual","null","","","","Images/BlackBeadChoice.png","null"
"image-keyboard-response","712","828762","0.0-4.0-2.230","15","Low_HMMActual","327.90999999269843","","","","Images/BlackBeadChoiceCorrect.png","37"
"image-keyboard-response","713","829125","0.0-4.0-0.231","15","Low_HMMActual","360.07000016979873","","","","Images/NewTrialBC.png","37"
"image-keyboard-response","714","829528","0.0-4.0-1.231","15","Low_HMMActual","null","","","","Images/BlackBeadChoice.png","null"
"image-keyboard-response","715","830233","0.0-4.0-2.231","15","Low_HMMActual","292.70999995060265","","","","Images/BlackBeadChoiceCorrect.png","37"
"image-keyboard-response","716","830554","0.0-4.0-0.232","15","Low_HMMActual","317.1050001401454","","","","Images/NewTrialBC.png","37"
"image-keyboard-response","717","830958","0.0-4.0-1.232","15","Low_HMMActual","null","","","","Images/BlackBeadChoice.png","null"
"image-keyboard-response","718","831661","0.0-4.0-2.232","15","Low_HMMActual","null","","","","Images/BlackBeadChoiceWrong.png","null"
"image-keyboard-response","719","832071","0.0-4.0-0.233","15","Low_HMMActual","407.57000003941357","","","","Images/NewTrialWC.png","37"
