"trial_type","trial_index","time_elapsed","internal_node_id","Script_Picker","Block_Type","rt","url","responses","question_order","stimulus","key_press"
"pavlovia","0","2","0.0-0.0","15","Low_HMMActual","","","","","",""
"external-html","1","6342","0.0-1.0-0.0","15","Low_HMMActual","6283.474999945611","consent.html","","","",""
"survey-multi-choice","2","12702","0.0-1.0-1.0","15","Low_HMMActual","6358.084999956191","","{""Q0"":""Male"",""Q1"":""White""}","[0,1]","",""
"survey-text","3","16126","0.0-1.0-2.0","15","Low_HMMActual","3418.9300001598895","","{""Q0"":""32""}","","",""
"survey-text","4","23950","0.0-1.0-3.0","15","Low_HMMActual","7720.8800001535565","","{""Q0"":""5eb58476f88d4008fa483809""}","","",""
"html-keyboard-response","5","90438","0.0-2.0-0.0","15","Low_HMMActual","66386.29499985836","","","","<div class=""container"" style=""height:800px;width:800px;display:flex;flex-direction:column;justify-content:center;align-items:center;text-align:center;font-weight:normal;font-family:Arial;font-size:20px""><p>In this task you will see black or white beads being pulled from jars. <br><br>On each trial, a bead will be pulled from one of two jars. Once you see this bead, your goal is to predict the color of NEXT bead that will be pulled. <br> <br>Every time you correctly guess the color of the NEXT bead, you will get a point. <br><br>Press the SPACEBAR to continue.</p><div>","32"
"html-keyboard-response","6","136325","0.0-2.0-1.0","15","Low_HMMActual","45886.92499999888","","","","<div class=""container"" style=""height:800px;width:800px;display:flex;flex-direction:column;justify-content:center;align-items:center;text-align:center;font-weight:normal;font-family:Arial;font-size:20px""><p>Jars are filled with 80% white or black beads and 20% of the opposite color mixed in.<br><br>Press the SPACEBAR to continue. </p><div>","32"
"image-keyboard-response","7","140109","0.0-2.0-2.0","15","Low_HMMActual","3783.0000000540167","","","","resources/WhiteJar_HMM.png","32"
"image-keyboard-response","8","154069","0.0-2.0-3.0","15","Low_HMMActual","13959.529999876395","","","","resources/BlackJar_HMM.png","32"
"html-keyboard-response","9","158318","0.0-2.0-4.0","15","Low_HMMActual","4248.004999943078","","","","<div class=""container"" style=""height:800px;width:800px;display:flex;flex-direction:column;justify-content:center;align-items:center;text-align:center;font-weight:normal;font-family:Arial;font-size:20px""><p>There will be two blocks of trials. Each block will contain 500 trials. <br><br>Here are examples of what you will see on each trial.<br><br>Press the SPACEBAR to continue. </p><div>","32"
"image-keyboard-response","10","166925","0.0-2.0-5.0","15","Low_HMMActual","8606.400000164285","","","","Images/NoChoice.png","32"
"html-keyboard-response","11","219374","0.0-2.0-6.0","15","Low_HMMActual","52447.755000088364","","","","<div class=""container"" style=""height:800px;width:800px;display:flex;flex-direction:column;justify-content:center;align-items:center;text-align:center;font-weight:normal;font-family:Arial;font-size:20px""><p> The jar the beads are pulled from is NOT choosen at random on each trial.<br><br>After each prediction, there will be a chance that the jars will switch, and that the next bead will be pulled from the opposite jar as the previous trial.<br><br>In each block, the chance that a jar will switch will either be LOW (the jars will not switch very often), or HIGH (the jars will switch almost all the time).<br><br>At the start of each block, you will be told the probability that the jars will switch on each trial. This switch probability will stay constant throughout the block.<br><br>We will now show you some examples of beads being drawn from jars. The bead will appear in the middle of the screen, and the jar the bead was pulled from will be indicated with a black rectangle.<br><br>Press the SPACEBAR to continue. </p><div>","32"
"image-keyboard-response","12","228278","0.0-2.0-7.0","15","Low_HMMActual","8903.474999824539","","","","Images/TutorialWhiteJarDrawHMMC.png","32"
"image-keyboard-response","13","237237","0.0-2.0-8.0","15","Low_HMMActual","8958.700000075623","","","","Images/TutorialBlackJarDrawHMMC.png","32"
"image-keyboard-response","14","239573","0.0-2.0-9.0","15","Low_HMMActual","2335.6149999890476","","","","Images/TutorialBlackJarDrawHMMI.png","32"
"html-keyboard-response","15","284813","0.0-2.0-10.0","15","Low_HMMActual","45239.79000002146","","","","<div class=""container"" style=""height:800px;width:800px;display:flex;flex-direction:column;justify-content:center;align-items:center;text-align:center;font-weight:normal;font-family:Arial;font-size:20px""><p> As you observed, a white bead was pulled from a 80% white jar, the jars switched and a black bead was pulled from the 80% black jar, but then a low-probability white bead was pulled from the 80% black jar. <br><br>Because the jars have a mix of white and black beads, the best strategy to predict the next bead is to first figure out which jar the current bead was pulled from, then use the jar switch probability to predict which jar will be drawn from next.<br><br>Press SPACEBAR to conitnue.</p><div>","32"
"html-keyboard-response","16","286533","0.0-2.0-11.0","15","Low_HMMActual","1719.1000001039356","","","","<div class=""container"" style=""height:800px;width:800px;display:flex;flex-direction:column;justify-content:center;align-items:center;text-align:center;font-weight:normal;font-family:Arial;font-size:20px""><p> You will now be given a 2 question quiz to make sure you understand the task. </p><div>","32"
"image-keyboard-response","17","297053","0.0-2.0-12.0","15","Low_HMMActual","10519.115000031888","","","","Images/TutorialQuestion1.png","39"
"image-keyboard-response","18","321125","0.0-2.0-13.0","15","Low_HMMActual","21823.89000011608","","","","Images/TutorialQuestion2.png","38"
"html-keyboard-response","19","344782","0.0-3.0","15","Low_HMMActual","20815.754999872297","","","","<div class=""container"" style=""height:800px;width:800px;display:flex;flex-direction:column;justify-content:center;align-items:center;text-align:center;font-weight:normal;font-family:Arial;font-size:20px""><p>Loading episode&hellip;</p><div>","32"
"image-keyboard-response","20","350605","0.0-4.0-0.0","15","Low_HMMActual","5822.004999965429","","","","Images/NoChoice.png","37"
"image-keyboard-response","21","351007","0.0-4.0-1.0","15","Low_HMMActual","null","","","","Images/BlackBeadChoice.png","null"
"image-keyboard-response","22","351708","0.0-4.0-2.0","15","Low_HMMActual","null","","","","Images/BlackBeadChoiceWrong.png","null"
"image-keyboard-response","23","356141","0.0-4.0-0.1","15","Low_HMMActual","4432.685000123456","","","","Images/NewTrialWC.png","37"
"image-keyboard-response","24","356544","0.0-4.0-1.1","15","Low_HMMActual","null","","","","Images/BlackBeadChoice.png","null"
"image-keyboard-response","25","357245","0.0-4.0-2.1","15","Low_HMMActual","null","","","","Images/BlackBeadChoiceCorrect.png","null"
"image-keyboard-response","26","359957","0.0-4.0-0.2","15","Low_HMMActual","2711.2799999304116","","","","Images/NewTrialBC.png","39"
"image-keyboard-response","27","360358","0.0-4.0-1.2","15","Low_HMMActual","null","","","","Images/WhiteBeadChoice.png","null"
"image-keyboard-response","28","361060","0.0-4.0-2.2","15","Low_HMMActual","null","","","","Images/WhiteBeadChoiceCorrect.png","null"
"image-keyboard-response","29","361853","0.0-4.0-0.3","15","Low_HMMActual","791.9649998657405","","","","Images/NewTrialWC.png","37"
"image-keyboard-response","30","362254","0.0-4.0-1.3","15","Low_HMMActual","null","","","","Images/BlackBeadChoice.png","null"
"image-keyboard-response","31","362956","0.0-4.0-2.3","15","Low_HMMActual","null","","","","Images/BlackBeadChoiceWrong.png","null"
"image-keyboard-response","32","368037","0.0-4.0-0.4","15","Low_HMMActual","5079.67000012286","","","","Images/NewTrialWC.png","37"
"image-keyboard-response","33","368438","0.0-4.0-1.4","15","Low_HMMActual","null","","","","Images/BlackBeadChoice.png","null"
"image-keyboard-response","34","369140","0.0-4.0-2.4","15","Low_HMMActual","null","","","","Images/BlackBeadChoiceCorrect.png","null"
"image-keyboard-response","35","369837","0.0-4.0-0.5","15","Low_HMMActual","696.3550001382828","","","","Images/NewTrialBC.png","39"
"image-keyboard-response","36","370238","0.0-4.0-1.5","15","Low_HMMActual","null","","","","Images/WhiteBeadChoice.png","null"
"image-keyboard-response","37","370940","0.0-4.0-2.5","15","Low_HMMActual","null","","","","Images/WhiteBeadChoiceWrong.png","null"
"image-keyboard-response","38","372149","0.0-4.0-0.6","15","Low_HMMActual","1207.8999998047948","","","","Images/NewTrialBC.png","39"
"image-keyboard-response","39","372550","0.0-4.0-1.6","15","Low_HMMActual","null","","","","Images/WhiteBeadChoice.png","null"
"image-keyboard-response","40","373252","0.0-4.0-2.6","15","Low_HMMActual","null","","","","Images/WhiteBeadChoiceCorrect.png","null"
"image-keyboard-response","41","373997","0.0-4.0-0.7","15","Low_HMMActual","744.3750000093132","","","","Images/NewTrialWC.png","37"
"image-keyboard-response","42","374400","0.0-4.0-1.7","15","Low_HMMActual","null","","","","Images/BlackBeadChoice.png","null"
"image-keyboard-response","43","375101","0.0-4.0-2.7","15","Low_HMMActual","null","","","","Images/BlackBeadChoiceWrong.png","null"
"image-keyboard-response","44","376133","0.0-4.0-0.8","15","Low_HMMActual","1031.1299997847527","","","","Images/NewTrialWC.png","37"
"image-keyboard-response","45","376534","0.0-4.0-1.8","15","Low_HMMActual","null","","","","Images/BlackBeadChoice.png","null"
"image-keyboard-response","46","377236","0.0-4.0-2.8","15","Low_HMMActual","null","","","","Images/BlackBeadChoiceCorrect.png","null"
"image-keyboard-response","47","377645","0.0-4.0-0.9","15","Low_HMMActual","407.88500010967255","","","","Images/NewTrialBC.png","39"
"image-keyboard-response","48","378046","0.0-4.0-1.9","15","Low_HMMActual","null","","","","Images/WhiteBeadChoice.png","null"
"image-keyboard-response","49","378747","0.0-4.0-2.9","15","Low_HMMActual","null","","","","Images/WhiteBeadChoiceCorrect.png","null"
"image-keyboard-response","50","379277","0.0-4.0-0.10","15","Low_HMMActual","528.6400001496077","","","","Images/NewTrialWC.png","37"
"image-keyboard-response","51","379678","0.0-4.0-1.10","15","Low_HMMActual","null","","","","Images/BlackBeadChoice.png","null"
"image-keyboard-response","52","380379","0.0-4.0-2.10","15","Low_HMMActual","null","","","","Images/BlackBeadChoiceWrong.png","null"
"image-keyboard-response","53","380813","0.0-4.0-0.11","15","Low_HMMActual","432.7599999960512","","","","Images/NewTrialWC.png","37"
"image-keyboard-response","54","381214","0.0-4.0-1.11","15","Low_HMMActual","null","","","","Images/BlackBeadChoice.png","null"
"image-keyboard-response","55","381916","0.0-4.0-2.11","15","Low_HMMActual","null","","","","Images/BlackBeadChoiceWrong.png","null"
"image-keyboard-response","56","382501","0.0-4.0-0.12","15","Low_HMMActual","584.525000071153","","","","Images/NewTrialWC.png","37"
"image-keyboard-response","57","382902","0.0-4.0-1.12","15","Low_HMMActual","null","","","","Images/BlackBeadChoice.png","null"
"image-keyboard-response","58","383603","0.0-4.0-2.12","15","Low_HMMActual","null","","","","Images/BlackBeadChoiceWrong.png","null"
"image-keyboard-response","59","385269","0.0-4.0-0.13","15","Low_HMMActual","1664.7849997971207","","","","Images/NewTrialWC.png","37"
"image-keyboard-response","60","385670","0.0-4.0-1.13","15","Low_HMMActual","null","","","","Images/BlackBeadChoice.png","null"
"image-keyboard-response","61","386371","0.0-4.0-2.13","15","Low_HMMActual","null","","","","Images/BlackBeadChoiceWrong.png","null"
"image-keyboard-response","62","387142","0.0-4.0-0.14","15","Low_HMMActual","769.0649998839945","","","","Images/NewTrialWC.png","37"
"image-keyboard-response","63","387544","0.0-4.0-1.14","15","Low_HMMActual","null","","","","Images/BlackBeadChoice.png","null"
"image-keyboard-response","64","388245","0.0-4.0-2.14","15","Low_HMMActual","null","","","","Images/BlackBeadChoiceWrong.png","null"
"image-keyboard-response","65","388861","0.0-4.0-0.15","15","Low_HMMActual","614.6599999628961","","","","Images/NewTrialWC.png","37"
"image-keyboard-response","66","389262","0.0-4.0-1.15","15","Low_HMMActual","null","","","","Images/BlackBeadChoice.png","null"
"image-keyboard-response","67","389964","0.0-4.0-2.15","15","Low_HMMActual","null","","","","Images/BlackBeadChoiceWrong.png","null"
"image-keyboard-response","68","390885","0.0-4.0-0.16","15","Low_HMMActual","920.505000045523","","","","Images/NewTrialWC.png","37"
"image-keyboard-response","69","391288","0.0-4.0-1.16","15","Low_HMMActual","null","","","","Images/BlackBeadChoice.png","null"
"image-keyboard-response","70","391990","0.0-4.0-2.16","15","Low_HMMActual","null","","","","Images/BlackBeadChoiceWrong.png","null"
"image-keyboard-response","71","392325","0.0-4.0-0.17","15","Low_HMMActual","334.28499987348914","","","","Images/NewTrialWC.png","37"
"image-keyboard-response","72","392726","0.0-4.0-1.17","15","Low_HMMActual","null","","","","Images/BlackBeadChoice.png","null"
"image-keyboard-response","73","393428","0.0-4.0-2.17","15","Low_HMMActual","null","","","","Images/BlackBeadChoiceCorrect.png","null"
"image-keyboard-response","74","393869","0.0-4.0-0.18","15","Low_HMMActual","440.5050000641495","","","","Images/NewTrialBC.png","39"
"image-keyboard-response","75","394270","0.0-4.0-1.18","15","Low_HMMActual","null","","","","Images/WhiteBeadChoice.png","null"
"image-keyboard-response","76","394973","0.0-4.0-2.18","15","Low_HMMActual","null","","","","Images/WhiteBeadChoiceCorrect.png","null"
"image-keyboard-response","77","395261","0.0-4.0-0.19","15","Low_HMMActual","287.9749999847263","","","","Images/NewTrialWC.png","37"
"image-keyboard-response","78","395664","0.0-4.0-1.19","15","Low_HMMActual","null","","","","Images/BlackBeadChoice.png","null"
"image-keyboard-response","79","396366","0.0-4.0-2.19","15","Low_HMMActual","null","","","","Images/BlackBeadChoiceWrong.png","null"
"image-keyboard-response","80","397526","0.0-4.0-0.20","15","Low_HMMActual","1159.0250001754612","","","","Images/NewTrialWC.png","37"
"image-keyboard-response","81","397927","0.0-4.0-1.20","15","Low_HMMActual","null","","","","Images/BlackBeadChoice.png","null"
"image-keyboard-response","82","398628","0.0-4.0-2.20","15","Low_HMMActual","null","","","","Images/BlackBeadChoiceWrong.png","null"
"image-keyboard-response","83","399006","0.0-4.0-0.21","15","Low_HMMActual","376.32000003941357","","","","Images/NewTrialWC.png","37"
"image-keyboard-response","84","399406","0.0-4.0-1.21","15","Low_HMMActual","null","","","","Images/BlackBeadChoice.png","null"
"image-keyboard-response","85","400108","0.0-4.0-2.21","15","Low_HMMActual","null","","","","Images/BlackBeadChoiceWrong.png","null"
"image-keyboard-response","86","427694","0.0-4.0-0.22","15","Low_HMMActual","27584.909999975935","","","","Images/NewTrialWC.png","37"
"image-keyboard-response","87","428096","0.0-4.0-1.22","15","Low_HMMActual","null","","","","Images/BlackBeadChoice.png","null"
"image-keyboard-response","88","428798","0.0-4.0-2.22","15","Low_HMMActual","null","","","","Images/BlackBeadChoiceWrong.png","null"
"image-keyboard-response","89","439237","0.0-4.0-0.23","15","Low_HMMActual","10438.36999987252","","","","Images/NewTrialWC.png","37"
"image-keyboard-response","90","439640","0.0-4.0-1.23","15","Low_HMMActual","null","","","","Images/BlackBeadChoice.png","null"
"image-keyboard-response","91","440341","0.0-4.0-2.23","15","Low_HMMActual","null","","","","Images/BlackBeadChoiceCorrect.png","null"
"image-keyboard-response","92","440653","0.0-4.0-0.24","15","Low_HMMActual","311.32499990053475","","","","Images/NewTrialBC.png","39"
"image-keyboard-response","93","441055","0.0-4.0-1.24","15","Low_HMMActual","null","","","","Images/WhiteBeadChoice.png","null"
"image-keyboard-response","94","441757","0.0-4.0-2.24","15","Low_HMMActual","null","","","","Images/WhiteBeadChoiceCorrect.png","null"
"image-keyboard-response","95","442270","0.0-4.0-0.25","15","Low_HMMActual","511.83500001206994","","","","Images/NewTrialWC.png","37"
"image-keyboard-response","96","442670","0.0-4.0-1.25","15","Low_HMMActual","null","","","","Images/BlackBeadChoice.png","null"
"image-keyboard-response","97","443372","0.0-4.0-2.25","15","Low_HMMActual","null","","","","Images/BlackBeadChoiceWrong.png","null"
"image-keyboard-response","98","446381","0.0-4.0-0.26","15","Low_HMMActual","3008.905000053346","","","","Images/NewTrialWC.png","37"
"image-keyboard-response","99","446782","0.0-4.0-1.26","15","Low_HMMActual","null","","","","Images/BlackBeadChoice.png","null"
"image-keyboard-response","100","447484","0.0-4.0-2.26","15","Low_HMMActual","null","","","","Images/BlackBeadChoiceWrong.png","null"
"image-keyboard-response","101","447973","0.0-4.0-0.27","15","Low_HMMActual","488.8700000010431","","","","Images/NewTrialWC.png","37"
"image-keyboard-response","102","448375","0.0-4.0-1.27","15","Low_HMMActual","null","","","","Images/BlackBeadChoice.png","null"
"image-keyboard-response","103","449076","0.0-4.0-2.27","15","Low_HMMActual","null","","","","Images/BlackBeadChoiceWrong.png","null"
"image-keyboard-response","104","449613","0.0-4.0-0.28","15","Low_HMMActual","536.420000018552","","","","Images/NewTrialWC.png","37"
"image-keyboard-response","105","450014","0.0-4.0-1.28","15","Low_HMMActual","null","","","","Images/BlackBeadChoice.png","null"
"image-keyboard-response","106","450717","0.0-4.0-2.28","15","Low_HMMActual","null","","","","Images/BlackBeadChoiceCorrect.png","null"
"image-keyboard-response","107","451381","0.0-4.0-0.29","15","Low_HMMActual","663.8950000051409","","","","Images/NewTrialBC.png","39"
"image-keyboard-response","108","451783","0.0-4.0-1.29","15","Low_HMMActual","null","","","","Images/WhiteBeadChoice.png","null"
"image-keyboard-response","109","452485","0.0-4.0-2.29","15","Low_HMMActual","null","","","","Images/WhiteBeadChoiceWrong.png","null"
"image-keyboard-response","110","453782","0.0-4.0-0.30","15","Low_HMMActual","1295.9600000176579","","","","Images/NewTrialBC.png","39"
"image-keyboard-response","111","454183","0.0-4.0-1.30","15","Low_HMMActual","null","","","","Images/WhiteBeadChoice.png","null"
"image-keyboard-response","112","454885","0.0-4.0-2.30","15","Low_HMMActual","null","","","","Images/WhiteBeadChoiceCorrect.png","null"
"image-keyboard-response","113","455989","0.0-4.0-0.31","15","Low_HMMActual","1103.059999877587","","","","Images/NewTrialWC.png","37"
"image-keyboard-response","114","456391","0.0-4.0-1.31","15","Low_HMMActual","null","","","","Images/BlackBeadChoice.png","null"
"image-keyboard-response","115","457092","0.0-4.0-2.31","15","Low_HMMActual","null","","","","Images/BlackBeadChoiceCorrect.png","null"
"image-keyboard-response","116","457790","0.0-4.0-0.32","15","Low_HMMActual","696.375000057742","","","","Images/NewTrialBC.png","39"
"image-keyboard-response","117","458191","0.0-4.0-1.32","15","Low_HMMActual","null","","","","Images/WhiteBeadChoice.png","null"
"image-keyboard-response","118","458892","0.0-4.0-2.32","15","Low_HMMActual","null","","","","Images/WhiteBeadChoiceCorrect.png","null"
"image-keyboard-response","119","459669","0.0-4.0-0.33","15","Low_HMMActual","776.6700000502169","","","","Images/NewTrialWC.png","37"
"image-keyboard-response","120","460072","0.0-4.0-1.33","15","Low_HMMActual","null","","","","Images/BlackBeadChoice.png","null"
"image-keyboard-response","121","460773","0.0-4.0-2.33","15","Low_HMMActual","null","","","","Images/BlackBeadChoiceCorrect.png","null"
"image-keyboard-response","122","461413","0.0-4.0-0.34","15","Low_HMMActual","639.7600001655519","","","","Images/NewTrialBC.png","39"
"image-keyboard-response","123","461814","0.0-4.0-1.34","15","Low_HMMActual","null","","","","Images/WhiteBeadChoice.png","null"
"image-keyboard-response","124","462516","0.0-4.0-2.34","15","Low_HMMActual","null","","","","Images/WhiteBeadChoiceWrong.png","null"
"image-keyboard-response","125","469846","0.0-4.0-0.35","15","Low_HMMActual","7328.509999904782","","","","Images/NewTrialBC.png","39"
"image-keyboard-response","126","470246","0.0-4.0-1.35","15","Low_HMMActual","null","","","","Images/WhiteBeadChoice.png","null"
"image-keyboard-response","127","470948","0.0-4.0-2.35","15","Low_HMMActual","null","","","","Images/WhiteBeadChoiceWrong.png","null"
"image-keyboard-response","128","471413","0.0-4.0-0.36","15","Low_HMMActual","464.210000121966","","","","Images/NewTrialBC.png","39"
"image-keyboard-response","129","471815","0.0-4.0-1.36","15","Low_HMMActual","null","","","","Images/WhiteBeadChoice.png","null"
"image-keyboard-response","130","472516","0.0-4.0-2.36","15","Low_HMMActual","null","","","","Images/WhiteBeadChoiceCorrect.png","null"
"image-keyboard-response","131","473101","0.0-4.0-0.37","15","Low_HMMActual","584.6199998632073","","","","Images/NewTrialWC.png","37"
"image-keyboard-response","132","473503","0.0-4.0-1.37","15","Low_HMMActual","null","","","","Images/BlackBeadChoice.png","null"
"image-keyboard-response","133","474204","0.0-4.0-2.37","15","Low_HMMActual","null","","","","Images/BlackBeadChoiceCorrect.png","null"
"image-keyboard-response","134","475070","0.0-4.0-0.38","15","Low_HMMActual","864.6249999292195","","","","Images/NewTrialBC.png","39"
"image-keyboard-response","135","475471","0.0-4.0-1.38","15","Low_HMMActual","null","","","","Images/WhiteBeadChoice.png","null"
"image-keyboard-response","136","476173","0.0-4.0-2.38","15","Low_HMMActual","null","","","","Images/WhiteBeadChoiceWrong.png","null"
"image-keyboard-response","137","483581","0.0-4.0-0.39","15","Low_HMMActual","7407.954999944195","","","","Images/NewTrialBC.png","39"
"image-keyboard-response","138","483984","0.0-4.0-1.39","15","Low_HMMActual","null","","","","Images/WhiteBeadChoice.png","null"
"image-keyboard-response","139","484685","0.0-4.0-2.39","15","Low_HMMActual","null","","","","Images/WhiteBeadChoiceCorrect.png","null"
"image-keyboard-response","140","488301","0.0-4.0-0.40","15","Low_HMMActual","3615.3250001370907","","","","Images/NewTrialWC.png","37"
"image-keyboard-response","141","488703","0.0-4.0-1.40","15","Low_HMMActual","null","","","","Images/BlackBeadChoice.png","null"
"image-keyboard-response","142","489404","0.0-4.0-2.40","15","Low_HMMActual","null","","","","Images/BlackBeadChoiceCorrect.png","null"
"image-keyboard-response","143","489942","0.0-4.0-0.41","15","Low_HMMActual","536.3899997901171","","","","Images/NewTrialBC.png","39"
"image-keyboard-response","144","490343","0.0-4.0-1.41","15","Low_HMMActual","null","","","","Images/WhiteBeadChoice.png","null"
"image-keyboard-response","145","491044","0.0-4.0-2.41","15","Low_HMMActual","null","","","","Images/WhiteBeadChoiceWrong.png","null"
"image-keyboard-response","146","492725","0.0-4.0-0.42","15","Low_HMMActual","1680.739999981597","","","","Images/NewTrialBC.png","39"
"image-keyboard-response","147","493127","0.0-4.0-1.42","15","Low_HMMActual","null","","","","Images/WhiteBeadChoice.png","null"
"image-keyboard-response","148","493828","0.0-4.0-2.42","15","Low_HMMActual","null","","","","Images/WhiteBeadChoiceWrong.png","null"
"image-keyboard-response","149","505518","0.0-4.0-0.43","15","Low_HMMActual","11689.2349999398","","","","Images/NewTrialBC.png","39"
"image-keyboard-response","150","505920","0.0-4.0-1.43","15","Low_HMMActual","null","","","","Images/WhiteBeadChoice.png","null"
"image-keyboard-response","151","506621","0.0-4.0-2.43","15","Low_HMMActual","null","","","","Images/WhiteBeadChoiceWrong.png","null"
"image-keyboard-response","152","507317","0.0-4.0-0.44","15","Low_HMMActual","695.6950000021607","","","","Images/NewTrialBC.png","39"
"image-keyboard-response","153","507719","0.0-4.0-1.44","15","Low_HMMActual","null","","","","Images/WhiteBeadChoice.png","null"
"image-keyboard-response","154","508420","0.0-4.0-2.44","15","Low_HMMActual","null","","","","Images/WhiteBeadChoiceWrong.png","null"
"image-keyboard-response","155","511542","0.0-4.0-0.45","15","Low_HMMActual","3120.6350000575185","","","","Images/NewTrialBC.png","39"
"image-keyboard-response","156","511943","0.0-4.0-1.45","15","Low_HMMActual","null","","","","Images/WhiteBeadChoice.png","null"
"image-keyboard-response","157","512645","0.0-4.0-2.45","15","Low_HMMActual","null","","","","Images/WhiteBeadChoiceWrong.png","null"
"image-keyboard-response","158","517758","0.0-4.0-0.46","15","Low_HMMActual","5111.944999778643","","","","Images/NewTrialBC.png","39"
"image-keyboard-response","159","518159","0.0-4.0-1.46","15","Low_HMMActual","null","","","","Images/WhiteBeadChoice.png","null"
"image-keyboard-response","160","518861","0.0-4.0-2.46","15","Low_HMMActual","null","","","","Images/WhiteBeadChoiceWrong.png","null"
"image-keyboard-response","161","519230","0.0-4.0-0.47","15","Low_HMMActual","367.88500007241964","","","","Images/NewTrialBC.png","39"
"image-keyboard-response","162","519631","0.0-4.0-1.47","15","Low_HMMActual","null","","","","Images/WhiteBeadChoice.png","null"
"image-keyboard-response","163","520333","0.0-4.0-2.47","15","Low_HMMActual","null","","","","Images/WhiteBeadChoiceCorrect.png","null"
"image-keyboard-response","164","521053","0.0-4.0-0.48","15","Low_HMMActual","719.4250000175089","","","","Images/NewTrialWC.png","37"
"image-keyboard-response","165","521454","0.0-4.0-1.48","15","Low_HMMActual","null","","","","Images/BlackBeadChoice.png","null"
"image-keyboard-response","166","522156","0.0-4.0-2.48","15","Low_HMMActual","null","","","","Images/BlackBeadChoiceCorrect.png","null"
"image-keyboard-response","167","522534","0.0-4.0-0.49","15","Low_HMMActual","376.589999999851","","","","Images/NewTrialBC.png","39"
"image-keyboard-response","168","522935","0.0-4.0-1.49","15","Low_HMMActual","null","","","","Images/WhiteBeadChoice.png","null"
"image-keyboard-response","169","523636","0.0-4.0-2.49","15","Low_HMMActual","null","","","","Images/WhiteBeadChoiceWrong.png","null"
"image-keyboard-response","170","524446","0.0-4.0-0.50","15","Low_HMMActual","808.4249999374151","","","","Images/NewTrialBC.png","39"
"image-keyboard-response","171","524847","0.0-4.0-1.50","15","Low_HMMActual","null","","","","Images/WhiteBeadChoice.png","null"
"image-keyboard-response","172","525548","0.0-4.0-2.50","15","Low_HMMActual","null","","","","Images/WhiteBeadChoiceWrong.png","null"
"image-keyboard-response","173","537278","0.0-4.0-0.51","15","Low_HMMActual","11729.070000117645","","","","Images/NewTrialBC.png","37"
"image-keyboard-response","174","537680","0.0-4.0-1.51","15","Low_HMMActual","null","","","","Images/BlackBeadChoice.png","null"
"image-keyboard-response","175","538381","0.0-4.0-2.51","15","Low_HMMActual","null","","","","Images/BlackBeadChoiceWrong.png","null"
"image-keyboard-response","176","539101","0.0-4.0-0.52","15","Low_HMMActual","719.7399998549372","","","","Images/NewTrialWC.png","37"
"image-keyboard-response","177","539503","0.0-4.0-1.52","15","Low_HMMActual","null","","","","Images/BlackBeadChoice.png","null"
"image-keyboard-response","178","540204","0.0-4.0-2.52","15","Low_HMMActual","null","","","","Images/BlackBeadChoiceCorrect.png","null"
"image-keyboard-response","179","541086","0.0-4.0-0.53","15","Low_HMMActual","880.6999998632818","","","","Images/NewTrialBC.png","39"
"image-keyboard-response","180","541488","0.0-4.0-1.53","15","Low_HMMActual","null","","","","Images/WhiteBeadChoice.png","null"
"image-keyboard-response","181","542189","0.0-4.0-2.53","15","Low_HMMActual","null","","","","Images/WhiteBeadChoiceWrong.png","null"
"image-keyboard-response","182","542566","0.0-4.0-0.54","15","Low_HMMActual","375.71500008925796","","","","Images/NewTrialBC.png","37"
"image-keyboard-response","183","542968","0.0-4.0-1.54","15","Low_HMMActual","null","","","","Images/BlackBeadChoice.png","null"
"image-keyboard-response","184","543670","0.0-4.0-2.54","15","Low_HMMActual","676.9950001034886","","","","Images/BlackBeadChoiceCorrect.png","37"
"image-keyboard-response","185","544118","0.0-4.0-0.55","15","Low_HMMActual","447.029999922961","","","","Images/NewTrialBC.png","37"
"image-keyboard-response","186","544519","0.0-4.0-1.55","15","Low_HMMActual","null","","","","Images/BlackBeadChoice.png","null"
"image-keyboard-response","187","545220","0.0-4.0-2.55","15","Low_HMMActual","null","","","","Images/BlackBeadChoiceWrong.png","null"
"image-keyboard-response","188","546398","0.0-4.0-0.56","15","Low_HMMActual","1176.865000044927","","","","Images/NewTrialWC.png","37"
"image-keyboard-response","189","546800","0.0-4.0-1.56","15","Low_HMMActual","null","","","","Images/BlackBeadChoice.png","null"
"image-keyboard-response","190","547502","0.0-4.0-2.56","15","Low_HMMActual","null","","","","Images/BlackBeadChoiceCorrect.png","null"
"image-keyboard-response","191","547886","0.0-4.0-0.57","15","Low_HMMActual","383.2649998366833","","","","Images/NewTrialBC.png","37"
"image-keyboard-response","192","548287","0.0-4.0-1.57","15","Low_HMMActual","null","","","","Images/BlackBeadChoice.png","null"
"image-keyboard-response","193","548989","0.0-4.0-2.57","15","Low_HMMActual","null","","","","Images/BlackBeadChoiceWrong.png","null"
"image-keyboard-response","194","549526","0.0-4.0-0.58","15","Low_HMMActual","535.9950000420213","","","","Images/NewTrialWC.png","37"
"image-keyboard-response","195","549928","0.0-4.0-1.58","15","Low_HMMActual","null","","","","Images/BlackBeadChoice.png","null"
"image-keyboard-response","196","550629","0.0-4.0-2.58","15","Low_HMMActual","null","","","","Images/BlackBeadChoiceCorrect.png","null"
"image-keyboard-response","197","550933","0.0-4.0-0.59","15","Low_HMMActual","303.3499999437481","","","","Images/NewTrialBC.png","39"
"image-keyboard-response","198","551335","0.0-4.0-1.59","15","Low_HMMActual","null","","","","Images/WhiteBeadChoice.png","null"
"image-keyboard-response","199","552036","0.0-4.0-2.59","15","Low_HMMActual","null","","","","Images/WhiteBeadChoiceWrong.png","null"
"image-keyboard-response","200","553238","0.0-4.0-0.60","15","Low_HMMActual","1201.1149998288602","","","","Images/NewTrialBC.png","37"
"image-keyboard-response","201","553640","0.0-4.0-1.60","15","Low_HMMActual","null","","","","Images/BlackBeadChoice.png","null"
"image-keyboard-response","202","554342","0.0-4.0-2.60","15","Low_HMMActual","null","","","","Images/BlackBeadChoiceCorrect.png","null"
"image-keyboard-response","203","554805","0.0-4.0-0.61","15","Low_HMMActual","462.9149998072535","","","","Images/NewTrialBC.png","37"
"image-keyboard-response","204","555207","0.0-4.0-1.61","15","Low_HMMActual","null","","","","Images/BlackBeadChoice.png","null"
"image-keyboard-response","205","555908","0.0-4.0-2.61","15","Low_HMMActual","null","","","","Images/BlackBeadChoiceCorrect.png","null"
"image-keyboard-response","206","556518","0.0-4.0-0.62","15","Low_HMMActual","608.6149998009205","","","","Images/NewTrialBC.png","37"
"image-keyboard-response","207","556919","0.0-4.0-1.62","15","Low_HMMActual","null","","","","Images/BlackBeadChoice.png","null"
"image-keyboard-response","208","557620","0.0-4.0-2.62","15","Low_HMMActual","null","","","","Images/BlackBeadChoiceCorrect.png","null"
"image-keyboard-response","209","558006","0.0-4.0-0.63","15","Low_HMMActual","384.7749999258667","","","","Images/NewTrialBC.png","37"
"image-keyboard-response","210","558408","0.0-4.0-1.63","15","Low_HMMActual","null","","","","Images/BlackBeadChoice.png","null"
"image-keyboard-response","211","559110","0.0-4.0-2.63","15","Low_HMMActual","null","","","","Images/BlackBeadChoiceCorrect.png","null"
"image-keyboard-response","212","571222","0.0-4.0-0.64","15","Low_HMMActual","12111.169999931008","","","","Images/NewTrialBC.png","37"
"image-keyboard-response","213","571623","0.0-4.0-1.64","15","Low_HMMActual","null","","","","Images/BlackBeadChoice.png","null"
"image-keyboard-response","214","572324","0.0-4.0-2.64","15","Low_HMMActual","null","","","","Images/BlackBeadChoiceCorrect.png","null"
"image-keyboard-response","215","576717","0.0-4.0-0.65","15","Low_HMMActual","4392.385000130162","","","","Images/NewTrialBC.png","37"
"image-keyboard-response","216","577118","0.0-4.0-1.65","15","Low_HMMActual","null","","","","Images/BlackBeadChoice.png","null"
"image-keyboard-response","217","577820","0.0-4.0-2.65","15","Low_HMMActual","null","","","","Images/BlackBeadChoiceWrong.png","null"
"image-keyboard-response","218","578413","0.0-4.0-0.66","15","Low_HMMActual","592.1050000470132","","","","Images/NewTrialWC.png","39"
"image-keyboard-response","219","578814","0.0-4.0-1.66","15","Low_HMMActual","null","","","","Images/WhiteBeadChoice.png","null"
"image-keyboard-response","220","579516","0.0-4.0-2.66","15","Low_HMMActual","null","","","","Images/WhiteBeadChoiceWrong.png","null"
"image-keyboard-response","221","594614","0.0-4.0-0.67","15","Low_HMMActual","15097.240000031888","","","","Images/NewTrialBC.png","39"
"image-keyboard-response","222","595015","0.0-4.0-1.67","15","Low_HMMActual","null","","","","Images/WhiteBeadChoice.png","null"
"image-keyboard-response","223","595717","0.0-4.0-2.67","15","Low_HMMActual","null","","","","Images/WhiteBeadChoiceCorrect.png","null"
"image-keyboard-response","224","601725","0.0-4.0-0.68","15","Low_HMMActual","6007.529999827966","","","","Images/NewTrialWC.png","37"
"image-keyboard-response","225","602127","0.0-4.0-1.68","15","Low_HMMActual","null","","","","Images/BlackBeadChoice.png","null"
"image-keyboard-response","226","602828","0.0-4.0-2.68","15","Low_HMMActual","null","","","","Images/BlackBeadChoiceCorrect.png","null"
"image-keyboard-response","227","602870","0.0-4.0-0.69","15","Low_HMMActual","40.415000170469284","","","","Images/NewTrialBC.png","37"
"image-keyboard-response","228","603271","0.0-4.0-1.69","15","Low_HMMActual","null","","","","Images/BlackBeadChoice.png","null"
"image-keyboard-response","229","603972","0.0-4.0-2.69","15","Low_HMMActual","342.3099999781698","","","","Images/BlackBeadChoiceCorrect.png","37"
"image-keyboard-response","230","604110","0.0-4.0-0.70","15","Low_HMMActual","136.91999996080995","","","","Images/NewTrialBC.png","37"
"image-keyboard-response","231","604513","0.0-4.0-1.70","15","Low_HMMActual","null","","","","Images/BlackBeadChoice.png","null"
"image-keyboard-response","232","605214","0.0-4.0-2.70","15","Low_HMMActual","null","","","","Images/BlackBeadChoiceCorrect.png","null"
"image-keyboard-response","233","605510","0.0-4.0-0.71","15","Low_HMMActual","294.75499992258847","","","","Images/NewTrialBC.png","37"
"image-keyboard-response","234","605912","0.0-4.0-1.71","15","Low_HMMActual","null","","","","Images/BlackBeadChoice.png","null"
"image-keyboard-response","235","606614","0.0-4.0-2.71","15","Low_HMMActual","null","","","","Images/BlackBeadChoiceCorrect.png","null"
"image-keyboard-response","236","606678","0.0-4.0-0.72","15","Low_HMMActual","63.239999813959","","","","Images/NewTrialBC.png","37"
"image-keyboard-response","237","607078","0.0-4.0-1.72","15","Low_HMMActual","null","","","","Images/BlackBeadChoice.png","null"
"image-keyboard-response","238","607780","0.0-4.0-2.72","15","Low_HMMActual","null","","","","Images/BlackBeadChoiceCorrect.png","null"
"image-keyboard-response","239","609014","0.0-4.0-0.73","15","Low_HMMActual","1232.5450000353158","","","","Images/NewTrialBC.png","37"
"image-keyboard-response","240","609415","0.0-4.0-1.73","15","Low_HMMActual","null","","","","Images/BlackBeadChoice.png","null"
"image-keyboard-response","241","610117","0.0-4.0-2.73","15","Low_HMMActual","null","","","","Images/BlackBeadChoiceCorrect.png","null"
"image-keyboard-response","242","610174","0.0-4.0-0.74","15","Low_HMMActual","55.530000012367964","","","","Images/NewTrialBC.png","37"
"image-keyboard-response","243","610575","0.0-4.0-1.74","15","Low_HMMActual","null","","","","Images/BlackBeadChoice.png","null"
"image-keyboard-response","244","611276","0.0-4.0-2.74","15","Low_HMMActual","null","","","","Images/BlackBeadChoiceWrong.png","null"
"image-keyboard-response","245","611382","0.0-4.0-0.75","15","Low_HMMActual","104.83499988913536","","","","Images/NewTrialWC.png","39"
"image-keyboard-response","246","611783","0.0-4.0-1.75","15","Low_HMMActual","null","","","","Images/WhiteBeadChoice.png","null"
"image-keyboard-response","247","612485","0.0-4.0-2.75","15","Low_HMMActual","null","","","","Images/WhiteBeadChoiceCorrect.png","null"
"image-keyboard-response","248","613006","0.0-4.0-0.76","15","Low_HMMActual","520.1600000727922","","","","Images/NewTrialWC.png","39"
"image-keyboard-response","249","613407","0.0-4.0-1.76","15","Low_HMMActual","null","","","","Images/WhiteBeadChoice.png","null"
"image-keyboard-response","250","614109","0.0-4.0-2.76","15","Low_HMMActual","null","","","","Images/WhiteBeadChoiceCorrect.png","null"
"image-keyboard-response","251","614398","0.0-4.0-0.77","15","Low_HMMActual","287.83500008285046","","","","Images/NewTrialWC.png","39"
"image-keyboard-response","252","614799","0.0-4.0-1.77","15","Low_HMMActual","null","","","","Images/WhiteBeadChoice.png","null"
"image-keyboard-response","253","615500","0.0-4.0-2.77","15","Low_HMMActual","null","","","","Images/WhiteBeadChoiceWrong.png","null"
"image-keyboard-response","254","2183791","0.0-4.0-0.78","15","Low_HMMActual","1568290.685000131","","","","Images/NewTrialBC.png","37"
"image-keyboard-response","255","2184193","0.0-4.0-1.78","15","Low_HMMActual","null","","","","Images/BlackBeadChoice.png","null"
"image-keyboard-response","256","2184894","0.0-4.0-2.78","15","Low_HMMActual","null","","","","Images/BlackBeadChoiceCorrect.png","null"
"image-keyboard-response","257","2185199","0.0-4.0-0.79","15","Low_HMMActual","303.8749999832362","","","","Images/NewTrialBC.png","37"
"image-keyboard-response","258","2185600","0.0-4.0-1.79","15","Low_HMMActual","null","","","","Images/BlackBeadChoice.png","null"
"image-keyboard-response","259","2186301","0.0-4.0-2.79","15","Low_HMMActual","null","","","","Images/BlackBeadChoiceCorrect.png","null"
"image-keyboard-response","260","2186695","0.0-4.0-0.80","15","Low_HMMActual","392.63000013306737","","","","Images/NewTrialBC.png","39"
"image-keyboard-response","261","2187096","0.0-4.0-1.80","15","Low_HMMActual","null","","","","Images/WhiteBeadChoice.png","null"
"image-keyboard-response","262","2187798","0.0-4.0-2.80","15","Low_HMMActual","null","","","","Images/WhiteBeadChoiceWrong.png","null"
"image-keyboard-response","263","2188055","0.0-4.0-0.81","15","Low_HMMActual","256.4499999862164","","","","Images/NewTrialBC.png","37"
"image-keyboard-response","264","2188456","0.0-4.0-1.81","15","Low_HMMActual","null","","","","Images/BlackBeadChoice.png","null"
"image-keyboard-response","265","2189157","0.0-4.0-2.81","15","Low_HMMActual","null","","","","Images/BlackBeadChoiceCorrect.png","null"
"image-keyboard-response","266","2189311","0.0-4.0-0.82","15","Low_HMMActual","153.24999997392297","","","","Images/NewTrialBC.png","37"
"image-keyboard-response","267","2189712","0.0-4.0-1.82","15","Low_HMMActual","null","","","","Images/BlackBeadChoice.png","null"
"image-keyboard-response","268","2190413","0.0-4.0-2.82","15","Low_HMMActual","653.8899999577552","","","","Images/BlackBeadChoiceCorrect.png","37"
"image-keyboard-response","269","2190807","0.0-4.0-0.83","15","Low_HMMActual","392.9049998987466","","","","Images/NewTrialBC.png","37"
"image-keyboard-response","270","2191208","0.0-4.0-1.83","15","Low_HMMActual","null","","","","Images/BlackBeadChoice.png","null"
"image-keyboard-response","271","2191909","0.0-4.0-2.83","15","Low_HMMActual","null","","","","Images/BlackBeadChoiceCorrect.png","null"
"image-keyboard-response","272","2191951","0.0-4.0-0.84","15","Low_HMMActual","40.77500011771917","","","","Images/NewTrialBC.png","37"
"image-keyboard-response","273","2192352","0.0-4.0-1.84","15","Low_HMMActual","null","","","","Images/BlackBeadChoice.png","null"
"image-keyboard-response","274","2193053","0.0-4.0-2.84","15","Low_HMMActual","null","","","","Images/BlackBeadChoiceCorrect.png","null"
"image-keyboard-response","275","2193431","0.0-4.0-0.85","15","Low_HMMActual","376.5000000130385","","","","Images/NewTrialBC.png","37"
"image-keyboard-response","276","2193831","0.0-4.0-1.85","15","Low_HMMActual","null","","","","Images/BlackBeadChoice.png","null"
"image-keyboard-response","277","2194533","0.0-4.0-2.85","15","Low_HMMActual","null","","","","Images/BlackBeadChoiceWrong.png","null"
"image-keyboard-response","278","2195895","0.0-4.0-0.86","15","Low_HMMActual","1360.3650000877678","","","","Images/NewTrialWC.png","37"
"image-keyboard-response","279","2196296","0.0-4.0-1.86","15","Low_HMMActual","null","","","","Images/BlackBeadChoice.png","null"
"image-keyboard-response","280","2196997","0.0-4.0-2.86","15","Low_HMMActual","null","","","","Images/BlackBeadChoiceCorrect.png","null"
"image-keyboard-response","281","2198495","0.0-4.0-0.87","15","Low_HMMActual","1497.2149999812245","","","","Images/NewTrialBC.png","37"
"image-keyboard-response","282","2198897","0.0-4.0-1.87","15","Low_HMMActual","null","","","","Images/BlackBeadChoice.png","null"
"image-keyboard-response","283","2199599","0.0-4.0-2.87","15","Low_HMMActual","null","","","","Images/BlackBeadChoiceWrong.png","null"
"image-keyboard-response","284","2200190","0.0-4.0-0.88","15","Low_HMMActual","590.8949999138713","","","","Images/NewTrialWC.png","37"
"image-keyboard-response","285","2200591","0.0-4.0-1.88","15","Low_HMMActual","null","","","","Images/BlackBeadChoice.png","null"
"image-keyboard-response","286","2201293","0.0-4.0-2.88","15","Low_HMMActual","null","","","","Images/BlackBeadChoiceCorrect.png","null"
"image-keyboard-response","287","2201679","0.0-4.0-0.89","15","Low_HMMActual","384.86500014550984","","","","Images/NewTrialBC.png","37"
"image-keyboard-response","288","2202079","0.0-4.0-1.89","15","Low_HMMActual","null","","","","Images/BlackBeadChoice.png","null"
"image-keyboard-response","289","2202781","0.0-4.0-2.89","15","Low_HMMActual","null","","","","Images/BlackBeadChoiceCorrect.png","null"
"image-keyboard-response","290","2202783","0.0-4.0-0.90","15","Low_HMMActual","0.39499998092651367","","","","Images/NewTrialBC.png","37"
"image-keyboard-response","291","2203185","0.0-4.0-1.90","15","Low_HMMActual","null","","","","Images/BlackBeadChoice.png","null"
"image-keyboard-response","292","2203886","0.0-4.0-2.90","15","Low_HMMActual","356.8799998611212","","","","Images/BlackBeadChoiceCorrect.png","37"
"image-keyboard-response","293","2204127","0.0-4.0-0.91","15","Low_HMMActual","239.6849999204278","","","","Images/NewTrialBC.png","37"
"image-keyboard-response","294","2204528","0.0-4.0-1.91","15","Low_HMMActual","null","","","","Images/BlackBeadChoice.png","null"
"image-keyboard-response","295","2205229","0.0-4.0-2.91","15","Low_HMMActual","null","","","","Images/BlackBeadChoiceWrong.png","null"
"image-keyboard-response","296","2205503","0.0-4.0-0.92","15","Low_HMMActual","272.44500000961125","","","","Images/NewTrialWC.png","37"
"image-keyboard-response","297","2205904","0.0-4.0-1.92","15","Low_HMMActual","null","","","","Images/BlackBeadChoice.png","null"
"image-keyboard-response","298","2206605","0.0-4.0-2.92","15","Low_HMMActual","637.6749998889863","","","","Images/BlackBeadChoiceCorrect.png","37"
"image-keyboard-response","299","2207151","0.0-4.0-0.93","15","Low_HMMActual","544.484999962151","","","","Images/NewTrialBC.png","37"
"image-keyboard-response","300","2207552","0.0-4.0-1.93","15","Low_HMMActual","null","","","","Images/BlackBeadChoice.png","null"
"image-keyboard-response","301","2208254","0.0-4.0-2.93","15","Low_HMMActual","null","","","","Images/BlackBeadChoiceCorrect.png","null"
"image-keyboard-response","302","2208511","0.0-4.0-0.94","15","Low_HMMActual","256.4799999818206","","","","Images/NewTrialBC.png","39"
"image-keyboard-response","303","2208912","0.0-4.0-1.94","15","Low_HMMActual","null","","","","Images/WhiteBeadChoice.png","null"
"image-keyboard-response","304","2209614","0.0-4.0-2.94","15","Low_HMMActual","null","","","","Images/WhiteBeadChoiceWrong.png","null"
"image-keyboard-response","305","2210039","0.0-4.0-0.95","15","Low_HMMActual","423.99999988265336","","","","Images/NewTrialBC.png","37"
"image-keyboard-response","306","2210440","0.0-4.0-1.95","15","Low_HMMActual","null","","","","Images/BlackBeadChoice.png","null"
"image-keyboard-response","307","2211141","0.0-4.0-2.95","15","Low_HMMActual","365.9999999217689","","","","Images/BlackBeadChoiceWrong.png","37"
"image-keyboard-response","308","2211279","0.0-4.0-0.96","15","Low_HMMActual","136.6649998817593","","","","Images/NewTrialWC.png","37"
"image-keyboard-response","309","2211681","0.0-4.0-1.96","15","Low_HMMActual","206.50499989278615","","","","Images/BlackBeadChoice.png","37"
"image-keyboard-response","310","2212382","0.0-4.0-2.96","15","Low_HMMActual","172.9649999178946","","","","Images/BlackBeadChoiceCorrect.png","37"
"image-keyboard-response","311","2212455","0.0-4.0-0.97","15","Low_HMMActual","71.78999995812774","","","","Images/NewTrialBC.png","37"
"image-keyboard-response","312","2212855","0.0-4.0-1.97","15","Low_HMMActual","207.28500001132488","","","","Images/BlackBeadChoice.png","37"
"image-keyboard-response","313","2213557","0.0-4.0-2.97","15","Low_HMMActual","22.439999971538782","","","","Images/BlackBeadChoiceWrong.png","37"
"image-keyboard-response","314","2213743","0.0-4.0-0.98","15","Low_HMMActual","184.79999992996454","","","","Images/NewTrialWC.png","37"
"image-keyboard-response","315","2214144","0.0-4.0-1.98","15","Low_HMMActual","271.05499990284443","","","","Images/BlackBeadChoice.png","37"
"image-keyboard-response","316","2214846","0.0-4.0-2.98","15","Low_HMMActual","221.59499977715313","","","","Images/BlackBeadChoiceCorrect.png","37"
"image-keyboard-response","317","2214870","0.0-4.0-0.99","15","Low_HMMActual","23.76500004902482","","","","Images/NewTrialBC.png","37"
"image-keyboard-response","318","2215272","0.0-4.0-1.99","15","Low_HMMActual","215.83499992266297","","","","Images/BlackBeadChoice.png","37"
"image-keyboard-response","319","2215974","0.0-4.0-2.99","15","Low_HMMActual","30.005000066012144","","","","Images/BlackBeadChoiceWrong.png","37"
"image-keyboard-response","320","2216167","0.0-4.0-0.100","15","Low_HMMActual","192.02500022947788","","","","Images/NewTrialWC.png","37"
"image-keyboard-response","321","2216568","0.0-4.0-1.100","15","Low_HMMActual","206.90499991178513","","","","Images/BlackBeadChoice.png","37"
"image-keyboard-response","322","2217270","0.0-4.0-2.100","15","Low_HMMActual","29.885000083595514","","","","Images/BlackBeadChoiceCorrect.png","37"
"image-keyboard-response","323","2217486","0.0-4.0-0.101","15","Low_HMMActual","215.28999996371567","","","","Images/NewTrialBC.png","37"
"image-keyboard-response","324","2217888","0.0-4.0-1.101","15","Low_HMMActual","231.94999992847443","","","","Images/BlackBeadChoice.png","37"
"image-keyboard-response","325","2218588","0.0-4.0-2.101","15","Low_HMMActual","54.1150001809001","","","","Images/BlackBeadChoiceCorrect.png","37"
"image-keyboard-response","326","2218614","0.0-4.0-0.102","15","Low_HMMActual","25.354999816045165","","","","Images/NewTrialBC.png","37"
"image-keyboard-response","327","2219015","0.0-4.0-1.102","15","Low_HMMActual","215.35999979823828","","","","Images/BlackBeadChoice.png","37"
"image-keyboard-response","328","2219716","0.0-4.0-2.102","15","Low_HMMActual","38.210000144317746","","","","Images/BlackBeadChoiceCorrect.png","37"
"image-keyboard-response","329","2219735","0.0-4.0-0.103","15","Low_HMMActual","17.93500012718141","","","","Images/NewTrialBC.png","37"
"image-keyboard-response","330","2220136","0.0-4.0-1.103","15","Low_HMMActual","206.68500009924173","","","","Images/BlackBeadChoice.png","37"
"image-keyboard-response","331","2220837","0.0-4.0-2.103","15","Low_HMMActual","61.560000060126185","","","","Images/BlackBeadChoiceCorrect.png","37"
"image-keyboard-response","332","2220855","0.0-4.0-0.104","15","Low_HMMActual","16.629999969154596","","","","Images/NewTrialBC.png","37"
"image-keyboard-response","333","2221255","0.0-4.0-1.104","15","Low_HMMActual","231.24500014819205","","","","Images/BlackBeadChoice.png","37"
"image-keyboard-response","334","2221957","0.0-4.0-2.104","15","Low_HMMActual","46.62499995902181","","","","Images/BlackBeadChoiceCorrect.png","37"
"image-keyboard-response","335","2221999","0.0-4.0-0.105","15","Low_HMMActual","40.409999899566174","","","","Images/NewTrialBC.png","37"
"image-keyboard-response","336","2222399","0.0-4.0-1.105","15","Low_HMMActual","215.46000009402633","","","","Images/BlackBeadChoice.png","37"
"image-keyboard-response","337","2223101","0.0-4.0-2.105","15","Low_HMMActual","46.74500017426908","","","","Images/BlackBeadChoiceCorrect.png","37"
"image-keyboard-response","338","2223303","0.0-4.0-0.106","15","Low_HMMActual","200.66999993287027","","","","Images/NewTrialBC.png","37"
"image-keyboard-response","339","2223704","0.0-4.0-1.106","15","Low_HMMActual","239.23499998636544","","","","Images/BlackBeadChoice.png","37"
"image-keyboard-response","340","2224405","0.0-4.0-2.106","15","Low_HMMActual","62.45999992825091","","","","Images/BlackBeadChoiceCorrect.png","37"
"image-keyboard-response","341","2224407","0.0-4.0-0.107","15","Low_HMMActual","0.9200000204145908","","","","Images/NewTrialBC.png","37"
"image-keyboard-response","342","2224808","0.0-4.0-1.107","15","Low_HMMActual","215.24999989196658","","","","Images/BlackBeadChoice.png","37"
"image-keyboard-response","343","2225511","0.0-4.0-2.107","15","Low_HMMActual","21.739999996498227","","","","Images/BlackBeadChoiceWrong.png","37"
"image-keyboard-response","344","2225551","0.0-4.0-0.108","15","Low_HMMActual","38.78999990411103","","","","Images/NewTrialWC.png","37"
"image-keyboard-response","345","2225952","0.0-4.0-1.108","15","Low_HMMActual","223.60499994829297","","","","Images/BlackBeadChoice.png","37"
"image-keyboard-response","346","2226653","0.0-4.0-2.108","15","Low_HMMActual","54.11499994806945","","","","Images/BlackBeadChoiceCorrect.png","37"
"image-keyboard-response","347","2226719","0.0-4.0-0.109","15","Low_HMMActual","64.41999995149672","","","","Images/NewTrialBC.png","37"
"image-keyboard-response","348","2227120","0.0-4.0-1.109","15","Low_HMMActual","238.84000000543892","","","","Images/BlackBeadChoice.png","37"
"image-keyboard-response","349","2227821","0.0-4.0-2.109","15","Low_HMMActual","85.71000001393259","","","","Images/BlackBeadChoiceCorrect.png","37"
"image-keyboard-response","350","2227927","0.0-4.0-0.110","15","Low_HMMActual","104.84000016003847","","","","Images/NewTrialBC.png","37"
"image-keyboard-response","351","2228328","0.0-4.0-1.110","15","Low_HMMActual","206.7449998576194","","","","Images/BlackBeadChoice.png","37"
"image-keyboard-response","352","2229030","0.0-4.0-2.110","15","Low_HMMActual","53.24000003747642","","","","Images/BlackBeadChoiceCorrect.png","37"
"image-keyboard-response","353","2229054","0.0-4.0-0.111","15","Low_HMMActual","23.37499987334013","","","","Images/NewTrialBC.png","37"
"image-keyboard-response","354","2229455","0.0-4.0-1.111","15","Low_HMMActual","215.48500005155802","","","","Images/BlackBeadChoice.png","37"
"image-keyboard-response","355","2230156","0.0-4.0-2.111","15","Low_HMMActual","14.309999998658895","","","","Images/BlackBeadChoiceCorrect.png","37"
"image-keyboard-response","356","2230358","0.0-4.0-0.112","15","Low_HMMActual","201.35500002652407","","","","Images/NewTrialBC.png","37"
"image-keyboard-response","357","2230759","0.0-4.0-1.112","15","Low_HMMActual","223.65000005811453","","","","Images/BlackBeadChoice.png","37"
"image-keyboard-response","358","2231462","0.0-4.0-2.112","15","Low_HMMActual","46.08500003814697","","","","Images/BlackBeadChoiceWrong.png","37"
"image-keyboard-response","359","2231495","0.0-4.0-0.113","15","Low_HMMActual","31.910000136122108","","","","Images/NewTrialWC.png","37"
"image-keyboard-response","360","2231896","0.0-4.0-1.113","15","Low_HMMActual","231.27999994903803","","","","Images/BlackBeadChoice.png","37"
"image-keyboard-response","361","2232597","0.0-4.0-2.113","15","Low_HMMActual","54.02499996125698","","","","Images/BlackBeadChoiceWrong.png","37"
"image-keyboard-response","362","2232655","0.0-4.0-0.114","15","Low_HMMActual","56.859999895095825","","","","Images/NewTrialWC.png","37"
"image-keyboard-response","363","2233057","0.0-4.0-1.114","15","Low_HMMActual","239.57999981939793","","","","Images/BlackBeadChoice.png","37"
"image-keyboard-response","364","2233758","0.0-4.0-2.114","15","Low_HMMActual","85.61499998904765","","","","Images/BlackBeadChoiceCorrect.png","37"
"image-keyboard-response","365","2233879","0.0-4.0-0.115","15","Low_HMMActual","120.04499998874962","","","","Images/NewTrialBC.png","37"
"image-keyboard-response","366","2234281","0.0-4.0-1.115","15","Low_HMMActual","255.5350000038743","","","","Images/BlackBeadChoice.png","37"
"image-keyboard-response","367","2234981","0.0-4.0-2.115","15","Low_HMMActual","109.91000011563301","","","","Images/BlackBeadChoiceCorrect.png","37"
"image-keyboard-response","368","2235359","0.0-4.0-0.116","15","Low_HMMActual","376.97999994270504","","","","Images/NewTrialBC.png","37"
"image-keyboard-response","369","2235761","0.0-4.0-1.116","15","Low_HMMActual","null","","","","Images/BlackBeadChoice.png","null"
"image-keyboard-response","370","2236462","0.0-4.0-2.116","15","Low_HMMActual","null","","","","Images/BlackBeadChoiceCorrect.png","null"
"image-keyboard-response","371","2236528","0.0-4.0-0.117","15","Low_HMMActual","65.60000008903444","","","","Images/NewTrialBC.png","37"
"image-keyboard-response","372","2236929","0.0-4.0-1.117","15","Low_HMMActual","null","","","","Images/BlackBeadChoice.png","null"
"image-keyboard-response","373","2237631","0.0-4.0-2.117","15","Low_HMMActual","null","","","","Images/BlackBeadChoiceCorrect.png","null"
"image-keyboard-response","374","2237639","0.0-4.0-0.118","15","Low_HMMActual","7.719999877735972","","","","Images/NewTrialBC.png","37"
"image-keyboard-response","375","2238040","0.0-4.0-1.118","15","Low_HMMActual","null","","","","Images/BlackBeadChoice.png","null"
"image-keyboard-response","376","2238742","0.0-4.0-2.118","15","Low_HMMActual","613.4750000201166","","","","Images/BlackBeadChoiceCorrect.png","37"
"image-keyboard-response","377","2239015","0.0-4.0-0.119","15","Low_HMMActual","272.37999998033047","","","","Images/NewTrialBC.png","37"
"image-keyboard-response","378","2239416","0.0-4.0-1.119","15","Low_HMMActual","null","","","","Images/BlackBeadChoice.png","null"
"image-keyboard-response","379","2240117","0.0-4.0-2.119","15","Low_HMMActual","574.0350000560284","","","","Images/BlackBeadChoiceCorrect.png","37"
"image-keyboard-response","380","2240359","0.0-4.0-0.120","15","Low_HMMActual","241.06499995104969","","","","Images/NewTrialBC.png","37"
"image-keyboard-response","381","2240760","0.0-4.0-1.120","15","Low_HMMActual","null","","","","Images/BlackBeadChoice.png","null"
"image-keyboard-response","382","2241462","0.0-4.0-2.120","15","Low_HMMActual","null","","","","Images/BlackBeadChoiceWrong.png","null"
"image-keyboard-response","383","2241655","0.0-4.0-0.121","15","Low_HMMActual","192.9349999409169","","","","Images/NewTrialWC.png","39"
"image-keyboard-response","384","2242057","0.0-4.0-1.121","15","Low_HMMActual","null","","","","Images/WhiteBeadChoice.png","null"
"image-keyboard-response","385","2242758","0.0-4.0-2.121","15","Low_HMMActual","null","","","","Images/WhiteBeadChoiceWrong.png","null"
"image-keyboard-response","386","2242959","0.0-4.0-0.122","15","Low_HMMActual","200.0250001437962","","","","Images/NewTrialBC.png","37"
"image-keyboard-response","387","2243361","0.0-4.0-1.122","15","Low_HMMActual","null","","","","Images/BlackBeadChoice.png","null"
"image-keyboard-response","388","2244062","0.0-4.0-2.122","15","Low_HMMActual","null","","","","Images/BlackBeadChoiceCorrect.png","null"
"image-keyboard-response","389","2244375","0.0-4.0-0.123","15","Low_HMMActual","312.35499982722104","","","","Images/NewTrialBC.png","37"
"image-keyboard-response","390","2244778","0.0-4.0-1.123","15","Low_HMMActual","null","","","","Images/BlackBeadChoice.png","null"
"image-keyboard-response","391","2245479","0.0-4.0-2.123","15","Low_HMMActual","300.8200000040233","","","","Images/BlackBeadChoiceCorrect.png","37"
"image-keyboard-response","392","2245519","0.0-4.0-0.124","15","Low_HMMActual","39.94999988935888","","","","Images/NewTrialBC.png","37"
"image-keyboard-response","393","2245921","0.0-4.0-1.124","15","Low_HMMActual","175.20499997772276","","","","Images/BlackBeadChoice.png","37"
"image-keyboard-response","394","2246623","0.0-4.0-2.124","15","Low_HMMActual","197.56000000052154","","","","Images/BlackBeadChoiceCorrect.png","37"
"image-keyboard-response","395","2246711","0.0-4.0-0.125","15","Low_HMMActual","87.85500004887581","","","","Images/NewTrialBC.png","37"
"image-keyboard-response","396","2247112","0.0-4.0-1.125","15","Low_HMMActual","207.5700000859797","","","","Images/BlackBeadChoice.png","37"
"image-keyboard-response","397","2247814","0.0-4.0-2.125","15","Low_HMMActual","206.33499999530613","","","","Images/BlackBeadChoiceCorrect.png","37"
"image-keyboard-response","398","2247991","0.0-4.0-0.126","15","Low_HMMActual","176.73499998636544","","","","Images/NewTrialBC.png","37"
"image-keyboard-response","399","2248393","0.0-4.0-1.126","15","Low_HMMActual","239.33000001125038","","","","Images/BlackBeadChoice.png","37"
"image-keyboard-response","400","2249094","0.0-4.0-2.126","15","Low_HMMActual","45.119999907910824","","","","Images/BlackBeadChoiceWrong.png","37"
"image-keyboard-response","401","2249160","0.0-4.0-0.127","15","Low_HMMActual","64.45000017993152","","","","Images/NewTrialWC.png","37"
"image-keyboard-response","402","2249560","0.0-4.0-1.127","15","Low_HMMActual","214.9900000076741","","","","Images/BlackBeadChoice.png","37"
"image-keyboard-response","403","2250262","0.0-4.0-2.127","15","Low_HMMActual","38.32999989390373","","","","Images/BlackBeadChoiceCorrect.png","37"
"image-keyboard-response","404","2250399","0.0-4.0-0.128","15","Low_HMMActual","136.70499995350838","","","","Images/NewTrialBC.png","37"
"image-keyboard-response","405","2250801","0.0-4.0-1.128","15","Low_HMMActual","215.37999995052814","","","","Images/BlackBeadChoice.png","37"
"image-keyboard-response","406","2251502","0.0-4.0-2.128","15","Low_HMMActual","45.78000004403293","","","","Images/BlackBeadChoiceCorrect.png","37"
"image-keyboard-response","407","2259679","0.0-4.0-0.129","15","Low_HMMActual","8176.244999980554","","","","Images/NewTrialBC.png","37"
"image-keyboard-response","408","2260080","0.0-4.0-1.129","15","Low_HMMActual","null","","","","Images/BlackBeadChoice.png","null"
"image-keyboard-response","409","2260782","0.0-4.0-2.129","15","Low_HMMActual","null","","","","Images/BlackBeadChoiceCorrect.png","null"
"image-keyboard-response","410","2268271","0.0-4.0-0.130","15","Low_HMMActual","7488.2049998268485","","","","Images/NewTrialBC.png","37"
"image-keyboard-response","411","2268672","0.0-4.0-1.130","15","Low_HMMActual","null","","","","Images/BlackBeadChoice.png","null"
"image-keyboard-response","412","2269373","0.0-4.0-2.130","15","Low_HMMActual","406.8799999076873","","","","Images/BlackBeadChoiceWrong.png","37"
"image-keyboard-response","413","2269375","0.0-4.0-0.131","15","Low_HMMActual","0.9250000584870577","","","","Images/NewTrialWC.png","37"
"image-keyboard-response","414","2269776","0.0-4.0-1.131","15","Low_HMMActual","231.26499983482063","","","","Images/BlackBeadChoice.png","37"
"image-keyboard-response","415","2270478","0.0-4.0-2.131","15","Low_HMMActual","86.09000011347234","","","","Images/BlackBeadChoiceWrong.png","37"
"image-keyboard-response","416","2271607","0.0-4.0-0.132","15","Low_HMMActual","1128.5949999000877","","","","Images/NewTrialWC.png","37"
"image-keyboard-response","417","2272008","0.0-4.0-1.132","15","Low_HMMActual","null","","","","Images/BlackBeadChoice.png","null"
"image-keyboard-response","418","2272710","0.0-4.0-2.132","15","Low_HMMActual","null","","","","Images/BlackBeadChoiceCorrect.png","null"
"image-keyboard-response","419","2276671","0.0-4.0-0.133","15","Low_HMMActual","3960.7649999670684","","","","Images/NewTrialBC.png","37"
"image-keyboard-response","420","2277074","0.0-4.0-1.133","15","Low_HMMActual","null","","","","Images/BlackBeadChoice.png","null"
"image-keyboard-response","421","2277776","0.0-4.0-2.133","15","Low_HMMActual","null","","","","Images/BlackBeadChoiceWrong.png","null"
"image-keyboard-response","422","2278007","0.0-4.0-0.134","15","Low_HMMActual","230.57000013068318","","","","Images/NewTrialWC.png","37"
"image-keyboard-response","423","2278409","0.0-4.0-1.134","15","Low_HMMActual","null","","","","Images/BlackBeadChoice.png","null"
"image-keyboard-response","424","2279111","0.0-4.0-2.134","15","Low_HMMActual","309.6549999900162","","","","Images/BlackBeadChoiceCorrect.png","37"
"image-keyboard-response","425","2279247","0.0-4.0-0.135","15","Low_HMMActual","135.66499995067716","","","","Images/NewTrialBC.png","37"
"image-keyboard-response","426","2279649","0.0-4.0-1.135","15","Low_HMMActual","215.4250000603497","","","","Images/BlackBeadChoice.png","37"
"image-keyboard-response","427","2280350","0.0-4.0-2.135","15","Low_HMMActual","189.89000003784895","","","","Images/BlackBeadChoiceCorrect.png","37"
"image-keyboard-response","428","2280431","0.0-4.0-0.136","15","Low_HMMActual","80.3449999075383","","","","Images/NewTrialBC.png","37"
"image-keyboard-response","429","2280833","0.0-4.0-1.136","15","Low_HMMActual","206.8299998063594","","","","Images/BlackBeadChoice.png","37"
"image-keyboard-response","430","2281535","0.0-4.0-2.136","15","Low_HMMActual","22.104999981820583","","","","Images/BlackBeadChoiceWrong.png","37"
"image-keyboard-response","431","2281663","0.0-4.0-0.137","15","Low_HMMActual","127.71000014618039","","","","Images/NewTrialWC.png","37"
"image-keyboard-response","432","2282064","0.0-4.0-1.137","15","Low_HMMActual","206.81499992497265","","","","Images/BlackBeadChoice.png","37"
"image-keyboard-response","433","2282766","0.0-4.0-2.137","15","Low_HMMActual","13.749999925494194","","","","Images/BlackBeadChoiceCorrect.png","37"
"image-keyboard-response","434","2283151","0.0-4.0-0.138","15","Low_HMMActual","384.9150000605732","","","","Images/NewTrialBC.png","37"
"image-keyboard-response","435","2283553","0.0-4.0-1.138","15","Low_HMMActual","151.2750000692904","","","","Images/BlackBeadChoice.png","37"
"image-keyboard-response","436","2284255","0.0-4.0-2.138","15","Low_HMMActual","493.1850000284612","","","","Images/BlackBeadChoiceCorrect.png","37"
"image-keyboard-response","437","2285383","0.0-4.0-0.139","15","Low_HMMActual","1127.5199998635799","","","","Images/NewTrialBC.png","37"
"image-keyboard-response","438","2285784","0.0-4.0-1.139","15","Low_HMMActual","null","","","","Images/BlackBeadChoice.png","null"
"image-keyboard-response","439","2286486","0.0-4.0-2.139","15","Low_HMMActual","null","","","","Images/BlackBeadChoiceWrong.png","null"
"image-keyboard-response","440","2291735","0.0-4.0-0.140","15","Low_HMMActual","5248.749999795109","","","","Images/NewTrialWC.png","37"
"image-keyboard-response","441","2292137","0.0-4.0-1.140","15","Low_HMMActual","null","","","","Images/BlackBeadChoice.png","null"
"image-keyboard-response","442","2292839","0.0-4.0-2.140","15","Low_HMMActual","316.9100000523031","","","","Images/BlackBeadChoiceCorrect.png","37"
"image-keyboard-response","443","2293031","0.0-4.0-0.141","15","Low_HMMActual","191.5349999908358","","","","Images/NewTrialBC.png","37"
"image-keyboard-response","444","2293433","0.0-4.0-1.141","15","Low_HMMActual","null","","","","Images/BlackBeadChoice.png","null"
"image-keyboard-response","445","2294134","0.0-4.0-2.141","15","Low_HMMActual","381.5999999642372","","","","Images/BlackBeadChoiceCorrect.png","37"
"image-keyboard-response","446","2294143","0.0-4.0-0.142","15","Low_HMMActual","8.310000179335475","","","","Images/NewTrialBC.png","37"
"image-keyboard-response","447","2294544","0.0-4.0-1.142","15","Low_HMMActual","223.17499993368983","","","","Images/BlackBeadChoice.png","37"
"image-keyboard-response","448","2295246","0.0-4.0-2.142","15","Low_HMMActual","22.809999994933605","","","","Images/BlackBeadChoiceWrong.png","37"
"image-keyboard-response","449","2295479","0.0-4.0-0.143","15","Low_HMMActual","232.28499991819263","","","","Images/NewTrialWC.png","37"
"image-keyboard-response","450","2295880","0.0-4.0-1.143","15","Low_HMMActual","230.84500012919307","","","","Images/BlackBeadChoice.png","37"
"image-keyboard-response","451","2296582","0.0-4.0-2.143","15","Low_HMMActual","269.9749998282641","","","","Images/BlackBeadChoiceCorrect.png","37"
"image-keyboard-response","452","2296727","0.0-4.0-0.144","15","Low_HMMActual","143.9650000538677","","","","Images/NewTrialBC.png","37"
"image-keyboard-response","453","2297128","0.0-4.0-1.144","15","Low_HMMActual","303.38499997742474","","","","Images/BlackBeadChoice.png","37"
"image-keyboard-response","454","2297830","0.0-4.0-2.144","15","Low_HMMActual","173.8849999383092","","","","Images/BlackBeadChoiceCorrect.png","37"
"image-keyboard-response","455","2298039","0.0-4.0-0.145","15","Low_HMMActual","208.35500000976026","","","","Images/NewTrialBC.png","37"
"image-keyboard-response","456","2298440","0.0-4.0-1.145","15","Low_HMMActual","null","","","","Images/BlackBeadChoice.png","null"
"image-keyboard-response","457","2299142","0.0-4.0-2.145","15","Low_HMMActual","null","","","","Images/BlackBeadChoiceCorrect.png","null"
"image-keyboard-response","458","2299279","0.0-4.0-0.146","15","Low_HMMActual","136.35499984957278","","","","Images/NewTrialBC.png","37"
"image-keyboard-response","459","2299681","0.0-4.0-1.146","15","Low_HMMActual","null","","","","Images/BlackBeadChoice.png","null"
"image-keyboard-response","460","2300383","0.0-4.0-2.146","15","Low_HMMActual","null","","","","Images/BlackBeadChoiceWrong.png","null"
"image-keyboard-response","461","2300471","0.0-4.0-0.147","15","Low_HMMActual","87.31000008992851","","","","Images/NewTrialWC.png","37"
"image-keyboard-response","462","2300873","0.0-4.0-1.147","15","Low_HMMActual","null","","","","Images/BlackBeadChoice.png","null"
"image-keyboard-response","463","2301575","0.0-4.0-2.147","15","Low_HMMActual","null","","","","Images/BlackBeadChoiceCorrect.png","null"
"image-keyboard-response","464","2301687","0.0-4.0-0.148","15","Low_HMMActual","110.92000012286007","","","","Images/NewTrialBC.png","37"
"image-keyboard-response","465","2302089","0.0-4.0-1.148","15","Low_HMMActual","null","","","","Images/BlackBeadChoice.png","null"
"image-keyboard-response","466","2302790","0.0-4.0-2.148","15","Low_HMMActual","null","","","","Images/BlackBeadChoiceCorrect.png","null"
"image-keyboard-response","467","2302991","0.0-4.0-0.149","15","Low_HMMActual","200.4949999973178","","","","Images/NewTrialBC.png","37"
"image-keyboard-response","468","2303392","0.0-4.0-1.149","15","Low_HMMActual","null","","","","Images/BlackBeadChoice.png","null"
"image-keyboard-response","469","2304094","0.0-4.0-2.149","15","Low_HMMActual","null","","","","Images/BlackBeadChoiceCorrect.png","null"
"image-keyboard-response","470","2304231","0.0-4.0-0.150","15","Low_HMMActual","136.5300000179559","","","","Images/NewTrialBC.png","37"
"image-keyboard-response","471","2304632","0.0-4.0-1.150","15","Low_HMMActual","null","","","","Images/BlackBeadChoice.png","null"
"image-keyboard-response","472","2305334","0.0-4.0-2.150","15","Low_HMMActual","null","","","","Images/BlackBeadChoiceCorrect.png","null"
"image-keyboard-response","473","2305623","0.0-4.0-0.151","15","Low_HMMActual","288.6299998499453","","","","Images/NewTrialBC.png","37"
"image-keyboard-response","474","2306025","0.0-4.0-1.151","15","Low_HMMActual","null","","","","Images/BlackBeadChoice.png","null"
"image-keyboard-response","475","2306727","0.0-4.0-2.151","15","Low_HMMActual","null","","","","Images/BlackBeadChoiceCorrect.png","null"
"image-keyboard-response","476","2307047","0.0-4.0-0.152","15","Low_HMMActual","319.73999994806945","","","","Images/NewTrialBC.png","39"
"image-keyboard-response","477","2307449","0.0-4.0-1.152","15","Low_HMMActual","null","","","","Images/WhiteBeadChoice.png","null"
"image-keyboard-response","478","2308151","0.0-4.0-2.152","15","Low_HMMActual","null","","","","Images/WhiteBeadChoiceWrong.png","null"
"image-keyboard-response","479","2308503","0.0-4.0-0.153","15","Low_HMMActual","351.2250001076609","","","","Images/NewTrialBC.png","37"
"image-keyboard-response","480","2308904","0.0-4.0-1.153","15","Low_HMMActual","null","","","","Images/BlackBeadChoice.png","null"
"image-keyboard-response","481","2309606","0.0-4.0-2.153","15","Low_HMMActual","null","","","","Images/BlackBeadChoiceCorrect.png","null"
"image-keyboard-response","482","2309935","0.0-4.0-0.154","15","Low_HMMActual","328.6199998110533","","","","Images/NewTrialBC.png","37"
"image-keyboard-response","483","2310337","0.0-4.0-1.154","15","Low_HMMActual","null","","","","Images/BlackBeadChoice.png","null"
"image-keyboard-response","484","2311039","0.0-4.0-2.154","15","Low_HMMActual","null","","","","Images/BlackBeadChoiceCorrect.png","null"
"image-keyboard-response","485","2311335","0.0-4.0-0.155","15","Low_HMMActual","295.9449999034405","","","","Images/NewTrialBC.png","39"
"image-keyboard-response","486","2311737","0.0-4.0-1.155","15","Low_HMMActual","null","","","","Images/WhiteBeadChoice.png","null"
"image-keyboard-response","487","2312439","0.0-4.0-2.155","15","Low_HMMActual","null","","","","Images/WhiteBeadChoiceCorrect.png","null"
"image-keyboard-response","488","2312991","0.0-4.0-0.156","15","Low_HMMActual","551.465000025928","","","","Images/NewTrialWC.png","37"
"image-keyboard-response","489","2313394","0.0-4.0-1.156","15","Low_HMMActual","null","","","","Images/BlackBeadChoice.png","null"
"image-keyboard-response","490","2314095","0.0-4.0-2.156","15","Low_HMMActual","null","","","","Images/BlackBeadChoiceCorrect.png","null"
"image-keyboard-response","491","2314439","0.0-4.0-0.157","15","Low_HMMActual","343.010000186041","","","","Images/NewTrialBC.png","37"
"image-keyboard-response","492","2314841","0.0-4.0-1.157","15","Low_HMMActual","null","","","","Images/BlackBeadChoice.png","null"
"image-keyboard-response","493","2315542","0.0-4.0-2.157","15","Low_HMMActual","null","","","","Images/BlackBeadChoiceCorrect.png","null"
"image-keyboard-response","494","2315903","0.0-4.0-0.158","15","Low_HMMActual","360.47499999403954","","","","Images/NewTrialBC.png","37"
"image-keyboard-response","495","2316305","0.0-4.0-1.158","15","Low_HMMActual","null","","","","Images/BlackBeadChoice.png","null"
"image-keyboard-response","496","2317007","0.0-4.0-2.158","15","Low_HMMActual","null","","","","Images/BlackBeadChoiceWrong.png","null"
"image-keyboard-response","497","2317367","0.0-4.0-0.159","15","Low_HMMActual","359.82499993406236","","","","Images/NewTrialWC.png","37"
"image-keyboard-response","498","2317769","0.0-4.0-1.159","15","Low_HMMActual","null","","","","Images/BlackBeadChoice.png","null"
"image-keyboard-response","499","2318471","0.0-4.0-2.159","15","Low_HMMActual","null","","","","Images/BlackBeadChoiceCorrect.png","null"
"image-keyboard-response","500","2318711","0.0-4.0-0.160","15","Low_HMMActual","239.49500010348856","","","","Images/NewTrialBC.png","37"
"image-keyboard-response","501","2319113","0.0-4.0-1.160","15","Low_HMMActual","null","","","","Images/BlackBeadChoice.png","null"
"image-keyboard-response","502","2319814","0.0-4.0-2.160","15","Low_HMMActual","null","","","","Images/BlackBeadChoiceCorrect.png","null"
"image-keyboard-response","503","2320055","0.0-4.0-0.161","15","Low_HMMActual","240.08999997749925","","","","Images/NewTrialBC.png","37"
"image-keyboard-response","504","2320457","0.0-4.0-1.161","15","Low_HMMActual","null","","","","Images/BlackBeadChoice.png","null"
"image-keyboard-response","505","2321159","0.0-4.0-2.161","15","Low_HMMActual","null","","","","Images/BlackBeadChoiceCorrect.png","null"
"image-keyboard-response","506","2321320","0.0-4.0-0.162","15","Low_HMMActual","159.58500001579523","","","","Images/NewTrialBC.png","39"
"image-keyboard-response","507","2321722","0.0-4.0-1.162","15","Low_HMMActual","null","","","","Images/WhiteBeadChoice.png","null"
"image-keyboard-response","508","2322422","0.0-4.0-2.162","15","Low_HMMActual","null","","","","Images/WhiteBeadChoiceWrong.png","null"
"image-keyboard-response","509","2322703","0.0-4.0-0.163","15","Low_HMMActual","279.98999995179474","","","","Images/NewTrialBC.png","37"
"image-keyboard-response","510","2323105","0.0-4.0-1.163","15","Low_HMMActual","null","","","","Images/BlackBeadChoice.png","null"
"image-keyboard-response","511","2323807","0.0-4.0-2.163","15","Low_HMMActual","null","","","","Images/BlackBeadChoiceCorrect.png","null"
"image-keyboard-response","512","2324175","0.0-4.0-0.164","15","Low_HMMActual","367.94500006362796","","","","Images/NewTrialBC.png","37"
"image-keyboard-response","513","2324578","0.0-4.0-1.164","15","Low_HMMActual","null","","","","Images/BlackBeadChoice.png","null"
"image-keyboard-response","514","2325280","0.0-4.0-2.164","15","Low_HMMActual","null","","","","Images/BlackBeadChoiceCorrect.png","null"
"image-keyboard-response","515","2325520","0.0-4.0-0.165","15","Low_HMMActual","238.75999986194074","","","","Images/NewTrialBC.png","37"
"image-keyboard-response","516","2325921","0.0-4.0-1.165","15","Low_HMMActual","null","","","","Images/BlackBeadChoice.png","null"
"image-keyboard-response","517","2326622","0.0-4.0-2.165","15","Low_HMMActual","null","","","","Images/BlackBeadChoiceWrong.png","null"
"image-keyboard-response","518","2326863","0.0-4.0-0.166","15","Low_HMMActual","239.934999961406","","","","Images/NewTrialWC.png","37"
"image-keyboard-response","519","2327264","0.0-4.0-1.166","15","Low_HMMActual","null","","","","Images/BlackBeadChoice.png","null"
"image-keyboard-response","520","2327966","0.0-4.0-2.166","15","Low_HMMActual","206.5099999308586","","","","Images/BlackBeadChoiceCorrect.png","37"
"image-keyboard-response","521","2328263","0.0-4.0-0.167","15","Low_HMMActual","296.9199998769909","","","","Images/NewTrialBC.png","37"
"image-keyboard-response","522","2328665","0.0-4.0-1.167","15","Low_HMMActual","null","","","","Images/BlackBeadChoice.png","null"
"image-keyboard-response","523","2329367","0.0-4.0-2.167","15","Low_HMMActual","null","","","","Images/BlackBeadChoiceWrong.png","null"
"image-keyboard-response","524","2329575","0.0-4.0-0.168","15","Low_HMMActual","207.42499991320074","","","","Images/NewTrialWC.png","37"
"image-keyboard-response","525","2329977","0.0-4.0-1.168","15","Low_HMMActual","null","","","","Images/BlackBeadChoice.png","null"
"image-keyboard-response","526","2330679","0.0-4.0-2.168","15","Low_HMMActual","null","","","","Images/BlackBeadChoiceCorrect.png","null"
"image-keyboard-response","527","2330911","0.0-4.0-0.169","15","Low_HMMActual","231.79999995045364","","","","Images/NewTrialBC.png","37"
"image-keyboard-response","528","2331313","0.0-4.0-1.169","15","Low_HMMActual","null","","","","Images/BlackBeadChoice.png","null"
"image-keyboard-response","529","2332014","0.0-4.0-2.169","15","Low_HMMActual","582.1050000376999","","","","Images/BlackBeadChoiceCorrect.png","37"
"image-keyboard-response","530","2332223","0.0-4.0-0.170","15","Low_HMMActual","208.4949999116361","","","","Images/NewTrialBC.png","37"
"image-keyboard-response","531","2332625","0.0-4.0-1.170","15","Low_HMMActual","null","","","","Images/BlackBeadChoice.png","null"
"image-keyboard-response","532","2333327","0.0-4.0-2.170","15","Low_HMMActual","null","","","","Images/BlackBeadChoiceCorrect.png","null"
"image-keyboard-response","533","2333407","0.0-4.0-0.171","15","Low_HMMActual","78.80999986082315","","","","Images/NewTrialBC.png","37"
"image-keyboard-response","534","2333808","0.0-4.0-1.171","15","Low_HMMActual","null","","","","Images/BlackBeadChoice.png","null"
"image-keyboard-response","535","2334510","0.0-4.0-2.171","15","Low_HMMActual","null","","","","Images/BlackBeadChoiceCorrect.png","null"
"image-keyboard-response","536","2334807","0.0-4.0-0.172","15","Low_HMMActual","295.9300000220537","","","","Images/NewTrialBC.png","37"
"image-keyboard-response","537","2335210","0.0-4.0-1.172","15","Low_HMMActual","null","","","","Images/BlackBeadChoice.png","null"
"image-keyboard-response","538","2335911","0.0-4.0-2.172","15","Low_HMMActual","null","","","","Images/BlackBeadChoiceCorrect.png","null"
"image-keyboard-response","539","2336135","0.0-4.0-0.173","15","Low_HMMActual","223.23000011965632","","","","Images/NewTrialBC.png","37"
"image-keyboard-response","540","2336537","0.0-4.0-1.173","15","Low_HMMActual","null","","","","Images/BlackBeadChoice.png","null"
"image-keyboard-response","541","2337238","0.0-4.0-2.173","15","Low_HMMActual","null","","","","Images/BlackBeadChoiceCorrect.png","null"
"image-keyboard-response","542","2337367","0.0-4.0-0.174","15","Low_HMMActual","128.13499988988042","","","","Images/NewTrialBC.png","37"
"image-keyboard-response","543","2337769","0.0-4.0-1.174","15","Low_HMMActual","null","","","","Images/BlackBeadChoice.png","null"
"image-keyboard-response","544","2338470","0.0-4.0-2.174","15","Low_HMMActual","null","","","","Images/BlackBeadChoiceCorrect.png","null"
"image-keyboard-response","545","2338655","0.0-4.0-0.175","15","Low_HMMActual","184.88000007346272","","","","Images/NewTrialBC.png","37"
"image-keyboard-response","546","2339057","0.0-4.0-1.175","15","Low_HMMActual","null","","","","Images/BlackBeadChoice.png","null"
"image-keyboard-response","547","2339759","0.0-4.0-2.175","15","Low_HMMActual","null","","","","Images/BlackBeadChoiceCorrect.png","null"
"image-keyboard-response","548","2339911","0.0-4.0-0.176","15","Low_HMMActual","152.07999991253018","","","","Images/NewTrialBC.png","37"
"image-keyboard-response","549","2340312","0.0-4.0-1.176","15","Low_HMMActual","null","","","","Images/BlackBeadChoice.png","null"
"image-keyboard-response","550","2341014","0.0-4.0-2.176","15","Low_HMMActual","null","","","","Images/BlackBeadChoiceCorrect.png","null"
"image-keyboard-response","551","2341311","0.0-4.0-0.177","15","Low_HMMActual","296.305000083521","","","","Images/NewTrialBC.png","37"
"image-keyboard-response","552","2341713","0.0-4.0-1.177","15","Low_HMMActual","null","","","","Images/BlackBeadChoice.png","null"
"image-keyboard-response","553","2342415","0.0-4.0-2.177","15","Low_HMMActual","445.80499990843236","","","","Images/BlackBeadChoiceCorrect.png","37"
"image-keyboard-response","554","2342527","0.0-4.0-0.178","15","Low_HMMActual","111.74999992363155","","","","Images/NewTrialBC.png","37"
"image-keyboard-response","555","2342929","0.0-4.0-1.178","15","Low_HMMActual","215.3099998831749","","","","Images/BlackBeadChoice.png","37"
"image-keyboard-response","556","2343631","0.0-4.0-2.178","15","Low_HMMActual","null","","","","Images/BlackBeadChoiceCorrect.png","null"
"image-keyboard-response","557","2343719","0.0-4.0-0.179","15","Low_HMMActual","87.39999984391034","","","","Images/NewTrialBC.png","37"
"image-keyboard-response","558","2344121","0.0-4.0-1.179","15","Low_HMMActual","null","","","","Images/BlackBeadChoice.png","null"
"image-keyboard-response","559","2344823","0.0-4.0-2.179","15","Low_HMMActual","null","","","","Images/BlackBeadChoiceWrong.png","null"
"image-keyboard-response","560","2345255","0.0-4.0-0.180","15","Low_HMMActual","431.41499999910593","","","","Images/NewTrialWC.png","37"
"image-keyboard-response","561","2345656","0.0-4.0-1.180","15","Low_HMMActual","null","","","","Images/BlackBeadChoice.png","null"
"image-keyboard-response","562","2346358","0.0-4.0-2.180","15","Low_HMMActual","null","","","","Images/BlackBeadChoiceCorrect.png","null"
"image-keyboard-response","563","2346575","0.0-4.0-0.181","15","Low_HMMActual","215.48500005155802","","","","Images/NewTrialBC.png","37"
"image-keyboard-response","564","2346976","0.0-4.0-1.181","15","Low_HMMActual","null","","","","Images/BlackBeadChoice.png","null"
"image-keyboard-response","565","2347678","0.0-4.0-2.181","15","Low_HMMActual","null","","","","Images/BlackBeadChoiceWrong.png","null"
"image-keyboard-response","566","2347919","0.0-4.0-0.182","15","Low_HMMActual","240.3949999716133","","","","Images/NewTrialWC.png","37"
"image-keyboard-response","567","2348321","0.0-4.0-1.182","15","Low_HMMActual","null","","","","Images/BlackBeadChoice.png","null"
"image-keyboard-response","568","2349022","0.0-4.0-2.182","15","Low_HMMActual","null","","","","Images/BlackBeadChoiceWrong.png","null"
"image-keyboard-response","569","2349287","0.0-4.0-0.183","15","Low_HMMActual","264.1250002197921","","","","Images/NewTrialWC.png","37"
"image-keyboard-response","570","2349689","0.0-4.0-1.183","15","Low_HMMActual","null","","","","Images/BlackBeadChoice.png","null"
"image-keyboard-response","571","2350391","0.0-4.0-2.183","15","Low_HMMActual","null","","","","Images/BlackBeadChoiceWrong.png","null"
"image-keyboard-response","572","2350639","0.0-4.0-0.184","15","Low_HMMActual","247.02999996952713","","","","Images/NewTrialWC.png","37"
"image-keyboard-response","573","2351040","0.0-4.0-1.184","15","Low_HMMActual","null","","","","Images/BlackBeadChoice.png","null"
"image-keyboard-response","574","2351743","0.0-4.0-2.184","15","Low_HMMActual","null","","","","Images/BlackBeadChoiceCorrect.png","null"
"image-keyboard-response","575","2351871","0.0-4.0-0.185","15","Low_HMMActual","127.91500007733703","","","","Images/NewTrialBC.png","37"
"image-keyboard-response","576","2352272","0.0-4.0-1.185","15","Low_HMMActual","null","","","","Images/BlackBeadChoice.png","null"
"image-keyboard-response","577","2352974","0.0-4.0-2.185","15","Low_HMMActual","null","","","","Images/BlackBeadChoiceWrong.png","null"
"image-keyboard-response","578","2352975","0.0-4.0-0.186","15","Low_HMMActual","0.11999998241662979","","","","Images/NewTrialWC.png","37"
"image-keyboard-response","579","2353376","0.0-4.0-1.186","15","Low_HMMActual","303.7250000052154","","","","Images/BlackBeadChoice.png","37"
"image-keyboard-response","580","2354078","0.0-4.0-2.186","15","Low_HMMActual","565.7899999059737","","","","Images/BlackBeadChoiceWrong.png","37"
"image-keyboard-response","581","2354231","0.0-4.0-0.187","15","Low_HMMActual","151.91000001505017","","","","Images/NewTrialWC.png","37"
"image-keyboard-response","582","2354634","0.0-4.0-1.187","15","Low_HMMActual","271.39999996870756","","","","Images/BlackBeadChoice.png","37"
"image-keyboard-response","583","2355335","0.0-4.0-2.187","15","Low_HMMActual","132.92000000365078","","","","Images/BlackBeadChoiceCorrect.png","37"
"image-keyboard-response","584","2355551","0.0-4.0-0.188","15","Low_HMMActual","214.6399999037385","","","","Images/NewTrialBC.png","37"
"image-keyboard-response","585","2355954","0.0-4.0-1.188","15","Low_HMMActual","335.6049999129027","","","","Images/BlackBeadChoice.png","37"
"image-keyboard-response","586","2356655","0.0-4.0-2.188","15","Low_HMMActual","324.79500002227724","","","","Images/BlackBeadChoiceWrong.png","37"
"image-keyboard-response","587","2356911","0.0-4.0-0.189","15","Low_HMMActual","255.2249999716878","","","","Images/NewTrialWC.png","37"
"image-keyboard-response","588","2357313","0.0-4.0-1.189","15","Low_HMMActual","295.4599999357015","","","","Images/BlackBeadChoice.png","37"
"image-keyboard-response","589","2358014","0.0-4.0-2.189","15","Low_HMMActual","269.31499992497265","","","","Images/BlackBeadChoiceWrong.png","37"
"image-keyboard-response","590","2358263","0.0-4.0-0.190","15","Low_HMMActual","247.66999995335937","","","","Images/NewTrialWC.png","37"
"image-keyboard-response","591","2358664","0.0-4.0-1.190","15","Low_HMMActual","null","","","","Images/BlackBeadChoice.png","null"
"image-keyboard-response","592","2359366","0.0-4.0-2.190","15","Low_HMMActual","null","","","","Images/BlackBeadChoiceCorrect.png","null"
"image-keyboard-response","593","2359703","0.0-4.0-0.191","15","Low_HMMActual","336.60499984398484","","","","Images/NewTrialBC.png","37"
"image-keyboard-response","594","2360104","0.0-4.0-1.191","15","Low_HMMActual","null","","","","Images/BlackBeadChoice.png","null"
"image-keyboard-response","595","2360806","0.0-4.0-2.191","15","Low_HMMActual","null","","","","Images/BlackBeadChoiceWrong.png","null"
"image-keyboard-response","596","2360839","0.0-4.0-0.192","15","Low_HMMActual","31.829999992623925","","","","Images/NewTrialWC.png","37"
"image-keyboard-response","597","2361240","0.0-4.0-1.192","15","Low_HMMActual","null","","","","Images/BlackBeadChoice.png","null"
"image-keyboard-response","598","2361942","0.0-4.0-2.192","15","Low_HMMActual","null","","","","Images/BlackBeadChoiceWrong.png","null"
"image-keyboard-response","599","2362207","0.0-4.0-0.193","15","Low_HMMActual","264.4750000908971","","","","Images/NewTrialWC.png","37"
"image-keyboard-response","600","2362609","0.0-4.0-1.193","15","Low_HMMActual","null","","","","Images/BlackBeadChoice.png","null"
"image-keyboard-response","601","2363310","0.0-4.0-2.193","15","Low_HMMActual","null","","","","Images/BlackBeadChoiceWrong.png","null"
"image-keyboard-response","602","2363575","0.0-4.0-0.194","15","Low_HMMActual","264.16499982587993","","","","Images/NewTrialWC.png","37"
"image-keyboard-response","603","2363977","0.0-4.0-1.194","15","Low_HMMActual","null","","","","Images/BlackBeadChoice.png","null"
"image-keyboard-response","604","2364678","0.0-4.0-2.194","15","Low_HMMActual","null","","","","Images/BlackBeadChoiceWrong.png","null"
"image-keyboard-response","605","2364903","0.0-4.0-0.195","15","Low_HMMActual","224.2099998984486","","","","Images/NewTrialWC.png","39"
"image-keyboard-response","606","2365304","0.0-4.0-1.195","15","Low_HMMActual","null","","","","Images/WhiteBeadChoice.png","null"
"image-keyboard-response","607","2366006","0.0-4.0-2.195","15","Low_HMMActual","null","","","","Images/WhiteBeadChoiceCorrect.png","null"
"image-keyboard-response","608","2366279","0.0-4.0-0.196","15","Low_HMMActual","272.7900000754744","","","","Images/NewTrialWC.png","39"
"image-keyboard-response","609","2366681","0.0-4.0-1.196","15","Low_HMMActual","null","","","","Images/WhiteBeadChoice.png","null"
"image-keyboard-response","610","2367383","0.0-4.0-2.196","15","Low_HMMActual","null","","","","Images/WhiteBeadChoiceCorrect.png","null"
"image-keyboard-response","611","2367663","0.0-4.0-0.197","15","Low_HMMActual","279.2249999474734","","","","Images/NewTrialWC.png","39"
"image-keyboard-response","612","2368065","0.0-4.0-1.197","15","Low_HMMActual","null","","","","Images/WhiteBeadChoice.png","null"
"image-keyboard-response","613","2368766","0.0-4.0-2.197","15","Low_HMMActual","null","","","","Images/WhiteBeadChoiceCorrect.png","null"
"image-keyboard-response","614","2368935","0.0-4.0-0.198","15","Low_HMMActual","168.12999988906085","","","","Images/NewTrialWC.png","39"
"image-keyboard-response","615","2369336","0.0-4.0-1.198","15","Low_HMMActual","null","","","","Images/WhiteBeadChoice.png","null"
"image-keyboard-response","616","2370038","0.0-4.0-2.198","15","Low_HMMActual","null","","","","Images/WhiteBeadChoiceCorrect.png","null"
"image-keyboard-response","617","2370087","0.0-4.0-0.199","15","Low_HMMActual","47.68999991938472","","","","Images/NewTrialWC.png","39"
"image-keyboard-response","618","2370488","0.0-4.0-1.199","15","Low_HMMActual","null","","","","Images/WhiteBeadChoice.png","null"
"image-keyboard-response","619","2371189","0.0-4.0-2.199","15","Low_HMMActual","null","","","","Images/WhiteBeadChoiceCorrect.png","null"
"image-keyboard-response","620","2371375","0.0-4.0-0.200","15","Low_HMMActual","185.08500000461936","","","","Images/NewTrialWC.png","39"
"image-keyboard-response","621","2371776","0.0-4.0-1.200","15","Low_HMMActual","null","","","","Images/WhiteBeadChoice.png","null"
"image-keyboard-response","622","2372478","0.0-4.0-2.200","15","Low_HMMActual","null","","","","Images/WhiteBeadChoiceCorrect.png","null"
"image-keyboard-response","623","2372495","0.0-4.0-0.201","15","Low_HMMActual","16.300000017508864","","","","Images/NewTrialWC.png","39"
"image-keyboard-response","624","2372896","0.0-4.0-1.201","15","Low_HMMActual","null","","","","Images/WhiteBeadChoice.png","null"
"image-keyboard-response","625","2373598","0.0-4.0-2.201","15","Low_HMMActual","null","","","","Images/WhiteBeadChoiceCorrect.png","null"
"image-keyboard-response","626","2373647","0.0-4.0-0.202","15","Low_HMMActual","48.26500010676682","","","","Images/NewTrialWC.png","39"
"image-keyboard-response","627","2374048","0.0-4.0-1.202","15","Low_HMMActual","null","","","","Images/WhiteBeadChoice.png","null"
"image-keyboard-response","628","2374750","0.0-4.0-2.202","15","Low_HMMActual","630.8850001078099","","","","Images/WhiteBeadChoiceCorrect.png","39"
"image-keyboard-response","629","2375167","0.0-4.0-0.203","15","Low_HMMActual","416.7400000151247","","","","Images/NewTrialWC.png","39"
"image-keyboard-response","630","2375569","0.0-4.0-1.203","15","Low_HMMActual","null","","","","Images/WhiteBeadChoice.png","null"
"image-keyboard-response","631","2376270","0.0-4.0-2.203","15","Low_HMMActual","null","","","","Images/WhiteBeadChoiceCorrect.png","null"
"image-keyboard-response","632","2376503","0.0-4.0-0.204","15","Low_HMMActual","232.16999997384846","","","","Images/NewTrialWC.png","39"
"image-keyboard-response","633","2376904","0.0-4.0-1.204","15","Low_HMMActual","null","","","","Images/WhiteBeadChoice.png","null"
"image-keyboard-response","634","2377606","0.0-4.0-2.204","15","Low_HMMActual","621.955000096932","","","","Images/WhiteBeadChoiceCorrect.png","39"
"image-keyboard-response","635","2377895","0.0-4.0-0.205","15","Low_HMMActual","288.17000007256866","","","","Images/NewTrialWC.png","39"
"image-keyboard-response","636","2378296","0.0-4.0-1.205","15","Low_HMMActual","null","","","","Images/WhiteBeadChoice.png","null"
"image-keyboard-response","637","2378997","0.0-4.0-2.205","15","Low_HMMActual","null","","","","Images/WhiteBeadChoiceCorrect.png","null"
"image-keyboard-response","638","2379247","0.0-4.0-0.206","15","Low_HMMActual","249.15500008501112","","","","Images/NewTrialWC.png","39"
"image-keyboard-response","639","2379649","0.0-4.0-1.206","15","Low_HMMActual","null","","","","Images/WhiteBeadChoice.png","null"
"image-keyboard-response","640","2380350","0.0-4.0-2.206","15","Low_HMMActual","null","","","","Images/WhiteBeadChoiceCorrect.png","null"
"image-keyboard-response","641","2380423","0.0-4.0-0.207","15","Low_HMMActual","72.63999991118908","","","","Images/NewTrialWC.png","39"
"image-keyboard-response","642","2380825","0.0-4.0-1.207","15","Low_HMMActual","null","","","","Images/WhiteBeadChoice.png","null"
"image-keyboard-response","643","2381526","0.0-4.0-2.207","15","Low_HMMActual","null","","","","Images/WhiteBeadChoiceCorrect.png","null"
"image-keyboard-response","644","2381671","0.0-4.0-0.208","15","Low_HMMActual","143.404999980703","","","","Images/NewTrialWC.png","39"
"image-keyboard-response","645","2382073","0.0-4.0-1.208","15","Low_HMMActual","null","","","","Images/WhiteBeadChoice.png","null"
"image-keyboard-response","646","2382774","0.0-4.0-2.208","15","Low_HMMActual","null","","","","Images/WhiteBeadChoiceWrong.png","null"
"image-keyboard-response","647","2383591","0.0-4.0-0.209","15","Low_HMMActual","816.4550000801682","","","","Images/NewTrialBC.png","37"
"image-keyboard-response","648","2383993","0.0-4.0-1.209","15","Low_HMMActual","null","","","","Images/BlackBeadChoice.png","null"
"image-keyboard-response","649","2384694","0.0-4.0-2.209","15","Low_HMMActual","525.7149999961257","","","","Images/BlackBeadChoiceCorrect.png","37"
"image-keyboard-response","650","2385023","0.0-4.0-0.210","15","Low_HMMActual","327.7400000952184","","","","Images/NewTrialBC.png","37"
"image-keyboard-response","651","2385425","0.0-4.0-1.210","15","Low_HMMActual","null","","","","Images/BlackBeadChoice.png","null"
"image-keyboard-response","652","2386126","0.0-4.0-2.210","15","Low_HMMActual","null","","","","Images/BlackBeadChoiceWrong.png","null"
"image-keyboard-response","653","2386535","0.0-4.0-0.211","15","Low_HMMActual","408.0650000832975","","","","Images/NewTrialWC.png","37"
"image-keyboard-response","654","2386937","0.0-4.0-1.211","15","Low_HMMActual","null","","","","Images/BlackBeadChoice.png","null"
"image-keyboard-response","655","2387638","0.0-4.0-2.211","15","Low_HMMActual","null","","","","Images/BlackBeadChoiceCorrect.png","null"
"image-keyboard-response","656","2387935","0.0-4.0-0.212","15","Low_HMMActual","296.1200000718236","","","","Images/NewTrialBC.png","37"
"image-keyboard-response","657","2388336","0.0-4.0-1.212","15","Low_HMMActual","null","","","","Images/BlackBeadChoice.png","null"
"image-keyboard-response","658","2389038","0.0-4.0-2.212","15","Low_HMMActual","null","","","","Images/BlackBeadChoiceWrong.png","null"
"image-keyboard-response","659","2389303","0.0-4.0-0.213","15","Low_HMMActual","263.71499989181757","","","","Images/NewTrialWC.png","39"
"image-keyboard-response","660","2389704","0.0-4.0-1.213","15","Low_HMMActual","null","","","","Images/WhiteBeadChoice.png","null"
"image-keyboard-response","661","2390406","0.0-4.0-2.213","15","Low_HMMActual","null","","","","Images/WhiteBeadChoiceWrong.png","null"
"image-keyboard-response","662","2390431","0.0-4.0-0.214","15","Low_HMMActual","24.449999909847975","","","","Images/NewTrialBC.png","37"
"image-keyboard-response","663","2390832","0.0-4.0-1.214","15","Low_HMMActual","null","","","","Images/BlackBeadChoice.png","null"
"image-keyboard-response","664","2391534","0.0-4.0-2.214","15","Low_HMMActual","null","","","","Images/BlackBeadChoiceWrong.png","null"
"image-keyboard-response","665","2391743","0.0-4.0-0.215","15","Low_HMMActual","208.69500003755093","","","","Images/NewTrialWC.png","37"
"image-keyboard-response","666","2392144","0.0-4.0-1.215","15","Low_HMMActual","null","","","","Images/BlackBeadChoice.png","null"
"image-keyboard-response","667","2392846","0.0-4.0-2.215","15","Low_HMMActual","null","","","","Images/BlackBeadChoiceWrong.png","null"
"image-keyboard-response","668","2392999","0.0-4.0-0.216","15","Low_HMMActual","152.10000006482005","","","","Images/NewTrialWC.png","39"
"image-keyboard-response","669","2393400","0.0-4.0-1.216","15","Low_HMMActual","null","","","","Images/WhiteBeadChoice.png","null"
"image-keyboard-response","670","2394102","0.0-4.0-2.216","15","Low_HMMActual","null","","","","Images/WhiteBeadChoiceCorrect.png","null"
"image-keyboard-response","671","2394487","0.0-4.0-0.217","15","Low_HMMActual","383.94500012509525","","","","Images/NewTrialWC.png","39"
"image-keyboard-response","672","2394889","0.0-4.0-1.217","15","Low_HMMActual","null","","","","Images/WhiteBeadChoice.png","null"
"image-keyboard-response","673","2395591","0.0-4.0-2.217","15","Low_HMMActual","null","","","","Images/WhiteBeadChoiceCorrect.png","null"
"image-keyboard-response","674","2396031","0.0-4.0-0.218","15","Low_HMMActual","439.6149998065084","","","","Images/NewTrialWC.png","39"
"image-keyboard-response","675","2396433","0.0-4.0-1.218","15","Low_HMMActual","null","","","","Images/WhiteBeadChoice.png","null"
"image-keyboard-response","676","2397135","0.0-4.0-2.218","15","Low_HMMActual","null","","","","Images/WhiteBeadChoiceCorrect.png","null"
"image-keyboard-response","677","2397303","0.0-4.0-0.219","15","Low_HMMActual","167.54000005312264","","","","Images/NewTrialWC.png","39"
"image-keyboard-response","678","2397705","0.0-4.0-1.219","15","Low_HMMActual","null","","","","Images/WhiteBeadChoice.png","null"
"image-keyboard-response","679","2398406","0.0-4.0-2.219","15","Low_HMMActual","null","","","","Images/WhiteBeadChoiceCorrect.png","null"
"image-keyboard-response","680","2398503","0.0-4.0-0.220","15","Low_HMMActual","95.97499994561076","","","","Images/NewTrialWC.png","39"
"image-keyboard-response","681","2398905","0.0-4.0-1.220","15","Low_HMMActual","null","","","","Images/WhiteBeadChoice.png","null"
"image-keyboard-response","682","2399606","0.0-4.0-2.220","15","Low_HMMActual","null","","","","Images/WhiteBeadChoiceCorrect.png","null"
"image-keyboard-response","683","2399711","0.0-4.0-0.221","15","Low_HMMActual","103.94500009715557","","","","Images/NewTrialWC.png","39"
"image-keyboard-response","684","2400112","0.0-4.0-1.221","15","Low_HMMActual","null","","","","Images/WhiteBeadChoice.png","null"
"image-keyboard-response","685","2400813","0.0-4.0-2.221","15","Low_HMMActual","630.4000001400709","","","","Images/WhiteBeadChoiceCorrect.png","39"
"image-keyboard-response","686","2401135","0.0-4.0-0.222","15","Low_HMMActual","320.5299999099225","","","","Images/NewTrialWC.png","39"
"image-keyboard-response","687","2401536","0.0-4.0-1.222","15","Low_HMMActual","null","","","","Images/WhiteBeadChoice.png","null"
"image-keyboard-response","688","2402237","0.0-4.0-2.222","15","Low_HMMActual","null","","","","Images/WhiteBeadChoiceCorrect.png","null"
"image-keyboard-response","689","2402303","0.0-4.0-0.223","15","Low_HMMActual","64.49000001884997","","","","Images/NewTrialWC.png","39"
"image-keyboard-response","690","2402704","0.0-4.0-1.223","15","Low_HMMActual","null","","","","Images/WhiteBeadChoice.png","null"
"image-keyboard-response","691","2403406","0.0-4.0-2.223","15","Low_HMMActual","null","","","","Images/WhiteBeadChoiceCorrect.png","null"
"image-keyboard-response","692","2403407","0.0-4.0-0.224","15","Low_HMMActual","0.1550000160932541","","","","Images/NewTrialWC.png","39"
"image-keyboard-response","693","2403809","0.0-4.0-1.224","15","Low_HMMActual","null","","","","Images/WhiteBeadChoice.png","null"
"image-keyboard-response","694","2404510","0.0-4.0-2.224","15","Low_HMMActual","null","","","","Images/WhiteBeadChoiceWrong.png","null"
"image-keyboard-response","695","2404567","0.0-4.0-0.225","15","Low_HMMActual","56.22999998740852","","","","Images/NewTrialBC.png","37"
"image-keyboard-response","696","2404969","0.0-4.0-1.225","15","Low_HMMActual","null","","","","Images/BlackBeadChoice.png","null"
"image-keyboard-response","697","2405671","0.0-4.0-2.225","15","Low_HMMActual","null","","","","Images/BlackBeadChoiceCorrect.png","null"
"image-keyboard-response","698","2405959","0.0-4.0-0.226","15","Low_HMMActual","287.3700000345707","","","","Images/NewTrialBC.png","37"
"image-keyboard-response","699","2406361","0.0-4.0-1.226","15","Low_HMMActual","null","","","","Images/BlackBeadChoice.png","null"
"image-keyboard-response","700","2407062","0.0-4.0-2.226","15","Low_HMMActual","null","","","","Images/BlackBeadChoiceWrong.png","null"
"image-keyboard-response","701","2407168","0.0-4.0-0.227","15","Low_HMMActual","104.67500006780028","","","","Images/NewTrialWC.png","39"
"image-keyboard-response","702","2407570","0.0-4.0-1.227","15","Low_HMMActual","null","","","","Images/WhiteBeadChoice.png","null"
"image-keyboard-response","703","2408271","0.0-4.0-2.227","15","Low_HMMActual","null","","","","Images/WhiteBeadChoiceCorrect.png","null"
"image-keyboard-response","704","2408479","0.0-4.0-0.228","15","Low_HMMActual","207.32499985024333","","","","Images/NewTrialWC.png","39"
"image-keyboard-response","705","2408881","0.0-4.0-1.228","15","Low_HMMActual","null","","","","Images/WhiteBeadChoice.png","null"
"image-keyboard-response","706","2409582","0.0-4.0-2.228","15","Low_HMMActual","null","","","","Images/WhiteBeadChoiceCorrect.png","null"
"image-keyboard-response","707","2413430","0.0-4.0-0.229","15","Low_HMMActual","3848.4100000932813","","","","Images/NewTrialWC.png","39"
"image-keyboard-response","708","2413831","0.0-4.0-1.229","15","Low_HMMActual","null","","","","Images/WhiteBeadChoice.png","null"
"image-keyboard-response","709","2414532","0.0-4.0-2.229","15","Low_HMMActual","null","","","","Images/WhiteBeadChoiceWrong.png","null"
