"trial_type","trial_index","time_elapsed","internal_node_id","Script_Picker","Block_Type","rt","url","responses","question_order","stimulus","key_press"
"pavlovia","0","25","0.0-0.0","9","High_HMMActual","","","","","",""
"external-html","1","35252","0.0-1.0-0.0","9","High_HMMActual","34766.92000008188","consent.html","","","",""
"survey-multi-choice","2","48353","0.0-1.0-1.0","9","High_HMMActual","13093.089999863878","","{""Q0"":""Male"",""Q1"":""White""}","[0,1]","",""
"survey-text","3","51160","0.0-1.0-2.0","9","High_HMMActual","2782.8899999149144","","{""Q0"":""24""}","","",""
"survey-text","4","61446","0.0-1.0-3.0","9","High_HMMActual","10174.705000128597","","{""Q0"":""5d945f299f526b001602dc8f""}","","",""
"html-keyboard-response","5","75646","0.0-2.0-0.0","9","High_HMMActual","14094.139999942854","","","","<div class=""container"" style=""height:800px;width:800px;display:flex;flex-direction:column;justify-content:center;align-items:center;text-align:center;font-weight:normal;font-family:Arial;font-size:20px""><p>In this task you will see black or white beads being pulled from jars. <br><br>On each trial, a bead will be pulled from one of two jars. Once you see this bead, your goal is to predict the color of NEXT bead that will be pulled. <br> <br>Every time you correctly guess the color of the NEXT bead, you will get a point. <br><br>Press the SPACEBAR to continue.</p><div>","32"
"html-keyboard-response","6","82350","0.0-2.0-1.0","9","High_HMMActual","6701.8799998331815","","","","<div class=""container"" style=""height:800px;width:800px;display:flex;flex-direction:column;justify-content:center;align-items:center;text-align:center;font-weight:normal;font-family:Arial;font-size:20px""><p>Jars are filled with 80% white or black beads and 20% of the opposite color mixed in.<br><br>Press the SPACEBAR to continue. </p><div>","32"
"image-keyboard-response","7","85261","0.0-2.0-2.0","9","High_HMMActual","2904.469999950379","","","","resources/WhiteJar_HMM.png","32"
"image-keyboard-response","8","87375","0.0-2.0-3.0","9","High_HMMActual","2110.73000007309","","","","resources/BlackJar_HMM.png","32"
"html-keyboard-response","9","94280","0.0-2.0-4.0","9","High_HMMActual","6902.770000044256","","","","<div class=""container"" style=""height:800px;width:800px;display:flex;flex-direction:column;justify-content:center;align-items:center;text-align:center;font-weight:normal;font-family:Arial;font-size:20px""><p>There will be two blocks of trials. Each block will contain 500 trials. <br><br>Here are examples of what you will see on each trial.<br><br>Press the SPACEBAR to continue. </p><div>","32"
"image-keyboard-response","10","98442","0.0-2.0-5.0","9","High_HMMActual","4158.675000071526","","","","Images/NoChoice.png","32"
"html-keyboard-response","11","120481","0.0-2.0-6.0","9","High_HMMActual","22036.324999993667","","","","<div class=""container"" style=""height:800px;width:800px;display:flex;flex-direction:column;justify-content:center;align-items:center;text-align:center;font-weight:normal;font-family:Arial;font-size:20px""><p> The jar the beads are pulled from is NOT choosen at random on each trial.<br><br>After each prediction, there will be a chance that the jars will switch, and that the next bead will be pulled from the opposite jar as the previous trial.<br><br>In each block, the chance that a jar will switch will either be LOW (the jars will not switch very often), or HIGH (the jars will switch almost all the time).<br><br>At the start of each block, you will be told the probability that the jars will switch on each trial. This switch probability will stay constant throughout the block.<br><br>We will now show you some examples of beads being drawn from jars. The bead will appear in the middle of the screen, and the jar the bead was pulled from will be indicated with a black rectangle.<br><br>Press the SPACEBAR to continue. </p><div>","32"
"image-keyboard-response","12","124287","0.0-2.0-7.0","9","High_HMMActual","3802.9349998105317","","","","Images/TutorialWhiteJarDrawHMMC.png","32"
"image-keyboard-response","13","127011","0.0-2.0-8.0","9","High_HMMActual","2721.464999951422","","","","Images/TutorialBlackJarDrawHMMC.png","32"
"image-keyboard-response","14","130084","0.0-2.0-9.0","9","High_HMMActual","3070.5999999772757","","","","Images/TutorialBlackJarDrawHMMI.png","32"
"html-keyboard-response","15","140100","0.0-2.0-10.0","9","High_HMMActual","10013.574999989942","","","","<div class=""container"" style=""height:800px;width:800px;display:flex;flex-direction:column;justify-content:center;align-items:center;text-align:center;font-weight:normal;font-family:Arial;font-size:20px""><p> As you observed, a white bead was pulled from a 80% white jar, the jars switched and a black bead was pulled from the 80% black jar, but then a low-probability white bead was pulled from the 80% black jar. <br><br>This means that the color of the bead will not always match to the color of the jar it was pulled from.<br><br>Press SPACEBAR to conitnue.</p><div>","32"
"html-keyboard-response","16","143308","0.0-2.0-11.0","9","High_HMMActual","3205.9299999382347","","","","<div class=""container"" style=""height:800px;width:800px;display:flex;flex-direction:column;justify-content:center;align-items:center;text-align:center;font-weight:normal;font-family:Arial;font-size:20px""><p> You will now be given a 2 question quiz to make sure you understand the task. </p><div>","32"
"image-keyboard-response","17","154169","0.0-2.0-12.0","9","High_HMMActual","10857.664999784902","","","","Images/TutorialQuestion1.png","39"
"image-keyboard-response","18","160823","0.0-2.0-13.0","9","High_HMMActual","4487.994999857619","","","","Images/TutorialQuestion2.png","38"
"html-keyboard-response","19","169995","0.0-3.0","9","High_HMMActual","6874.055000022054","","","","<div class=""container"" style=""height:800px;width:800px;display:flex;flex-direction:column;justify-content:center;align-items:center;text-align:center;font-weight:normal;font-family:Arial;font-size:20px""><p>Loading episode&hellip;</p><div>","32"
"image-keyboard-response","20","175429","0.0-4.0-0.0","9","High_HMMActual","5430.605000117794","","","","Images/NoChoice.png","39"
"image-keyboard-response","21","175835","0.0-4.0-1.0","9","High_HMMActual","null","","","","Images/WhiteBeadChoice.png","null"
"image-keyboard-response","22","176540","0.0-4.0-2.0","9","High_HMMActual","null","","","","Images/WhiteBeadChoiceWrong.png","null"
"image-keyboard-response","23","177501","0.0-4.0-0.1","9","High_HMMActual","958.6700000800192","","","","Images/NewTrialBC.png","37"
"image-keyboard-response","24","177904","0.0-4.0-1.1","9","High_HMMActual","null","","","","Images/BlackBeadChoice.png","null"
"image-keyboard-response","25","178608","0.0-4.0-2.1","9","High_HMMActual","null","","","","Images/BlackBeadChoiceWrong.png","null"
"image-keyboard-response","26","180988","0.0-4.0-0.2","9","High_HMMActual","2377.600000007078","","","","Images/NewTrialWC.png","39"
"image-keyboard-response","27","181390","0.0-4.0-1.2","9","High_HMMActual","null","","","","Images/WhiteBeadChoice.png","null"
"image-keyboard-response","28","182094","0.0-4.0-2.2","9","High_HMMActual","null","","","","Images/WhiteBeadChoiceCorrect.png","null"
"image-keyboard-response","29","183899","0.0-4.0-0.3","9","High_HMMActual","1801.2250000610948","","","","Images/NewTrialWC.png","39"
"image-keyboard-response","30","184302","0.0-4.0-1.3","9","High_HMMActual","null","","","","Images/WhiteBeadChoice.png","null"
"image-keyboard-response","31","185005","0.0-4.0-2.3","9","High_HMMActual","null","","","","Images/WhiteBeadChoiceCorrect.png","null"
"image-keyboard-response","32","185803","0.0-4.0-0.4","9","High_HMMActual","794.8600000236183","","","","Images/NewTrialWC.png","39"
"image-keyboard-response","33","186206","0.0-4.0-1.4","9","High_HMMActual","null","","","","Images/WhiteBeadChoice.png","null"
"image-keyboard-response","34","186909","0.0-4.0-2.4","9","High_HMMActual","null","","","","Images/WhiteBeadChoiceWrong.png","null"
"image-keyboard-response","35","188164","0.0-4.0-0.5","9","High_HMMActual","1252.295000012964","","","","Images/NewTrialBC.png","39"
"image-keyboard-response","36","188567","0.0-4.0-1.5","9","High_HMMActual","null","","","","Images/WhiteBeadChoice.png","null"
"image-keyboard-response","37","189270","0.0-4.0-2.5","9","High_HMMActual","null","","","","Images/WhiteBeadChoiceCorrect.png","null"
"image-keyboard-response","38","189958","0.0-4.0-0.6","9","High_HMMActual","685.0650000851601","","","","Images/NewTrialWC.png","39"
"image-keyboard-response","39","190364","0.0-4.0-1.6","9","High_HMMActual","null","","","","Images/WhiteBeadChoice.png","null"
"image-keyboard-response","40","191067","0.0-4.0-2.6","9","High_HMMActual","null","","","","Images/WhiteBeadChoiceCorrect.png","null"
"image-keyboard-response","41","191473","0.0-4.0-0.7","9","High_HMMActual","403.3449999988079","","","","Images/NewTrialWC.png","37"
"image-keyboard-response","42","191876","0.0-4.0-1.7","9","High_HMMActual","null","","","","Images/BlackBeadChoice.png","null"
"image-keyboard-response","43","192578","0.0-4.0-2.7","9","High_HMMActual","null","","","","Images/BlackBeadChoiceWrong.png","null"
"image-keyboard-response","44","193132","0.0-4.0-0.8","9","High_HMMActual","551.5699998941272","","","","Images/NewTrialWC.png","39"
"image-keyboard-response","45","193535","0.0-4.0-1.8","9","High_HMMActual","null","","","","Images/WhiteBeadChoice.png","null"
"image-keyboard-response","46","194239","0.0-4.0-2.8","9","High_HMMActual","null","","","","Images/WhiteBeadChoiceWrong.png","null"
"image-keyboard-response","47","200403","0.0-4.0-0.9","9","High_HMMActual","6162.084999959916","","","","Images/NewTrialBC.png","39"
"image-keyboard-response","48","200807","0.0-4.0-1.9","9","High_HMMActual","null","","","","Images/WhiteBeadChoice.png","null"
"image-keyboard-response","49","201510","0.0-4.0-2.9","9","High_HMMActual","null","","","","Images/WhiteBeadChoiceCorrect.png","null"
"image-keyboard-response","50","202892","0.0-4.0-0.10","9","High_HMMActual","1378.9800000377","","","","Images/NewTrialWC.png","39"
"image-keyboard-response","51","203295","0.0-4.0-1.10","9","High_HMMActual","null","","","","Images/WhiteBeadChoice.png","null"
"image-keyboard-response","52","203997","0.0-4.0-2.10","9","High_HMMActual","null","","","","Images/WhiteBeadChoiceWrong.png","null"
"image-keyboard-response","53","205280","0.0-4.0-0.11","9","High_HMMActual","1279.6350000426173","","","","Images/NewTrialBC.png","39"
"image-keyboard-response","54","205683","0.0-4.0-1.11","9","High_HMMActual","null","","","","Images/WhiteBeadChoice.png","null"
"image-keyboard-response","55","206386","0.0-4.0-2.11","9","High_HMMActual","null","","","","Images/WhiteBeadChoiceCorrect.png","null"
"image-keyboard-response","56","206959","0.0-4.0-0.12","9","High_HMMActual","570.8549998234957","","","","Images/NewTrialWC.png","37"
"image-keyboard-response","57","207363","0.0-4.0-1.12","9","High_HMMActual","null","","","","Images/BlackBeadChoice.png","null"
"image-keyboard-response","58","208067","0.0-4.0-2.12","9","High_HMMActual","null","","","","Images/BlackBeadChoiceCorrect.png","null"
"image-keyboard-response","59","212298","0.0-4.0-0.13","9","High_HMMActual","4226.769999833778","","","","Images/NewTrialBC.png","39"
"image-keyboard-response","60","212702","0.0-4.0-1.13","9","High_HMMActual","null","","","","Images/WhiteBeadChoice.png","null"
"image-keyboard-response","61","213405","0.0-4.0-2.13","9","High_HMMActual","null","","","","Images/WhiteBeadChoiceWrong.png","null"
"image-keyboard-response","62","213882","0.0-4.0-0.14","9","High_HMMActual","474.3850000668317","","","","Images/NewTrialBC.png","37"
"image-keyboard-response","63","214286","0.0-4.0-1.14","9","High_HMMActual","null","","","","Images/BlackBeadChoice.png","null"
"image-keyboard-response","64","214990","0.0-4.0-2.14","9","High_HMMActual","null","","","","Images/BlackBeadChoiceCorrect.png","null"
"image-keyboard-response","65","215458","0.0-4.0-0.15","9","High_HMMActual","465.1399999856949","","","","Images/NewTrialBC.png","39"
"image-keyboard-response","66","215862","0.0-4.0-1.15","9","High_HMMActual","null","","","","Images/WhiteBeadChoice.png","null"
"image-keyboard-response","67","216566","0.0-4.0-2.15","9","High_HMMActual","null","","","","Images/WhiteBeadChoiceWrong.png","null"
"image-keyboard-response","68","216907","0.0-4.0-0.16","9","High_HMMActual","337.49000006355345","","","","Images/NewTrialBC.png","37"
"image-keyboard-response","69","217318","0.0-4.0-1.16","9","High_HMMActual","null","","","","Images/BlackBeadChoice.png","null"
"image-keyboard-response","70","218022","0.0-4.0-2.16","9","High_HMMActual","null","","","","Images/BlackBeadChoiceCorrect.png","null"
"image-keyboard-response","71","218313","0.0-4.0-0.17","9","High_HMMActual","287.1150001883507","","","","Images/NewTrialBC.png","37"
"image-keyboard-response","72","218716","0.0-4.0-1.17","9","High_HMMActual","null","","","","Images/BlackBeadChoice.png","null"
"image-keyboard-response","73","219420","0.0-4.0-2.17","9","High_HMMActual","null","","","","Images/BlackBeadChoiceWrong.png","null"
"image-keyboard-response","74","219566","0.0-4.0-0.18","9","High_HMMActual","142.87999994121492","","","","Images/NewTrialWC.png","39"
"image-keyboard-response","75","219969","0.0-4.0-1.18","9","High_HMMActual","null","","","","Images/WhiteBeadChoice.png","null"
"image-keyboard-response","76","220672","0.0-4.0-2.18","9","High_HMMActual","584.6300001721829","","","","Images/WhiteBeadChoiceWrong.png","37"
"image-keyboard-response","77","221178","0.0-4.0-0.19","9","High_HMMActual","500.6450000219047","","","","Images/NewTrialBC.png","37"
"image-keyboard-response","78","221580","0.0-4.0-1.19","9","High_HMMActual","null","","","","Images/BlackBeadChoice.png","null"
"image-keyboard-response","79","222283","0.0-4.0-2.19","9","High_HMMActual","null","","","","Images/BlackBeadChoiceWrong.png","null"
"image-keyboard-response","80","223124","0.0-4.0-0.20","9","High_HMMActual","838.495000032708","","","","Images/NewTrialWC.png","39"
"image-keyboard-response","81","223527","0.0-4.0-1.20","9","High_HMMActual","null","","","","Images/WhiteBeadChoice.png","null"
"image-keyboard-response","82","224229","0.0-4.0-2.20","9","High_HMMActual","null","","","","Images/WhiteBeadChoiceWrong.png","null"
"image-keyboard-response","83","227881","0.0-4.0-0.21","9","High_HMMActual","3648.7799999304116","","","","Images/NewTrialBC.png","39"
"image-keyboard-response","84","228285","0.0-4.0-1.21","9","High_HMMActual","null","","","","Images/WhiteBeadChoice.png","null"
"image-keyboard-response","85","228989","0.0-4.0-2.21","9","High_HMMActual","null","","","","Images/WhiteBeadChoiceCorrect.png","null"
"image-keyboard-response","86","229715","0.0-4.0-0.22","9","High_HMMActual","722.8850000537932","","","","Images/NewTrialWC.png","39"
"image-keyboard-response","87","230118","0.0-4.0-1.22","9","High_HMMActual","null","","","","Images/WhiteBeadChoice.png","null"
"image-keyboard-response","88","230821","0.0-4.0-2.22","9","High_HMMActual","null","","","","Images/WhiteBeadChoiceWrong.png","null"
"image-keyboard-response","89","232070","0.0-4.0-0.23","9","High_HMMActual","1245.5700000282377","","","","Images/NewTrialBC.png","37"
"image-keyboard-response","90","232473","0.0-4.0-1.23","9","High_HMMActual","null","","","","Images/BlackBeadChoice.png","null"
"image-keyboard-response","91","233177","0.0-4.0-2.23","9","High_HMMActual","null","","","","Images/BlackBeadChoiceCorrect.png","null"
"image-keyboard-response","92","233599","0.0-4.0-0.24","9","High_HMMActual","419.1100001335144","","","","Images/NewTrialBC.png","39"
"image-keyboard-response","93","234002","0.0-4.0-1.24","9","High_HMMActual","null","","","","Images/WhiteBeadChoice.png","null"
"image-keyboard-response","94","234705","0.0-4.0-2.24","9","High_HMMActual","null","","","","Images/WhiteBeadChoiceWrong.png","null"
"image-keyboard-response","95","235097","0.0-4.0-0.25","9","High_HMMActual","388.71999992989004","","","","Images/NewTrialBC.png","37"
"image-keyboard-response","96","235499","0.0-4.0-1.25","9","High_HMMActual","null","","","","Images/BlackBeadChoice.png","null"
"image-keyboard-response","97","236203","0.0-4.0-2.25","9","High_HMMActual","null","","","","Images/BlackBeadChoiceCorrect.png","null"
"image-keyboard-response","98","236760","0.0-4.0-0.26","9","High_HMMActual","554.780000122264","","","","Images/NewTrialBC.png","37"
"image-keyboard-response","99","237164","0.0-4.0-1.26","9","High_HMMActual","null","","","","Images/BlackBeadChoice.png","null"
"image-keyboard-response","100","237867","0.0-4.0-2.26","9","High_HMMActual","null","","","","Images/BlackBeadChoiceCorrect.png","null"
"image-keyboard-response","101","238829","0.0-4.0-0.27","9","High_HMMActual","959.5899998676032","","","","Images/NewTrialBC.png","39"
"image-keyboard-response","102","239231","0.0-4.0-1.27","9","High_HMMActual","null","","","","Images/WhiteBeadChoice.png","null"
"image-keyboard-response","103","239935","0.0-4.0-2.27","9","High_HMMActual","null","","","","Images/WhiteBeadChoiceCorrect.png","null"
"image-keyboard-response","104","240654","0.0-4.0-0.28","9","High_HMMActual","714.9850002024323","","","","Images/NewTrialWC.png","39"
"image-keyboard-response","105","241057","0.0-4.0-1.28","9","High_HMMActual","null","","","","Images/WhiteBeadChoice.png","null"
"image-keyboard-response","106","241760","0.0-4.0-2.28","9","High_HMMActual","null","","","","Images/WhiteBeadChoiceWrong.png","null"
"image-keyboard-response","107","242097","0.0-4.0-0.29","9","High_HMMActual","333.94000004045665","","","","Images/NewTrialBC.png","37"
"image-keyboard-response","108","242500","0.0-4.0-1.29","9","High_HMMActual","null","","","","Images/BlackBeadChoice.png","null"
"image-keyboard-response","109","243203","0.0-4.0-2.29","9","High_HMMActual","null","","","","Images/BlackBeadChoiceWrong.png","null"
"image-keyboard-response","110","243978","0.0-4.0-0.30","9","High_HMMActual","772.690000012517","","","","Images/NewTrialWC.png","39"
"image-keyboard-response","111","244383","0.0-4.0-1.30","9","High_HMMActual","null","","","","Images/WhiteBeadChoice.png","null"
"image-keyboard-response","112","245087","0.0-4.0-2.30","9","High_HMMActual","null","","","","Images/WhiteBeadChoiceWrong.png","null"
"image-keyboard-response","113","245596","0.0-4.0-0.31","9","High_HMMActual","505.75999985449016","","","","Images/NewTrialBC.png","37"
"image-keyboard-response","114","245999","0.0-4.0-1.31","9","High_HMMActual","null","","","","Images/BlackBeadChoice.png","null"
"image-keyboard-response","115","246702","0.0-4.0-2.31","9","High_HMMActual","null","","","","Images/BlackBeadChoiceWrong.png","null"
"image-keyboard-response","116","247385","0.0-4.0-0.32","9","High_HMMActual","680.1849999465048","","","","Images/NewTrialWC.png","37"
"image-keyboard-response","117","247787","0.0-4.0-1.32","9","High_HMMActual","null","","","","Images/BlackBeadChoice.png","null"
"image-keyboard-response","118","248491","0.0-4.0-2.32","9","High_HMMActual","null","","","","Images/BlackBeadChoiceCorrect.png","null"
"image-keyboard-response","119","249784","0.0-4.0-0.33","9","High_HMMActual","1289.674999890849","","","","Images/NewTrialBC.png","39"
"image-keyboard-response","120","250187","0.0-4.0-1.33","9","High_HMMActual","null","","","","Images/WhiteBeadChoice.png","null"
"image-keyboard-response","121","250891","0.0-4.0-2.33","9","High_HMMActual","null","","","","Images/WhiteBeadChoiceCorrect.png","null"
"image-keyboard-response","122","251328","0.0-4.0-0.34","9","High_HMMActual","434.9049997981638","","","","Images/NewTrialWC.png","37"
"image-keyboard-response","123","251732","0.0-4.0-1.34","9","High_HMMActual","null","","","","Images/BlackBeadChoice.png","null"
"image-keyboard-response","124","252435","0.0-4.0-2.34","9","High_HMMActual","null","","","","Images/BlackBeadChoiceCorrect.png","null"
"image-keyboard-response","125","253181","0.0-4.0-0.35","9","High_HMMActual","742.2650000080466","","","","Images/NewTrialBC.png","39"
"image-keyboard-response","126","253584","0.0-4.0-1.35","9","High_HMMActual","null","","","","Images/WhiteBeadChoice.png","null"
"image-keyboard-response","127","254287","0.0-4.0-2.35","9","High_HMMActual","null","","","","Images/WhiteBeadChoiceWrong.png","null"
"image-keyboard-response","128","254871","0.0-4.0-0.36","9","High_HMMActual","581.8950000684708","","","","Images/NewTrialBC.png","37"
"image-keyboard-response","129","255275","0.0-4.0-1.36","9","High_HMMActual","null","","","","Images/BlackBeadChoice.png","null"
"image-keyboard-response","130","255978","0.0-4.0-2.36","9","High_HMMActual","685.8999999240041","","","","Images/BlackBeadChoiceCorrect.png","37"
"image-keyboard-response","131","256679","0.0-4.0-0.37","9","High_HMMActual","698.7850000150502","","","","Images/NewTrialBC.png","37"
"image-keyboard-response","132","257082","0.0-4.0-1.37","9","High_HMMActual","null","","","","Images/BlackBeadChoice.png","null"
"image-keyboard-response","133","257786","0.0-4.0-2.37","9","High_HMMActual","null","","","","Images/BlackBeadChoiceCorrect.png","null"
"image-keyboard-response","134","258172","0.0-4.0-0.38","9","High_HMMActual","383.7150000035763","","","","Images/NewTrialBC.png","37"
"image-keyboard-response","135","258575","0.0-4.0-1.38","9","High_HMMActual","null","","","","Images/BlackBeadChoice.png","null"
"image-keyboard-response","136","259280","0.0-4.0-2.38","9","High_HMMActual","null","","","","Images/BlackBeadChoiceCorrect.png","null"
"image-keyboard-response","137","259759","0.0-4.0-0.39","9","High_HMMActual","476.38499992899597","","","","Images/NewTrialBC.png","37"
"image-keyboard-response","138","260162","0.0-4.0-1.39","9","High_HMMActual","null","","","","Images/BlackBeadChoice.png","null"
"image-keyboard-response","139","260865","0.0-4.0-2.39","9","High_HMMActual","null","","","","Images/BlackBeadChoiceWrong.png","null"
"image-keyboard-response","140","261547","0.0-4.0-0.40","9","High_HMMActual","679.5000000856817","","","","Images/NewTrialWC.png","39"
"image-keyboard-response","141","261950","0.0-4.0-1.40","9","High_HMMActual","null","","","","Images/WhiteBeadChoice.png","null"
"image-keyboard-response","142","262655","0.0-4.0-2.40","9","High_HMMActual","null","","","","Images/WhiteBeadChoiceCorrect.png","null"
"image-keyboard-response","143","263005","0.0-4.0-0.41","9","High_HMMActual","346.7149999924004","","","","Images/NewTrialWC.png","39"
"image-keyboard-response","144","263413","0.0-4.0-1.41","9","High_HMMActual","null","","","","Images/WhiteBeadChoice.png","null"
"image-keyboard-response","145","264116","0.0-4.0-2.41","9","High_HMMActual","null","","","","Images/WhiteBeadChoiceCorrect.png","null"
"image-keyboard-response","146","264583","0.0-4.0-0.42","9","High_HMMActual","463.85499997995794","","","","Images/NewTrialWC.png","39"
"image-keyboard-response","147","264986","0.0-4.0-1.42","9","High_HMMActual","null","","","","Images/WhiteBeadChoice.png","null"
"image-keyboard-response","148","265690","0.0-4.0-2.42","9","High_HMMActual","null","","","","Images/WhiteBeadChoiceWrong.png","null"
"image-keyboard-response","149","266585","0.0-4.0-0.43","9","High_HMMActual","891.3100000936538","","","","Images/NewTrialBC.png","39"
"image-keyboard-response","150","266988","0.0-4.0-1.43","9","High_HMMActual","null","","","","Images/WhiteBeadChoice.png","null"
"image-keyboard-response","151","267693","0.0-4.0-2.43","9","High_HMMActual","null","","","","Images/WhiteBeadChoiceCorrect.png","null"
"image-keyboard-response","152","268368","0.0-4.0-0.44","9","High_HMMActual","672.5500000175089","","","","Images/NewTrialWC.png","39"
"image-keyboard-response","153","268773","0.0-4.0-1.44","9","High_HMMActual","null","","","","Images/WhiteBeadChoice.png","null"
"image-keyboard-response","154","269477","0.0-4.0-2.44","9","High_HMMActual","null","","","","Images/WhiteBeadChoiceCorrect.png","null"
"image-keyboard-response","155","270240","0.0-4.0-0.45","9","High_HMMActual","760.0899999961257","","","","Images/NewTrialWC.png","39"
"image-keyboard-response","156","270643","0.0-4.0-1.45","9","High_HMMActual","null","","","","Images/WhiteBeadChoice.png","null"
"image-keyboard-response","157","271347","0.0-4.0-2.45","9","High_HMMActual","null","","","","Images/WhiteBeadChoiceCorrect.png","null"
"image-keyboard-response","158","271801","0.0-4.0-0.46","9","High_HMMActual","451.1200000997633","","","","Images/NewTrialWC.png","37"
"image-keyboard-response","159","272212","0.0-4.0-1.46","9","High_HMMActual","null","","","","Images/BlackBeadChoice.png","null"
"image-keyboard-response","160","272916","0.0-4.0-2.46","9","High_HMMActual","null","","","","Images/BlackBeadChoiceCorrect.png","null"
"image-keyboard-response","161","273368","0.0-4.0-0.47","9","High_HMMActual","448.7950000911951","","","","Images/NewTrialBC.png","37"
"image-keyboard-response","162","273771","0.0-4.0-1.47","9","High_HMMActual","null","","","","Images/BlackBeadChoice.png","null"
"image-keyboard-response","163","274474","0.0-4.0-2.47","9","High_HMMActual","null","","","","Images/BlackBeadChoiceWrong.png","null"
"image-keyboard-response","164","274990","0.0-4.0-0.48","9","High_HMMActual","513.7000000104308","","","","Images/NewTrialWC.png","39"
"image-keyboard-response","165","275394","0.0-4.0-1.48","9","High_HMMActual","null","","","","Images/WhiteBeadChoice.png","null"
"image-keyboard-response","166","276096","0.0-4.0-2.48","9","High_HMMActual","null","","","","Images/WhiteBeadChoiceWrong.png","null"
"image-keyboard-response","167","276816","0.0-4.0-0.49","9","High_HMMActual","717.0850001275539","","","","Images/NewTrialBC.png","37"
"image-keyboard-response","168","277220","0.0-4.0-1.49","9","High_HMMActual","null","","","","Images/BlackBeadChoice.png","null"
"image-keyboard-response","169","277923","0.0-4.0-2.49","9","High_HMMActual","null","","","","Images/BlackBeadChoiceWrong.png","null"
"image-keyboard-response","170","279579","0.0-4.0-0.50","9","High_HMMActual","1652.8349998407066","","","","Images/NewTrialWC.png","39"
"image-keyboard-response","171","279981","0.0-4.0-1.50","9","High_HMMActual","null","","","","Images/WhiteBeadChoice.png","null"
"image-keyboard-response","172","280684","0.0-4.0-2.50","9","High_HMMActual","null","","","","Images/WhiteBeadChoiceWrong.png","null"
"image-keyboard-response","173","280937","0.0-4.0-0.51","9","High_HMMActual","250.5200000014156","","","","Images/NewTrialBC.png","39"
"image-keyboard-response","174","281340","0.0-4.0-1.51","9","High_HMMActual","null","","","","Images/WhiteBeadChoice.png","null"
"image-keyboard-response","175","282043","0.0-4.0-2.51","9","High_HMMActual","null","","","","Images/WhiteBeadChoiceCorrect.png","null"
"image-keyboard-response","176","282519","0.0-4.0-0.52","9","High_HMMActual","472.7950000669807","","","","Images/NewTrialWC.png","39"
"image-keyboard-response","177","282922","0.0-4.0-1.52","9","High_HMMActual","null","","","","Images/WhiteBeadChoice.png","null"
"image-keyboard-response","178","283625","0.0-4.0-2.52","9","High_HMMActual","null","","","","Images/WhiteBeadChoiceWrong.png","null"
"image-keyboard-response","179","284272","0.0-4.0-0.53","9","High_HMMActual","642.8949998226017","","","","Images/NewTrialBC.png","37"
"image-keyboard-response","180","284674","0.0-4.0-1.53","9","High_HMMActual","null","","","","Images/BlackBeadChoice.png","null"
"image-keyboard-response","181","285377","0.0-4.0-2.53","9","High_HMMActual","null","","","","Images/BlackBeadChoiceWrong.png","null"
"image-keyboard-response","182","285720","0.0-4.0-0.54","9","High_HMMActual","339.7200000472367","","","","Images/NewTrialWC.png","39"
"image-keyboard-response","183","286122","0.0-4.0-1.54","9","High_HMMActual","null","","","","Images/WhiteBeadChoice.png","null"
"image-keyboard-response","184","286825","0.0-4.0-2.54","9","High_HMMActual","null","","","","Images/WhiteBeadChoiceWrong.png","null"
"image-keyboard-response","185","288919","0.0-4.0-0.55","9","High_HMMActual","2090.549999848008","","","","Images/NewTrialBC.png","37"
"image-keyboard-response","186","289322","0.0-4.0-1.55","9","High_HMMActual","null","","","","Images/BlackBeadChoice.png","null"
"image-keyboard-response","187","290026","0.0-4.0-2.55","9","High_HMMActual","null","","","","Images/BlackBeadChoiceWrong.png","null"
"image-keyboard-response","188","290942","0.0-4.0-0.56","9","High_HMMActual","913.5750001296401","","","","Images/NewTrialWC.png","37"
"image-keyboard-response","189","291345","0.0-4.0-1.56","9","High_HMMActual","null","","","","Images/BlackBeadChoice.png","null"
"image-keyboard-response","190","292048","0.0-4.0-2.56","9","High_HMMActual","null","","","","Images/BlackBeadChoiceCorrect.png","null"
"image-keyboard-response","191","292524","0.0-4.0-0.57","9","High_HMMActual","469.28499988280237","","","","Images/NewTrialBC.png","39"
"image-keyboard-response","192","292927","0.0-4.0-1.57","9","High_HMMActual","null","","","","Images/WhiteBeadChoice.png","null"
"image-keyboard-response","193","293629","0.0-4.0-2.57","9","High_HMMActual","null","","","","Images/WhiteBeadChoiceWrong.png","null"
"image-keyboard-response","194","293959","0.0-4.0-0.58","9","High_HMMActual","326.65499998256564","","","","Images/NewTrialBC.png","37"
"image-keyboard-response","195","294362","0.0-4.0-1.58","9","High_HMMActual","null","","","","Images/BlackBeadChoice.png","null"
"image-keyboard-response","196","295067","0.0-4.0-2.58","9","High_HMMActual","null","","","","Images/BlackBeadChoiceCorrect.png","null"
"image-keyboard-response","197","295730","0.0-4.0-0.59","9","High_HMMActual","659.7150000743568","","","","Images/NewTrialBC.png","39"
"image-keyboard-response","198","296134","0.0-4.0-1.59","9","High_HMMActual","null","","","","Images/WhiteBeadChoice.png","null"
"image-keyboard-response","199","296837","0.0-4.0-2.59","9","High_HMMActual","null","","","","Images/WhiteBeadChoiceCorrect.png","null"
"image-keyboard-response","200","297226","0.0-4.0-0.60","9","High_HMMActual","385.64500003121793","","","","Images/NewTrialWC.png","39"
"image-keyboard-response","201","297628","0.0-4.0-1.60","9","High_HMMActual","null","","","","Images/WhiteBeadChoice.png","null"
"image-keyboard-response","202","298331","0.0-4.0-2.60","9","High_HMMActual","null","","","","Images/WhiteBeadChoiceWrong.png","null"
"image-keyboard-response","203","298408","0.0-4.0-0.61","9","High_HMMActual","73.31999996677041","","","","Images/NewTrialBC.png","37"
"image-keyboard-response","204","298812","0.0-4.0-1.61","9","High_HMMActual","null","","","","Images/BlackBeadChoice.png","null"
"image-keyboard-response","205","299515","0.0-4.0-2.61","9","High_HMMActual","null","","","","Images/BlackBeadChoiceCorrect.png","null"
"image-keyboard-response","206","299629","0.0-4.0-0.62","9","High_HMMActual","109.88999996334314","","","","Images/NewTrialBC.png","37"
"image-keyboard-response","207","300032","0.0-4.0-1.62","9","High_HMMActual","null","","","","Images/BlackBeadChoice.png","null"
"image-keyboard-response","208","300735","0.0-4.0-2.62","9","High_HMMActual","645.0600000098348","","","","Images/BlackBeadChoiceCorrect.png","37"
"image-keyboard-response","209","301257","0.0-4.0-0.63","9","High_HMMActual","518.5149998869747","","","","Images/NewTrialBC.png","37"
"image-keyboard-response","210","301659","0.0-4.0-1.63","9","High_HMMActual","null","","","","Images/BlackBeadChoice.png","null"
"image-keyboard-response","211","302363","0.0-4.0-2.63","9","High_HMMActual","null","","","","Images/BlackBeadChoiceWrong.png","null"
"image-keyboard-response","212","302787","0.0-4.0-0.64","9","High_HMMActual","420.719999819994","","","","Images/NewTrialWC.png","39"
"image-keyboard-response","213","303190","0.0-4.0-1.64","9","High_HMMActual","null","","","","Images/WhiteBeadChoice.png","null"
"image-keyboard-response","214","303893","0.0-4.0-2.64","9","High_HMMActual","null","","","","Images/WhiteBeadChoiceWrong.png","null"
"image-keyboard-response","215","304703","0.0-4.0-0.65","9","High_HMMActual","807.1550000458956","","","","Images/NewTrialBC.png","37"
"image-keyboard-response","216","305106","0.0-4.0-1.65","9","High_HMMActual","null","","","","Images/BlackBeadChoice.png","null"
"image-keyboard-response","217","305810","0.0-4.0-2.65","9","High_HMMActual","null","","","","Images/BlackBeadChoiceWrong.png","null"
"image-keyboard-response","218","308693","0.0-4.0-0.66","9","High_HMMActual","2878.9700001943856","","","","Images/NewTrialWC.png","39"
"image-keyboard-response","219","309096","0.0-4.0-1.66","9","High_HMMActual","null","","","","Images/WhiteBeadChoice.png","null"
"image-keyboard-response","220","309799","0.0-4.0-2.66","9","High_HMMActual","null","","","","Images/WhiteBeadChoiceWrong.png","null"
"image-keyboard-response","221","310265","0.0-4.0-0.67","9","High_HMMActual","462.76999986730516","","","","Images/NewTrialBC.png","37"
"image-keyboard-response","222","310668","0.0-4.0-1.67","9","High_HMMActual","null","","","","Images/BlackBeadChoice.png","null"
"image-keyboard-response","223","311371","0.0-4.0-2.67","9","High_HMMActual","null","","","","Images/BlackBeadChoiceCorrect.png","null"
"image-keyboard-response","224","311623","0.0-4.0-0.68","9","High_HMMActual","249.34999994002283","","","","Images/NewTrialBC.png","37"
"image-keyboard-response","225","312026","0.0-4.0-1.68","9","High_HMMActual","null","","","","Images/BlackBeadChoice.png","null"
"image-keyboard-response","226","312729","0.0-4.0-2.68","9","High_HMMActual","null","","","","Images/BlackBeadChoiceWrong.png","null"
"image-keyboard-response","227","313050","0.0-4.0-0.69","9","High_HMMActual","317.87999998778105","","","","Images/NewTrialWC.png","39"
"image-keyboard-response","228","313452","0.0-4.0-1.69","9","High_HMMActual","null","","","","Images/WhiteBeadChoice.png","null"
"image-keyboard-response","229","314155","0.0-4.0-2.69","9","High_HMMActual","null","","","","Images/WhiteBeadChoiceWrong.png","null"
"image-keyboard-response","230","314896","0.0-4.0-0.70","9","High_HMMActual","737.8749998752028","","","","Images/NewTrialBC.png","37"
"image-keyboard-response","231","315300","0.0-4.0-1.70","9","High_HMMActual","null","","","","Images/BlackBeadChoice.png","null"
"image-keyboard-response","232","316003","0.0-4.0-2.70","9","High_HMMActual","null","","","","Images/BlackBeadChoiceWrong.png","null"
"image-keyboard-response","233","316448","0.0-4.0-0.71","9","High_HMMActual","441.33999990299344","","","","Images/NewTrialWC.png","39"
"image-keyboard-response","234","316852","0.0-4.0-1.71","9","High_HMMActual","null","","","","Images/WhiteBeadChoice.png","null"
"image-keyboard-response","235","317555","0.0-4.0-2.71","9","High_HMMActual","null","","","","Images/WhiteBeadChoiceCorrect.png","null"
"image-keyboard-response","236","318028","0.0-4.0-0.72","9","High_HMMActual","471.1799998767674","","","","Images/NewTrialWC.png","39"
"image-keyboard-response","237","318431","0.0-4.0-1.72","9","High_HMMActual","null","","","","Images/WhiteBeadChoice.png","null"
"image-keyboard-response","238","319134","0.0-4.0-2.72","9","High_HMMActual","null","","","","Images/WhiteBeadChoiceCorrect.png","null"
"image-keyboard-response","239","319452","0.0-4.0-0.73","9","High_HMMActual","313.72500001452863","","","","Images/NewTrialWC.png","39"
"image-keyboard-response","240","319855","0.0-4.0-1.73","9","High_HMMActual","null","","","","Images/WhiteBeadChoice.png","null"
"image-keyboard-response","241","320559","0.0-4.0-2.73","9","High_HMMActual","null","","","","Images/WhiteBeadChoiceWrong.png","null"
"image-keyboard-response","242","326570","0.0-4.0-0.74","9","High_HMMActual","6008.420000085607","","","","Images/NewTrialBC.png","37"
"image-keyboard-response","243","326973","0.0-4.0-1.74","9","High_HMMActual","null","","","","Images/BlackBeadChoice.png","null"
"image-keyboard-response","244","327677","0.0-4.0-2.74","9","High_HMMActual","null","","","","Images/BlackBeadChoiceWrong.png","null"
"image-keyboard-response","245","328719","0.0-4.0-0.75","9","High_HMMActual","1039.325000019744","","","","Images/NewTrialWC.png","39"
"image-keyboard-response","246","329123","0.0-4.0-1.75","9","High_HMMActual","null","","","","Images/WhiteBeadChoice.png","null"
"image-keyboard-response","247","329827","0.0-4.0-2.75","9","High_HMMActual","null","","","","Images/WhiteBeadChoiceWrong.png","null"
"image-keyboard-response","248","330506","0.0-4.0-0.76","9","High_HMMActual","676.0749998502433","","","","Images/NewTrialBC.png","39"
"image-keyboard-response","249","330908","0.0-4.0-1.76","9","High_HMMActual","null","","","","Images/WhiteBeadChoice.png","null"
"image-keyboard-response","250","331612","0.0-4.0-2.76","9","High_HMMActual","null","","","","Images/WhiteBeadChoiceWrong.png","null"
"image-keyboard-response","251","331841","0.0-4.0-0.77","9","High_HMMActual","226.52000002563","","","","Images/NewTrialBC.png","39"
"image-keyboard-response","252","332245","0.0-4.0-1.77","9","High_HMMActual","null","","","","Images/WhiteBeadChoice.png","null"
"image-keyboard-response","253","332949","0.0-4.0-2.77","9","High_HMMActual","null","","","","Images/WhiteBeadChoiceWrong.png","null"
"image-keyboard-response","254","333300","0.0-4.0-0.78","9","High_HMMActual","348.0050000362098","","","","Images/NewTrialBC.png","37"
"image-keyboard-response","255","333703","0.0-4.0-1.78","9","High_HMMActual","null","","","","Images/BlackBeadChoice.png","null"
"image-keyboard-response","256","334407","0.0-4.0-2.78","9","High_HMMActual","null","","","","Images/BlackBeadChoiceWrong.png","null"
"image-keyboard-response","257","334773","0.0-4.0-0.79","9","High_HMMActual","363.09500015340745","","","","Images/NewTrialWC.png","39"
"image-keyboard-response","258","335178","0.0-4.0-1.79","9","High_HMMActual","null","","","","Images/WhiteBeadChoice.png","null"
"image-keyboard-response","259","335881","0.0-4.0-2.79","9","High_HMMActual","null","","","","Images/WhiteBeadChoiceWrong.png","null"
"image-keyboard-response","260","336188","0.0-4.0-0.80","9","High_HMMActual","303.6899999715388","","","","Images/NewTrialBC.png","37"
"image-keyboard-response","261","336591","0.0-4.0-1.80","9","High_HMMActual","null","","","","Images/BlackBeadChoice.png","null"
"image-keyboard-response","262","337294","0.0-4.0-2.80","9","High_HMMActual","null","","","","Images/BlackBeadChoiceCorrect.png","null"
"image-keyboard-response","263","337705","0.0-4.0-0.81","9","High_HMMActual","405.3450000938028","","","","Images/NewTrialBC.png","39"
"image-keyboard-response","264","338108","0.0-4.0-1.81","9","High_HMMActual","null","","","","Images/WhiteBeadChoice.png","null"
"image-keyboard-response","265","338811","0.0-4.0-2.81","9","High_HMMActual","null","","","","Images/WhiteBeadChoiceWrong.png","null"
"image-keyboard-response","266","340427","0.0-4.0-0.82","9","High_HMMActual","1613.840000005439","","","","Images/NewTrialBC.png","39"
"image-keyboard-response","267","340830","0.0-4.0-1.82","9","High_HMMActual","null","","","","Images/WhiteBeadChoice.png","null"
"image-keyboard-response","268","341534","0.0-4.0-2.82","9","High_HMMActual","null","","","","Images/WhiteBeadChoiceCorrect.png","null"
"image-keyboard-response","269","341867","0.0-4.0-0.83","9","High_HMMActual","329.97999992221594","","","","Images/NewTrialWC.png","39"
"image-keyboard-response","270","342271","0.0-4.0-1.83","9","High_HMMActual","null","","","","Images/WhiteBeadChoice.png","null"
"image-keyboard-response","271","342975","0.0-4.0-2.83","9","High_HMMActual","null","","","","Images/WhiteBeadChoiceWrong.png","null"
"image-keyboard-response","272","343584","0.0-4.0-0.84","9","High_HMMActual","605.3150000516325","","","","Images/NewTrialBC.png","37"
"image-keyboard-response","273","343987","0.0-4.0-1.84","9","High_HMMActual","null","","","","Images/BlackBeadChoice.png","null"
"image-keyboard-response","274","344691","0.0-4.0-2.84","9","High_HMMActual","null","","","","Images/BlackBeadChoiceWrong.png","null"
"image-keyboard-response","275","346609","0.0-4.0-0.85","9","High_HMMActual","1915.2899999171495","","","","Images/NewTrialWC.png","39"
"image-keyboard-response","276","347011","0.0-4.0-1.85","9","High_HMMActual","null","","","","Images/WhiteBeadChoice.png","null"
"image-keyboard-response","277","347714","0.0-4.0-2.85","9","High_HMMActual","null","","","","Images/WhiteBeadChoiceWrong.png","null"
"image-keyboard-response","278","348717","0.0-4.0-0.86","9","High_HMMActual","998.8649999722838","","","","Images/NewTrialBC.png","39"
"image-keyboard-response","279","349120","0.0-4.0-1.86","9","High_HMMActual","null","","","","Images/WhiteBeadChoice.png","null"
"image-keyboard-response","280","349824","0.0-4.0-2.86","9","High_HMMActual","null","","","","Images/WhiteBeadChoiceCorrect.png","null"
"image-keyboard-response","281","350264","0.0-4.0-0.87","9","High_HMMActual","434.9250001832843","","","","Images/NewTrialWC.png","37"
"image-keyboard-response","282","350667","0.0-4.0-1.87","9","High_HMMActual","null","","","","Images/BlackBeadChoice.png","null"
"image-keyboard-response","283","351371","0.0-4.0-2.87","9","High_HMMActual","null","","","","Images/BlackBeadChoiceCorrect.png","null"
"image-keyboard-response","284","352730","0.0-4.0-0.88","9","High_HMMActual","1357.0499999914318","","","","Images/NewTrialBC.png","39"
"image-keyboard-response","285","353134","0.0-4.0-1.88","9","High_HMMActual","null","","","","Images/WhiteBeadChoice.png","null"
"image-keyboard-response","286","353838","0.0-4.0-2.88","9","High_HMMActual","null","","","","Images/WhiteBeadChoiceCorrect.png","null"
"image-keyboard-response","287","354526","0.0-4.0-0.89","9","High_HMMActual","685.0799999665469","","","","Images/NewTrialWC.png","37"
"image-keyboard-response","288","354929","0.0-4.0-1.89","9","High_HMMActual","null","","","","Images/BlackBeadChoice.png","null"
"image-keyboard-response","289","355633","0.0-4.0-2.89","9","High_HMMActual","null","","","","Images/BlackBeadChoiceCorrect.png","null"
"image-keyboard-response","290","356016","0.0-4.0-0.90","9","High_HMMActual","380.20500005222857","","","","Images/NewTrialBC.png","39"
"image-keyboard-response","291","356434","0.0-4.0-1.90","9","High_HMMActual","null","","","","Images/WhiteBeadChoice.png","null"
"image-keyboard-response","292","357139","0.0-4.0-2.90","9","High_HMMActual","null","","","","Images/WhiteBeadChoiceCorrect.png","null"
"image-keyboard-response","293","357500","0.0-4.0-0.91","9","High_HMMActual","358.85000019334257","","","","Images/NewTrialWC.png","37"
"image-keyboard-response","294","357904","0.0-4.0-1.91","9","High_HMMActual","null","","","","Images/BlackBeadChoice.png","null"
"image-keyboard-response","295","358608","0.0-4.0-2.91","9","High_HMMActual","null","","","","Images/BlackBeadChoiceCorrect.png","null"
"image-keyboard-response","296","360684","0.0-4.0-0.92","9","High_HMMActual","2072.9400001000613","","","","Images/NewTrialBC.png","39"
"image-keyboard-response","297","361087","0.0-4.0-1.92","9","High_HMMActual","null","","","","Images/WhiteBeadChoice.png","null"
"image-keyboard-response","298","361791","0.0-4.0-2.92","9","High_HMMActual","null","","","","Images/WhiteBeadChoiceCorrect.png","null"
"image-keyboard-response","299","362175","0.0-4.0-0.93","9","High_HMMActual","380.4599998984486","","","","Images/NewTrialWC.png","37"
"image-keyboard-response","300","362578","0.0-4.0-1.93","9","High_HMMActual","null","","","","Images/BlackBeadChoice.png","null"
"image-keyboard-response","301","363281","0.0-4.0-2.93","9","High_HMMActual","649.5049998629838","","","","Images/BlackBeadChoiceCorrect.png","37"
"image-keyboard-response","302","363688","0.0-4.0-0.94","9","High_HMMActual","402.7150000911206","","","","Images/NewTrialBC.png","37"
"image-keyboard-response","303","364091","0.0-4.0-1.94","9","High_HMMActual","null","","","","Images/BlackBeadChoice.png","null"
"image-keyboard-response","304","364793","0.0-4.0-2.94","9","High_HMMActual","null","","","","Images/BlackBeadChoiceWrong.png","null"
"image-keyboard-response","305","365214","0.0-4.0-0.95","9","High_HMMActual","417.0099999755621","","","","Images/NewTrialWC.png","39"
"image-keyboard-response","306","365617","0.0-4.0-1.95","9","High_HMMActual","null","","","","Images/WhiteBeadChoice.png","null"
"image-keyboard-response","307","366322","0.0-4.0-2.95","9","High_HMMActual","null","","","","Images/WhiteBeadChoiceCorrect.png","null"
"image-keyboard-response","308","366512","0.0-4.0-0.96","9","High_HMMActual","186.61999981850386","","","","Images/NewTrialWC.png","39"
"image-keyboard-response","309","366920","0.0-4.0-1.96","9","High_HMMActual","null","","","","Images/WhiteBeadChoice.png","null"
"image-keyboard-response","310","367623","0.0-4.0-2.96","9","High_HMMActual","null","","","","Images/WhiteBeadChoiceCorrect.png","null"
"image-keyboard-response","311","367957","0.0-4.0-0.97","9","High_HMMActual","331.2249998562038","","","","Images/NewTrialWC.png","39"
"image-keyboard-response","312","368360","0.0-4.0-1.97","9","High_HMMActual","null","","","","Images/WhiteBeadChoice.png","null"
"image-keyboard-response","313","369064","0.0-4.0-2.97","9","High_HMMActual","null","","","","Images/WhiteBeadChoiceWrong.png","null"
"image-keyboard-response","314","369796","0.0-4.0-0.98","9","High_HMMActual","729.5399999711663","","","","Images/NewTrialBC.png","37"
"image-keyboard-response","315","370199","0.0-4.0-1.98","9","High_HMMActual","null","","","","Images/BlackBeadChoice.png","null"
"image-keyboard-response","316","370903","0.0-4.0-2.98","9","High_HMMActual","null","","","","Images/BlackBeadChoiceWrong.png","null"
"image-keyboard-response","317","372039","0.0-4.0-0.99","9","High_HMMActual","1133.4849998820573","","","","Images/NewTrialWC.png","37"
"image-keyboard-response","318","372442","0.0-4.0-1.99","9","High_HMMActual","null","","","","Images/BlackBeadChoice.png","null"
"image-keyboard-response","319","373146","0.0-4.0-2.99","9","High_HMMActual","null","","","","Images/BlackBeadChoiceCorrect.png","null"
"image-keyboard-response","320","373849","0.0-4.0-0.100","9","High_HMMActual","699.9150000046939","","","","Images/NewTrialBC.png","37"
"image-keyboard-response","321","374253","0.0-4.0-1.100","9","High_HMMActual","null","","","","Images/BlackBeadChoice.png","null"
"image-keyboard-response","322","374956","0.0-4.0-2.100","9","High_HMMActual","null","","","","Images/BlackBeadChoiceWrong.png","null"
"image-keyboard-response","323","375285","0.0-4.0-0.101","9","High_HMMActual","326.2000000104308","","","","Images/NewTrialWC.png","39"
"image-keyboard-response","324","375688","0.0-4.0-1.101","9","High_HMMActual","null","","","","Images/WhiteBeadChoice.png","null"
"image-keyboard-response","325","376391","0.0-4.0-2.101","9","High_HMMActual","null","","","","Images/WhiteBeadChoiceWrong.png","null"
"image-keyboard-response","326","376929","0.0-4.0-0.102","9","High_HMMActual","533.7849999777973","","","","Images/NewTrialBC.png","37"
"image-keyboard-response","327","377333","0.0-4.0-1.102","9","High_HMMActual","null","","","","Images/BlackBeadChoice.png","null"
"image-keyboard-response","328","378036","0.0-4.0-2.102","9","High_HMMActual","null","","","","Images/BlackBeadChoiceWrong.png","null"
"image-keyboard-response","329","379742","0.0-4.0-0.103","9","High_HMMActual","1702.0150001626462","","","","Images/NewTrialWC.png","37"
"image-keyboard-response","330","380145","0.0-4.0-1.103","9","High_HMMActual","null","","","","Images/BlackBeadChoice.png","null"
"image-keyboard-response","331","380849","0.0-4.0-2.103","9","High_HMMActual","null","","","","Images/BlackBeadChoiceCorrect.png","null"
"image-keyboard-response","332","381648","0.0-4.0-0.104","9","High_HMMActual","796.2750000879169","","","","Images/NewTrialBC.png","39"
"image-keyboard-response","333","382051","0.0-4.0-1.104","9","High_HMMActual","null","","","","Images/WhiteBeadChoice.png","null"
"image-keyboard-response","334","382754","0.0-4.0-2.104","9","High_HMMActual","null","","","","Images/WhiteBeadChoiceCorrect.png","null"
"image-keyboard-response","335","387134","0.0-4.0-0.105","9","High_HMMActual","4375.770000042394","","","","Images/NewTrialWC.png","39"
"image-keyboard-response","336","387537","0.0-4.0-1.105","9","High_HMMActual","null","","","","Images/WhiteBeadChoice.png","null"
"image-keyboard-response","337","388240","0.0-4.0-2.105","9","High_HMMActual","null","","","","Images/WhiteBeadChoiceWrong.png","null"
"image-keyboard-response","338","388701","0.0-4.0-0.106","9","High_HMMActual","458.8000001385808","","","","Images/NewTrialBC.png","37"
"image-keyboard-response","339","389104","0.0-4.0-1.106","9","High_HMMActual","null","","","","Images/BlackBeadChoice.png","null"
"image-keyboard-response","340","389807","0.0-4.0-2.106","9","High_HMMActual","null","","","","Images/BlackBeadChoiceWrong.png","null"
"image-keyboard-response","341","390635","0.0-4.0-0.107","9","High_HMMActual","823.4949999023229","","","","Images/NewTrialWC.png","37"
"image-keyboard-response","342","391038","0.0-4.0-1.107","9","High_HMMActual","null","","","","Images/BlackBeadChoice.png","null"
"image-keyboard-response","343","391742","0.0-4.0-2.107","9","High_HMMActual","null","","","","Images/BlackBeadChoiceCorrect.png","null"
"image-keyboard-response","344","395295","0.0-4.0-0.108","9","High_HMMActual","3550.0350000802428","","","","Images/NewTrialBC.png","39"
"image-keyboard-response","345","395698","0.0-4.0-1.108","9","High_HMMActual","null","","","","Images/WhiteBeadChoice.png","null"
"image-keyboard-response","346","396402","0.0-4.0-2.108","9","High_HMMActual","null","","","","Images/WhiteBeadChoiceWrong.png","null"
"image-keyboard-response","347","396875","0.0-4.0-0.109","9","High_HMMActual","470.28999985195696","","","","Images/NewTrialBC.png","37"
"image-keyboard-response","348","397278","0.0-4.0-1.109","9","High_HMMActual","null","","","","Images/BlackBeadChoice.png","null"
"image-keyboard-response","349","397982","0.0-4.0-2.109","9","High_HMMActual","null","","","","Images/BlackBeadChoiceCorrect.png","null"
"image-keyboard-response","350","398433","0.0-4.0-0.110","9","High_HMMActual","447.8400000371039","","","","Images/NewTrialBC.png","37"
"image-keyboard-response","351","398838","0.0-4.0-1.110","9","High_HMMActual","null","","","","Images/BlackBeadChoice.png","null"
"image-keyboard-response","352","399542","0.0-4.0-2.110","9","High_HMMActual","null","","","","Images/BlackBeadChoiceWrong.png","null"
"image-keyboard-response","353","399902","0.0-4.0-0.111","9","High_HMMActual","357.50000015832484","","","","Images/NewTrialWC.png","39"
"image-keyboard-response","354","400305","0.0-4.0-1.111","9","High_HMMActual","null","","","","Images/WhiteBeadChoice.png","null"
"image-keyboard-response","355","401008","0.0-4.0-2.111","9","High_HMMActual","null","","","","Images/WhiteBeadChoiceWrong.png","null"
"image-keyboard-response","356","401687","0.0-4.0-0.112","9","High_HMMActual","675.8499999996275","","","","Images/NewTrialBC.png","37"
"image-keyboard-response","357","402090","0.0-4.0-1.112","9","High_HMMActual","null","","","","Images/BlackBeadChoice.png","null"
"image-keyboard-response","358","402793","0.0-4.0-2.112","9","High_HMMActual","null","","","","Images/BlackBeadChoiceWrong.png","null"
"image-keyboard-response","359","403831","0.0-4.0-0.113","9","High_HMMActual","1034.904999891296","","","","Images/NewTrialWC.png","37"
"image-keyboard-response","360","404233","0.0-4.0-1.113","9","High_HMMActual","null","","","","Images/BlackBeadChoice.png","null"
"image-keyboard-response","361","404936","0.0-4.0-2.113","9","High_HMMActual","null","","","","Images/BlackBeadChoiceWrong.png","null"
"image-keyboard-response","362","405452","0.0-4.0-0.114","9","High_HMMActual","512.4099999666214","","","","Images/NewTrialWC.png","39"
"image-keyboard-response","363","405855","0.0-4.0-1.114","9","High_HMMActual","null","","","","Images/WhiteBeadChoice.png","null"
"image-keyboard-response","364","406558","0.0-4.0-2.114","9","High_HMMActual","null","","","","Images/WhiteBeadChoiceCorrect.png","null"
"image-keyboard-response","365","406955","0.0-4.0-0.115","9","High_HMMActual","393.97000009194016","","","","Images/NewTrialWC.png","39"
"image-keyboard-response","366","407359","0.0-4.0-1.115","9","High_HMMActual","null","","","","Images/WhiteBeadChoice.png","null"
"image-keyboard-response","367","408063","0.0-4.0-2.115","9","High_HMMActual","null","","","","Images/WhiteBeadChoiceWrong.png","null"
"image-keyboard-response","368","408523","0.0-4.0-0.116","9","High_HMMActual","458.1249998882413","","","","Images/NewTrialBC.png","37"
"image-keyboard-response","369","408927","0.0-4.0-1.116","9","High_HMMActual","null","","","","Images/BlackBeadChoice.png","null"
"image-keyboard-response","370","409631","0.0-4.0-2.116","9","High_HMMActual","null","","","","Images/BlackBeadChoiceCorrect.png","null"
"image-keyboard-response","371","410027","0.0-4.0-0.117","9","High_HMMActual","389.54999996349216","","","","Images/NewTrialBC.png","37"
"image-keyboard-response","372","410430","0.0-4.0-1.117","9","High_HMMActual","null","","","","Images/BlackBeadChoice.png","null"
"image-keyboard-response","373","411133","0.0-4.0-2.117","9","High_HMMActual","null","","","","Images/BlackBeadChoiceCorrect.png","null"
"image-keyboard-response","374","411742","0.0-4.0-0.118","9","High_HMMActual","605.7899999432266","","","","Images/NewTrialBC.png","37"
"image-keyboard-response","375","412146","0.0-4.0-1.118","9","High_HMMActual","null","","","","Images/BlackBeadChoice.png","null"
"image-keyboard-response","376","412849","0.0-4.0-2.118","9","High_HMMActual","null","","","","Images/BlackBeadChoiceWrong.png","null"
"image-keyboard-response","377","414880","0.0-4.0-0.119","9","High_HMMActual","2027.6150000281632","","","","Images/NewTrialWC.png","37"
"image-keyboard-response","378","415285","0.0-4.0-1.119","9","High_HMMActual","null","","","","Images/BlackBeadChoice.png","null"
"image-keyboard-response","379","415990","0.0-4.0-2.119","9","High_HMMActual","null","","","","Images/BlackBeadChoiceCorrect.png","null"
"image-keyboard-response","380","418606","0.0-4.0-0.120","9","High_HMMActual","2613.2549999747425","","","","Images/NewTrialBC.png","37"
"image-keyboard-response","381","419009","0.0-4.0-1.120","9","High_HMMActual","null","","","","Images/BlackBeadChoice.png","null"
"image-keyboard-response","382","419713","0.0-4.0-2.120","9","High_HMMActual","null","","","","Images/BlackBeadChoiceCorrect.png","null"
"image-keyboard-response","383","435096","0.0-4.0-0.121","9","High_HMMActual","15378.965000156313","","","","Images/NewTrialBC.png","39"
"image-keyboard-response","384","435499","0.0-4.0-1.121","9","High_HMMActual","null","","","","Images/WhiteBeadChoice.png","null"
"image-keyboard-response","385","436204","0.0-4.0-2.121","9","High_HMMActual","null","","","","Images/WhiteBeadChoiceWrong.png","null"
"image-keyboard-response","386","437400","0.0-4.0-0.122","9","High_HMMActual","1193.0600001942366","","","","Images/NewTrialBC.png","39"
"image-keyboard-response","387","437804","0.0-4.0-1.122","9","High_HMMActual","null","","","","Images/WhiteBeadChoice.png","null"
"image-keyboard-response","388","438508","0.0-4.0-2.122","9","High_HMMActual","null","","","","Images/WhiteBeadChoiceCorrect.png","null"
"image-keyboard-response","389","439399","0.0-4.0-0.123","9","High_HMMActual","888.1850000470877","","","","Images/NewTrialWC.png","37"
"image-keyboard-response","390","439811","0.0-4.0-1.123","9","High_HMMActual","null","","","","Images/BlackBeadChoice.png","null"
"image-keyboard-response","391","440516","0.0-4.0-2.123","9","High_HMMActual","null","","","","Images/BlackBeadChoiceCorrect.png","null"
"image-keyboard-response","392","441424","0.0-4.0-0.124","9","High_HMMActual","905.0749999005347","","","","Images/NewTrialBC.png","37"
"image-keyboard-response","393","441829","0.0-4.0-1.124","9","High_HMMActual","null","","","","Images/BlackBeadChoice.png","null"
"image-keyboard-response","394","442534","0.0-4.0-2.124","9","High_HMMActual","null","","","","Images/BlackBeadChoiceWrong.png","null"
"image-keyboard-response","395","444046","0.0-4.0-0.125","9","High_HMMActual","1509.190000128001","","","","Images/NewTrialWC.png","37"
"image-keyboard-response","396","444450","0.0-4.0-1.125","9","High_HMMActual","null","","","","Images/BlackBeadChoice.png","null"
"image-keyboard-response","397","445154","0.0-4.0-2.125","9","High_HMMActual","null","","","","Images/BlackBeadChoiceCorrect.png","null"
"image-keyboard-response","398","446329","0.0-4.0-0.126","9","High_HMMActual","1172.885000007227","","","","Images/NewTrialBC.png","37"
"image-keyboard-response","399","446733","0.0-4.0-1.126","9","High_HMMActual","null","","","","Images/BlackBeadChoice.png","null"
"image-keyboard-response","400","447436","0.0-4.0-2.126","9","High_HMMActual","null","","","","Images/BlackBeadChoiceWrong.png","null"
"image-keyboard-response","401","448128","0.0-4.0-0.127","9","High_HMMActual","687.5800001434982","","","","Images/NewTrialWC.png","37"
"image-keyboard-response","402","448531","0.0-4.0-1.127","9","High_HMMActual","null","","","","Images/BlackBeadChoice.png","null"
"image-keyboard-response","403","449235","0.0-4.0-2.127","9","High_HMMActual","null","","","","Images/BlackBeadChoiceCorrect.png","null"
"image-keyboard-response","404","450018","0.0-4.0-0.128","9","High_HMMActual","780.1099999342114","","","","Images/NewTrialBC.png","39"
"image-keyboard-response","405","450421","0.0-4.0-1.128","9","High_HMMActual","null","","","","Images/WhiteBeadChoice.png","null"
"image-keyboard-response","406","451124","0.0-4.0-2.128","9","High_HMMActual","null","","","","Images/WhiteBeadChoiceCorrect.png","null"
"image-keyboard-response","407","451826","0.0-4.0-0.129","9","High_HMMActual","699.1850000340492","","","","Images/NewTrialWC.png","39"
"image-keyboard-response","408","452230","0.0-4.0-1.129","9","High_HMMActual","null","","","","Images/WhiteBeadChoice.png","null"
"image-keyboard-response","409","452933","0.0-4.0-2.129","9","High_HMMActual","null","","","","Images/WhiteBeadChoiceWrong.png","null"
"image-keyboard-response","410","453316","0.0-4.0-0.130","9","High_HMMActual","379.3049999512732","","","","Images/NewTrialBC.png","37"
"image-keyboard-response","411","453719","0.0-4.0-1.130","9","High_HMMActual","null","","","","Images/BlackBeadChoice.png","null"
"image-keyboard-response","412","454421","0.0-4.0-2.130","9","High_HMMActual","null","","","","Images/BlackBeadChoiceWrong.png","null"
"image-keyboard-response","413","455060","0.0-4.0-0.131","9","High_HMMActual","636.2399999052286","","","","Images/NewTrialWC.png","37"
"image-keyboard-response","414","455463","0.0-4.0-1.131","9","High_HMMActual","null","","","","Images/BlackBeadChoice.png","null"
"image-keyboard-response","415","456167","0.0-4.0-2.131","9","High_HMMActual","null","","","","Images/BlackBeadChoiceCorrect.png","null"
"image-keyboard-response","416","457033","0.0-4.0-0.132","9","High_HMMActual","864.0550000127405","","","","Images/NewTrialBC.png","37"
"image-keyboard-response","417","457437","0.0-4.0-1.132","9","High_HMMActual","null","","","","Images/BlackBeadChoice.png","null"
"image-keyboard-response","418","458141","0.0-4.0-2.132","9","High_HMMActual","null","","","","Images/BlackBeadChoiceWrong.png","null"
"image-keyboard-response","419","458251","0.0-4.0-0.133","9","High_HMMActual","106.97999992407858","","","","Images/NewTrialWC.png","39"
"image-keyboard-response","420","458654","0.0-4.0-1.133","9","High_HMMActual","null","","","","Images/WhiteBeadChoice.png","null"
"image-keyboard-response","421","459358","0.0-4.0-2.133","9","High_HMMActual","null","","","","Images/WhiteBeadChoiceWrong.png","null"
"image-keyboard-response","422","459732","0.0-4.0-0.134","9","High_HMMActual","371.8000000808388","","","","Images/NewTrialBC.png","37"
"image-keyboard-response","423","460135","0.0-4.0-1.134","9","High_HMMActual","null","","","","Images/BlackBeadChoice.png","null"
"image-keyboard-response","424","460839","0.0-4.0-2.134","9","High_HMMActual","null","","","","Images/BlackBeadChoiceWrong.png","null"
"image-keyboard-response","425","461829","0.0-4.0-0.135","9","High_HMMActual","987.4850001651794","","","","Images/NewTrialWC.png","37"
"image-keyboard-response","426","462232","0.0-4.0-1.135","9","High_HMMActual","null","","","","Images/BlackBeadChoice.png","null"
"image-keyboard-response","427","462935","0.0-4.0-2.135","9","High_HMMActual","null","","","","Images/BlackBeadChoiceCorrect.png","null"
"image-keyboard-response","428","463756","0.0-4.0-0.136","9","High_HMMActual","817.9250000976026","","","","Images/NewTrialBC.png","39"
"image-keyboard-response","429","464159","0.0-4.0-1.136","9","High_HMMActual","null","","","","Images/WhiteBeadChoice.png","null"
"image-keyboard-response","430","464863","0.0-4.0-2.136","9","High_HMMActual","null","","","","Images/WhiteBeadChoiceCorrect.png","null"
"image-keyboard-response","431","465517","0.0-4.0-0.137","9","High_HMMActual","651.3499999418855","","","","Images/NewTrialWC.png","37"
"image-keyboard-response","432","465920","0.0-4.0-1.137","9","High_HMMActual","null","","","","Images/BlackBeadChoice.png","null"
"image-keyboard-response","433","466624","0.0-4.0-2.137","9","High_HMMActual","null","","","","Images/BlackBeadChoiceCorrect.png","null"
"image-keyboard-response","434","467410","0.0-4.0-0.138","9","High_HMMActual","783.060000045225","","","","Images/NewTrialBC.png","37"
"image-keyboard-response","435","467813","0.0-4.0-1.138","9","High_HMMActual","null","","","","Images/BlackBeadChoice.png","null"
"image-keyboard-response","436","468517","0.0-4.0-2.138","9","High_HMMActual","null","","","","Images/BlackBeadChoiceWrong.png","null"
"image-keyboard-response","437","469302","0.0-4.0-0.139","9","High_HMMActual","782.5299999676645","","","","Images/NewTrialWC.png","37"
"image-keyboard-response","438","469706","0.0-4.0-1.139","9","High_HMMActual","null","","","","Images/BlackBeadChoice.png","null"
"image-keyboard-response","439","470409","0.0-4.0-2.139","9","High_HMMActual","null","","","","Images/BlackBeadChoiceCorrect.png","null"
"image-keyboard-response","440","471165","0.0-4.0-0.140","9","High_HMMActual","752.9599999543279","","","","Images/NewTrialBC.png","37"
"image-keyboard-response","441","471567","0.0-4.0-1.140","9","High_HMMActual","null","","","","Images/BlackBeadChoice.png","null"
"image-keyboard-response","442","472270","0.0-4.0-2.140","9","High_HMMActual","null","","","","Images/BlackBeadChoiceCorrect.png","null"
"image-keyboard-response","443","472599","0.0-4.0-0.141","9","High_HMMActual","325.92999981716275","","","","Images/NewTrialBC.png","39"
"image-keyboard-response","444","473004","0.0-4.0-1.141","9","High_HMMActual","null","","","","Images/WhiteBeadChoice.png","null"
"image-keyboard-response","445","473707","0.0-4.0-2.141","9","High_HMMActual","null","","","","Images/WhiteBeadChoiceWrong.png","null"
"image-keyboard-response","446","474314","0.0-4.0-0.142","9","High_HMMActual","604.8749999608845","","","","Images/NewTrialBC.png","37"
"image-keyboard-response","447","474717","0.0-4.0-1.142","9","High_HMMActual","null","","","","Images/BlackBeadChoice.png","null"
"image-keyboard-response","448","475421","0.0-4.0-2.142","9","High_HMMActual","null","","","","Images/BlackBeadChoiceWrong.png","null"
"image-keyboard-response","449","476741","0.0-4.0-0.143","9","High_HMMActual","1316.9700000435114","","","","Images/NewTrialWC.png","39"
"image-keyboard-response","450","477143","0.0-4.0-1.143","9","High_HMMActual","null","","","","Images/WhiteBeadChoice.png","null"
"image-keyboard-response","451","477847","0.0-4.0-2.143","9","High_HMMActual","null","","","","Images/WhiteBeadChoiceWrong.png","null"
"image-keyboard-response","452","479449","0.0-4.0-0.144","9","High_HMMActual","1600.075000198558","","","","Images/NewTrialBC.png","39"
"image-keyboard-response","453","479853","0.0-4.0-1.144","9","High_HMMActual","null","","","","Images/WhiteBeadChoice.png","null"
"image-keyboard-response","454","480556","0.0-4.0-2.144","9","High_HMMActual","null","","","","Images/WhiteBeadChoiceCorrect.png","null"
"image-keyboard-response","455","481876","0.0-4.0-0.145","9","High_HMMActual","1317.039999878034","","","","Images/NewTrialWC.png","37"
"image-keyboard-response","456","482280","0.0-4.0-1.145","9","High_HMMActual","null","","","","Images/BlackBeadChoice.png","null"
"image-keyboard-response","457","482983","0.0-4.0-2.145","9","High_HMMActual","null","","","","Images/BlackBeadChoiceCorrect.png","null"
"image-keyboard-response","458","483531","0.0-4.0-0.146","9","High_HMMActual","544.7100000455976","","","","Images/NewTrialBC.png","37"
"image-keyboard-response","459","483933","0.0-4.0-1.146","9","High_HMMActual","null","","","","Images/BlackBeadChoice.png","null"
"image-keyboard-response","460","484636","0.0-4.0-2.146","9","High_HMMActual","null","","","","Images/BlackBeadChoiceCorrect.png","null"
"image-keyboard-response","461","485058","0.0-4.0-0.147","9","High_HMMActual","419.0000002272427","","","","Images/NewTrialBC.png","37"
"image-keyboard-response","462","485464","0.0-4.0-1.147","9","High_HMMActual","null","","","","Images/BlackBeadChoice.png","null"
"image-keyboard-response","463","486167","0.0-4.0-2.147","9","High_HMMActual","null","","","","Images/BlackBeadChoiceCorrect.png","null"
"image-keyboard-response","464","486517","0.0-4.0-0.148","9","High_HMMActual","346.4399999938905","","","","Images/NewTrialBC.png","39"
"image-keyboard-response","465","486920","0.0-4.0-1.148","9","High_HMMActual","null","","","","Images/WhiteBeadChoice.png","null"
"image-keyboard-response","466","487623","0.0-4.0-2.148","9","High_HMMActual","null","","","","Images/WhiteBeadChoiceCorrect.png","null"
"image-keyboard-response","467","488110","0.0-4.0-0.149","9","High_HMMActual","483.88499999418855","","","","Images/NewTrialWC.png","39"
"image-keyboard-response","468","488513","0.0-4.0-1.149","9","High_HMMActual","null","","","","Images/WhiteBeadChoice.png","null"
"image-keyboard-response","469","489216","0.0-4.0-2.149","9","High_HMMActual","null","","","","Images/WhiteBeadChoiceWrong.png","null"
"image-keyboard-response","470","490421","0.0-4.0-0.150","9","High_HMMActual","1199.3499998934567","","","","Images/NewTrialBC.png","39"
"image-keyboard-response","471","490823","0.0-4.0-1.150","9","High_HMMActual","null","","","","Images/WhiteBeadChoice.png","null"
"image-keyboard-response","472","491527","0.0-4.0-2.150","9","High_HMMActual","null","","","","Images/WhiteBeadChoiceCorrect.png","null"
"image-keyboard-response","473","491745","0.0-4.0-0.151","9","High_HMMActual","215.40499990805984","","","","Images/NewTrialWC.png","39"
"image-keyboard-response","474","492148","0.0-4.0-1.151","9","High_HMMActual","null","","","","Images/WhiteBeadChoice.png","null"
"image-keyboard-response","475","492851","0.0-4.0-2.151","9","High_HMMActual","null","","","","Images/WhiteBeadChoiceCorrect.png","null"
"image-keyboard-response","476","493148","0.0-4.0-0.152","9","High_HMMActual","294.579999987036","","","","Images/NewTrialWC.png","37"
"image-keyboard-response","477","493551","0.0-4.0-1.152","9","High_HMMActual","null","","","","Images/BlackBeadChoice.png","null"
"image-keyboard-response","478","494254","0.0-4.0-2.152","9","High_HMMActual","null","","","","Images/BlackBeadChoiceWrong.png","null"
"image-keyboard-response","479","494692","0.0-4.0-0.153","9","High_HMMActual","434.9549999460578","","","","Images/NewTrialWC.png","39"
"image-keyboard-response","480","495095","0.0-4.0-1.153","9","High_HMMActual","null","","","","Images/WhiteBeadChoice.png","null"
"image-keyboard-response","481","495799","0.0-4.0-2.153","9","High_HMMActual","null","","","","Images/WhiteBeadChoiceWrong.png","null"
"image-keyboard-response","482","497612","0.0-4.0-0.154","9","High_HMMActual","1809.889999916777","","","","Images/NewTrialBC.png","39"
"image-keyboard-response","483","498015","0.0-4.0-1.154","9","High_HMMActual","null","","","","Images/WhiteBeadChoice.png","null"
"image-keyboard-response","484","498719","0.0-4.0-2.154","9","High_HMMActual","null","","","","Images/WhiteBeadChoiceCorrect.png","null"
"image-keyboard-response","485","499010","0.0-4.0-0.155","9","High_HMMActual","287.8550000023097","","","","Images/NewTrialWC.png","37"
"image-keyboard-response","486","499413","0.0-4.0-1.155","9","High_HMMActual","null","","","","Images/BlackBeadChoice.png","null"
"image-keyboard-response","487","500116","0.0-4.0-2.155","9","High_HMMActual","null","","","","Images/BlackBeadChoiceCorrect.png","null"
"image-keyboard-response","488","502098","0.0-4.0-0.156","9","High_HMMActual","1978.770000161603","","","","Images/NewTrialBC.png","39"
"image-keyboard-response","489","502501","0.0-4.0-1.156","9","High_HMMActual","null","","","","Images/WhiteBeadChoice.png","null"
"image-keyboard-response","490","503204","0.0-4.0-2.156","9","High_HMMActual","null","","","","Images/WhiteBeadChoiceCorrect.png","null"
"image-keyboard-response","491","503597","0.0-4.0-0.157","9","High_HMMActual","388.3400000631809","","","","Images/NewTrialWC.png","37"
"image-keyboard-response","492","503999","0.0-4.0-1.157","9","High_HMMActual","null","","","","Images/BlackBeadChoice.png","null"
"image-keyboard-response","493","504703","0.0-4.0-2.157","9","High_HMMActual","null","","","","Images/BlackBeadChoiceCorrect.png","null"
"image-keyboard-response","494","511814","0.0-4.0-0.158","9","High_HMMActual","7107.489999849349","","","","Images/NewTrialBC.png","39"
"image-keyboard-response","495","512218","0.0-4.0-1.158","9","High_HMMActual","null","","","","Images/WhiteBeadChoice.png","null"
"image-keyboard-response","496","512922","0.0-4.0-2.158","9","High_HMMActual","null","","","","Images/WhiteBeadChoiceCorrect.png","null"
"image-keyboard-response","497","514083","0.0-4.0-0.159","9","High_HMMActual","1157.5899999588728","","","","Images/NewTrialWC.png","37"
"image-keyboard-response","498","514486","0.0-4.0-1.159","9","High_HMMActual","null","","","","Images/BlackBeadChoice.png","null"
"image-keyboard-response","499","515189","0.0-4.0-2.159","9","High_HMMActual","null","","","","Images/BlackBeadChoiceCorrect.png","null"
"image-keyboard-response","500","517043","0.0-4.0-0.160","9","High_HMMActual","1850.974999833852","","","","Images/NewTrialBC.png","37"
"image-keyboard-response","501","517446","0.0-4.0-1.160","9","High_HMMActual","null","","","","Images/BlackBeadChoice.png","null"
"image-keyboard-response","502","518151","0.0-4.0-2.160","9","High_HMMActual","null","","","","Images/BlackBeadChoiceWrong.png","null"
"image-keyboard-response","503","520430","0.0-4.0-0.161","9","High_HMMActual","2275.205000070855","","","","Images/NewTrialWC.png","37"
"image-keyboard-response","504","520833","0.0-4.0-1.161","9","High_HMMActual","null","","","","Images/BlackBeadChoice.png","null"
"image-keyboard-response","505","521536","0.0-4.0-2.161","9","High_HMMActual","null","","","","Images/BlackBeadChoiceCorrect.png","null"
"image-keyboard-response","506","524489","0.0-4.0-0.162","9","High_HMMActual","2947.1400000620633","","","","Images/NewTrialBC.png","39"
"image-keyboard-response","507","524892","0.0-4.0-1.162","9","High_HMMActual","null","","","","Images/WhiteBeadChoice.png","null"
"image-keyboard-response","508","525595","0.0-4.0-2.162","9","High_HMMActual","null","","","","Images/WhiteBeadChoiceCorrect.png","null"
"image-keyboard-response","509","526637","0.0-4.0-0.163","9","High_HMMActual","1038.7500000651926","","","","Images/NewTrialWC.png","37"
"image-keyboard-response","510","527041","0.0-4.0-1.163","9","High_HMMActual","null","","","","Images/BlackBeadChoice.png","null"
"image-keyboard-response","511","527745","0.0-4.0-2.163","9","High_HMMActual","null","","","","Images/BlackBeadChoiceCorrect.png","null"
"image-keyboard-response","512","529027","0.0-4.0-0.164","9","High_HMMActual","1278.480000095442","","","","Images/NewTrialBC.png","39"
"image-keyboard-response","513","529430","0.0-4.0-1.164","9","High_HMMActual","null","","","","Images/WhiteBeadChoice.png","null"
"image-keyboard-response","514","530133","0.0-4.0-2.164","9","High_HMMActual","null","","","","Images/WhiteBeadChoiceCorrect.png","null"
"image-keyboard-response","515","530738","0.0-4.0-0.165","9","High_HMMActual","602.4599999655038","","","","Images/NewTrialWC.png","37"
"image-keyboard-response","516","531140","0.0-4.0-1.165","9","High_HMMActual","null","","","","Images/BlackBeadChoice.png","null"
"image-keyboard-response","517","531843","0.0-4.0-2.165","9","High_HMMActual","null","","","","Images/BlackBeadChoiceCorrect.png","null"
"image-keyboard-response","518","532359","0.0-4.0-0.166","9","High_HMMActual","511.9650000706315","","","","Images/NewTrialBC.png","39"
"image-keyboard-response","519","532761","0.0-4.0-1.166","9","High_HMMActual","null","","","","Images/WhiteBeadChoice.png","null"
"image-keyboard-response","520","533465","0.0-4.0-2.166","9","High_HMMActual","null","","","","Images/WhiteBeadChoiceWrong.png","null"
"image-keyboard-response","521","533715","0.0-4.0-0.167","9","High_HMMActual","247.78499989770353","","","","Images/NewTrialBC.png","37"
"image-keyboard-response","522","534120","0.0-4.0-1.167","9","High_HMMActual","null","","","","Images/BlackBeadChoice.png","null"
"image-keyboard-response","523","534823","0.0-4.0-2.167","9","High_HMMActual","null","","","","Images/BlackBeadChoiceWrong.png","null"
"image-keyboard-response","524","535536","0.0-4.0-0.168","9","High_HMMActual","710.3049999568611","","","","Images/NewTrialWC.png","37"
"image-keyboard-response","525","535939","0.0-4.0-1.168","9","High_HMMActual","null","","","","Images/BlackBeadChoice.png","null"
"image-keyboard-response","526","536643","0.0-4.0-2.168","9","High_HMMActual","null","","","","Images/BlackBeadChoiceWrong.png","null"
"image-keyboard-response","527","537377","0.0-4.0-0.169","9","High_HMMActual","731.2600000295788","","","","Images/NewTrialWC.png","39"
"image-keyboard-response","528","537781","0.0-4.0-1.169","9","High_HMMActual","null","","","","Images/WhiteBeadChoice.png","null"
"image-keyboard-response","529","538485","0.0-4.0-2.169","9","High_HMMActual","null","","","","Images/WhiteBeadChoiceWrong.png","null"
"image-keyboard-response","530","539338","0.0-4.0-0.170","9","High_HMMActual","850.194999948144","","","","Images/NewTrialBC.png","37"
"image-keyboard-response","531","539741","0.0-4.0-1.170","9","High_HMMActual","null","","","","Images/BlackBeadChoice.png","null"
"image-keyboard-response","532","540446","0.0-4.0-2.170","9","High_HMMActual","null","","","","Images/BlackBeadChoiceWrong.png","null"
"image-keyboard-response","533","541069","0.0-4.0-0.171","9","High_HMMActual","619.8700000531971","","","","Images/NewTrialWC.png","37"
"image-keyboard-response","534","541474","0.0-4.0-1.171","9","High_HMMActual","null","","","","Images/BlackBeadChoice.png","null"
"image-keyboard-response","535","542181","0.0-4.0-2.171","9","High_HMMActual","null","","","","Images/BlackBeadChoiceCorrect.png","null"
"image-keyboard-response","536","542806","0.0-4.0-0.172","9","High_HMMActual","622.7150000631809","","","","Images/NewTrialBC.png","39"
"image-keyboard-response","537","543209","0.0-4.0-1.172","9","High_HMMActual","null","","","","Images/WhiteBeadChoice.png","null"
"image-keyboard-response","538","543912","0.0-4.0-2.172","9","High_HMMActual","null","","","","Images/WhiteBeadChoiceCorrect.png","null"
"image-keyboard-response","539","544456","0.0-4.0-0.173","9","High_HMMActual","539.7399999201298","","","","Images/NewTrialWC.png","39"
"image-keyboard-response","540","544858","0.0-4.0-1.173","9","High_HMMActual","null","","","","Images/WhiteBeadChoice.png","null"
"image-keyboard-response","541","545562","0.0-4.0-2.173","9","High_HMMActual","null","","","","Images/WhiteBeadChoiceCorrect.png","null"
"image-keyboard-response","542","545959","0.0-4.0-0.174","9","High_HMMActual","394.1599999088794","","","","Images/NewTrialWC.png","39"
"image-keyboard-response","543","546362","0.0-4.0-1.174","9","High_HMMActual","null","","","","Images/WhiteBeadChoice.png","null"
"image-keyboard-response","544","547066","0.0-4.0-2.174","9","High_HMMActual","null","","","","Images/WhiteBeadChoiceCorrect.png","null"
"image-keyboard-response","545","547322","0.0-4.0-0.175","9","High_HMMActual","252.73500010371208","","","","Images/NewTrialWC.png","37"
"image-keyboard-response","546","547725","0.0-4.0-1.175","9","High_HMMActual","null","","","","Images/BlackBeadChoice.png","null"
"image-keyboard-response","547","548429","0.0-4.0-2.175","9","High_HMMActual","null","","","","Images/BlackBeadChoiceCorrect.png","null"
"image-keyboard-response","548","548824","0.0-4.0-0.176","9","High_HMMActual","390.9599999897182","","","","Images/NewTrialBC.png","37"
"image-keyboard-response","549","549226","0.0-4.0-1.176","9","High_HMMActual","null","","","","Images/BlackBeadChoice.png","null"
"image-keyboard-response","550","549930","0.0-4.0-2.176","9","High_HMMActual","null","","","","Images/BlackBeadChoiceWrong.png","null"
"image-keyboard-response","551","550210","0.0-4.0-0.177","9","High_HMMActual","277.2399999666959","","","","Images/NewTrialWC.png","39"
"image-keyboard-response","552","550614","0.0-4.0-1.177","9","High_HMMActual","null","","","","Images/WhiteBeadChoice.png","null"
"image-keyboard-response","553","551317","0.0-4.0-2.177","9","High_HMMActual","null","","","","Images/WhiteBeadChoiceWrong.png","null"
"image-keyboard-response","554","553520","0.0-4.0-0.178","9","High_HMMActual","2200.315000023693","","","","Images/NewTrialBC.png","39"
"image-keyboard-response","555","553924","0.0-4.0-1.178","9","High_HMMActual","null","","","","Images/WhiteBeadChoice.png","null"
"image-keyboard-response","556","554628","0.0-4.0-2.178","9","High_HMMActual","null","","","","Images/WhiteBeadChoiceCorrect.png","null"
"image-keyboard-response","557","555416","0.0-4.0-0.179","9","High_HMMActual","785.3399999439716","","","","Images/NewTrialWC.png","39"
"image-keyboard-response","558","555819","0.0-4.0-1.179","9","High_HMMActual","null","","","","Images/WhiteBeadChoice.png","null"
"image-keyboard-response","559","556525","0.0-4.0-2.179","9","High_HMMActual","null","","","","Images/WhiteBeadChoiceWrong.png","null"
"image-keyboard-response","560","556878","0.0-4.0-0.180","9","High_HMMActual","349.96999986469746","","","","Images/NewTrialBC.png","37"
"image-keyboard-response","561","557281","0.0-4.0-1.180","9","High_HMMActual","null","","","","Images/BlackBeadChoice.png","null"
"image-keyboard-response","562","557983","0.0-4.0-2.180","9","High_HMMActual","null","","","","Images/BlackBeadChoiceCorrect.png","null"
"image-keyboard-response","563","558350","0.0-4.0-0.181","9","High_HMMActual","363.81500004790723","","","","Images/NewTrialBC.png","37"
"image-keyboard-response","564","558753","0.0-4.0-1.181","9","High_HMMActual","null","","","","Images/BlackBeadChoice.png","null"
"image-keyboard-response","565","559457","0.0-4.0-2.181","9","High_HMMActual","null","","","","Images/BlackBeadChoiceCorrect.png","null"
"image-keyboard-response","566","559616","0.0-4.0-0.182","9","High_HMMActual","156.25500003807247","","","","Images/NewTrialBC.png","37"
"image-keyboard-response","567","560019","0.0-4.0-1.182","9","High_HMMActual","null","","","","Images/BlackBeadChoice.png","null"
"image-keyboard-response","568","560723","0.0-4.0-2.182","9","High_HMMActual","null","","","","Images/BlackBeadChoiceWrong.png","null"
"image-keyboard-response","569","561497","0.0-4.0-0.183","9","High_HMMActual","770.6699999980628","","","","Images/NewTrialWC.png","37"
"image-keyboard-response","570","561900","0.0-4.0-1.183","9","High_HMMActual","null","","","","Images/BlackBeadChoice.png","null"
"image-keyboard-response","571","562605","0.0-4.0-2.183","9","High_HMMActual","null","","","","Images/BlackBeadChoiceCorrect.png","null"
"image-keyboard-response","572","563049","0.0-4.0-0.184","9","High_HMMActual","440.9900000318885","","","","Images/NewTrialBC.png","39"
"image-keyboard-response","573","563452","0.0-4.0-1.184","9","High_HMMActual","null","","","","Images/WhiteBeadChoice.png","null"
"image-keyboard-response","574","564156","0.0-4.0-2.184","9","High_HMMActual","null","","","","Images/WhiteBeadChoiceCorrect.png","null"
"image-keyboard-response","575","564672","0.0-4.0-0.185","9","High_HMMActual","513.7799999210984","","","","Images/NewTrialWC.png","39"
"image-keyboard-response","576","565076","0.0-4.0-1.185","9","High_HMMActual","null","","","","Images/WhiteBeadChoice.png","null"
"image-keyboard-response","577","565779","0.0-4.0-2.185","9","High_HMMActual","null","","","","Images/WhiteBeadChoiceCorrect.png","null"
"image-keyboard-response","578","566172","0.0-4.0-0.186","9","High_HMMActual","389.67000017873943","","","","Images/NewTrialWC.png","37"
"image-keyboard-response","579","566575","0.0-4.0-1.186","9","High_HMMActual","null","","","","Images/BlackBeadChoice.png","null"
"image-keyboard-response","580","567278","0.0-4.0-2.186","9","High_HMMActual","null","","","","Images/BlackBeadChoiceWrong.png","null"
"image-keyboard-response","581","567654","0.0-4.0-0.187","9","High_HMMActual","373.0150000192225","","","","Images/NewTrialWC.png","39"
"image-keyboard-response","582","568057","0.0-4.0-1.187","9","High_HMMActual","null","","","","Images/WhiteBeadChoice.png","null"
"image-keyboard-response","583","568761","0.0-4.0-2.187","9","High_HMMActual","693.9099999144673","","","","Images/WhiteBeadChoiceWrong.png","37"
"image-keyboard-response","584","569755","0.0-4.0-0.188","9","High_HMMActual","990.7449998427182","","","","Images/NewTrialBC.png","37"
"image-keyboard-response","585","570158","0.0-4.0-1.188","9","High_HMMActual","null","","","","Images/BlackBeadChoice.png","null"
"image-keyboard-response","586","570862","0.0-4.0-2.188","9","High_HMMActual","null","","","","Images/BlackBeadChoiceWrong.png","null"
"image-keyboard-response","587","572131","0.0-4.0-0.189","9","High_HMMActual","1266.3050000555813","","","","Images/NewTrialWC.png","37"
"image-keyboard-response","588","572533","0.0-4.0-1.189","9","High_HMMActual","null","","","","Images/BlackBeadChoice.png","null"
"image-keyboard-response","589","573236","0.0-4.0-2.189","9","High_HMMActual","null","","","","Images/BlackBeadChoiceCorrect.png","null"
"image-keyboard-response","590","573929","0.0-4.0-0.190","9","High_HMMActual","689.7799998987466","","","","Images/NewTrialBC.png","39"
"image-keyboard-response","591","574332","0.0-4.0-1.190","9","High_HMMActual","null","","","","Images/WhiteBeadChoice.png","null"
"image-keyboard-response","592","575036","0.0-4.0-2.190","9","High_HMMActual","null","","","","Images/WhiteBeadChoiceCorrect.png","null"
"image-keyboard-response","593","575330","0.0-4.0-0.191","9","High_HMMActual","290.6549999024719","","","","Images/NewTrialWC.png","37"
"image-keyboard-response","594","575733","0.0-4.0-1.191","9","High_HMMActual","null","","","","Images/BlackBeadChoice.png","null"
"image-keyboard-response","595","576437","0.0-4.0-2.191","9","High_HMMActual","null","","","","Images/BlackBeadChoiceCorrect.png","null"
"image-keyboard-response","596","582914","0.0-4.0-0.192","9","High_HMMActual","6473.72499993071","","","","Images/NewTrialBC.png","39"
"image-keyboard-response","597","583319","0.0-4.0-1.192","9","High_HMMActual","null","","","","Images/WhiteBeadChoice.png","null"
"image-keyboard-response","598","584023","0.0-4.0-2.192","9","High_HMMActual","null","","","","Images/WhiteBeadChoiceCorrect.png","null"
"image-keyboard-response","599","584700","0.0-4.0-0.193","9","High_HMMActual","674.824999878183","","","","Images/NewTrialWC.png","37"
"image-keyboard-response","600","585103","0.0-4.0-1.193","9","High_HMMActual","null","","","","Images/BlackBeadChoice.png","null"
"image-keyboard-response","601","585807","0.0-4.0-2.193","9","High_HMMActual","null","","","","Images/BlackBeadChoiceCorrect.png","null"
"image-keyboard-response","602","586605","0.0-4.0-0.194","9","High_HMMActual","794.2100001964718","","","","Images/NewTrialBC.png","39"
"image-keyboard-response","603","587008","0.0-4.0-1.194","9","High_HMMActual","null","","","","Images/WhiteBeadChoice.png","null"
"image-keyboard-response","604","587714","0.0-4.0-2.194","9","High_HMMActual","null","","","","Images/WhiteBeadChoiceCorrect.png","null"
"image-keyboard-response","605","588290","0.0-4.0-0.195","9","High_HMMActual","572.0799998380244","","","","Images/NewTrialWC.png","37"
"image-keyboard-response","606","588693","0.0-4.0-1.195","9","High_HMMActual","null","","","","Images/BlackBeadChoice.png","null"
"image-keyboard-response","607","589397","0.0-4.0-2.195","9","High_HMMActual","null","","","","Images/BlackBeadChoiceWrong.png","null"
"image-keyboard-response","608","589992","0.0-4.0-0.196","9","High_HMMActual","592.8400000557303","","","","Images/NewTrialWC.png","37"
"image-keyboard-response","609","590395","0.0-4.0-1.196","9","High_HMMActual","null","","","","Images/BlackBeadChoice.png","null"
"image-keyboard-response","610","591099","0.0-4.0-2.196","9","High_HMMActual","null","","","","Images/BlackBeadChoiceWrong.png","null"
"image-keyboard-response","611","591532","0.0-4.0-0.197","9","High_HMMActual","429.65500010177493","","","","Images/NewTrialWC.png","39"
"image-keyboard-response","612","591935","0.0-4.0-1.197","9","High_HMMActual","null","","","","Images/WhiteBeadChoice.png","null"
"image-keyboard-response","613","592639","0.0-4.0-2.197","9","High_HMMActual","null","","","","Images/WhiteBeadChoiceCorrect.png","null"
"image-keyboard-response","614","593707","0.0-4.0-0.198","9","High_HMMActual","1065.500000026077","","","","Images/NewTrialWC.png","37"
"image-keyboard-response","615","594110","0.0-4.0-1.198","9","High_HMMActual","null","","","","Images/BlackBeadChoice.png","null"
"image-keyboard-response","616","594815","0.0-4.0-2.198","9","High_HMMActual","null","","","","Images/BlackBeadChoiceCorrect.png","null"
"image-keyboard-response","617","595277","0.0-4.0-0.199","9","High_HMMActual","458.83000013418496","","","","Images/NewTrialBC.png","37"
"image-keyboard-response","618","595681","0.0-4.0-1.199","9","High_HMMActual","null","","","","Images/BlackBeadChoice.png","null"
"image-keyboard-response","619","596386","0.0-4.0-2.199","9","High_HMMActual","null","","","","Images/BlackBeadChoiceCorrect.png","null"
"image-keyboard-response","620","596735","0.0-4.0-0.200","9","High_HMMActual","346.1050000041723","","","","Images/NewTrialBC.png","37"
"image-keyboard-response","621","597138","0.0-4.0-1.200","9","High_HMMActual","null","","","","Images/BlackBeadChoice.png","null"
"image-keyboard-response","622","597841","0.0-4.0-2.200","9","High_HMMActual","null","","","","Images/BlackBeadChoiceCorrect.png","null"
"image-keyboard-response","623","599372","0.0-4.0-0.201","9","High_HMMActual","1528.175000101328","","","","Images/NewTrialBC.png","39"
"image-keyboard-response","624","599775","0.0-4.0-1.201","9","High_HMMActual","null","","","","Images/WhiteBeadChoice.png","null"
"image-keyboard-response","625","600480","0.0-4.0-2.201","9","High_HMMActual","null","","","","Images/WhiteBeadChoiceWrong.png","null"
"image-keyboard-response","626","601169","0.0-4.0-0.202","9","High_HMMActual","685.8650001231581","","","","Images/NewTrialBC.png","39"
"image-keyboard-response","627","601572","0.0-4.0-1.202","9","High_HMMActual","null","","","","Images/WhiteBeadChoice.png","null"
"image-keyboard-response","628","602276","0.0-4.0-2.202","9","High_HMMActual","null","","","","Images/WhiteBeadChoiceWrong.png","null"
"image-keyboard-response","629","602655","0.0-4.0-0.203","9","High_HMMActual","376.24000012874603","","","","Images/NewTrialBC.png","37"
"image-keyboard-response","630","603059","0.0-4.0-1.203","9","High_HMMActual","null","","","","Images/BlackBeadChoice.png","null"
"image-keyboard-response","631","603763","0.0-4.0-2.203","9","High_HMMActual","null","","","","Images/BlackBeadChoiceWrong.png","null"
"image-keyboard-response","632","605129","0.0-4.0-0.204","9","High_HMMActual","1363.1749998312443","","","","Images/NewTrialWC.png","37"
"image-keyboard-response","633","605533","0.0-4.0-1.204","9","High_HMMActual","null","","","","Images/BlackBeadChoice.png","null"
"image-keyboard-response","634","606237","0.0-4.0-2.204","9","High_HMMActual","null","","","","Images/BlackBeadChoiceWrong.png","null"
"image-keyboard-response","635","606548","0.0-4.0-0.205","9","High_HMMActual","307.3800001293421","","","","Images/NewTrialWC.png","39"
"image-keyboard-response","636","606951","0.0-4.0-1.205","9","High_HMMActual","null","","","","Images/WhiteBeadChoice.png","null"
"image-keyboard-response","637","607654","0.0-4.0-2.205","9","High_HMMActual","null","","","","Images/WhiteBeadChoiceCorrect.png","null"
"image-keyboard-response","638","607963","0.0-4.0-0.206","9","High_HMMActual","306.3550000078976","","","","Images/NewTrialWC.png","39"
"image-keyboard-response","639","608367","0.0-4.0-1.206","9","High_HMMActual","null","","","","Images/WhiteBeadChoice.png","null"
"image-keyboard-response","640","609071","0.0-4.0-2.206","9","High_HMMActual","null","","","","Images/WhiteBeadChoiceWrong.png","null"
"image-keyboard-response","641","609777","0.0-4.0-0.207","9","High_HMMActual","703.0000002123415","","","","Images/NewTrialBC.png","37"
"image-keyboard-response","642","610181","0.0-4.0-1.207","9","High_HMMActual","null","","","","Images/BlackBeadChoice.png","null"
"image-keyboard-response","643","610885","0.0-4.0-2.207","9","High_HMMActual","null","","","","Images/BlackBeadChoiceWrong.png","null"
"image-keyboard-response","644","612143","0.0-4.0-0.208","9","High_HMMActual","1253.5999999381602","","","","Images/NewTrialWC.png","37"
"image-keyboard-response","645","612546","0.0-4.0-1.208","9","High_HMMActual","null","","","","Images/BlackBeadChoice.png","null"
"image-keyboard-response","646","613250","0.0-4.0-2.208","9","High_HMMActual","null","","","","Images/BlackBeadChoiceCorrect.png","null"
"image-keyboard-response","647","613818","0.0-4.0-0.209","9","High_HMMActual","565.6399999279529","","","","Images/NewTrialBC.png","37"
"image-keyboard-response","648","614222","0.0-4.0-1.209","9","High_HMMActual","null","","","","Images/BlackBeadChoice.png","null"
"image-keyboard-response","649","614925","0.0-4.0-2.209","9","High_HMMActual","null","","","","Images/BlackBeadChoiceWrong.png","null"
"image-keyboard-response","650","615238","0.0-4.0-0.210","9","High_HMMActual","310.7349998317659","","","","Images/NewTrialWC.png","39"
"image-keyboard-response","651","615641","0.0-4.0-1.210","9","High_HMMActual","null","","","","Images/WhiteBeadChoice.png","null"
"image-keyboard-response","652","616344","0.0-4.0-2.210","9","High_HMMActual","null","","","","Images/WhiteBeadChoiceCorrect.png","null"
"image-keyboard-response","653","616534","0.0-4.0-0.211","9","High_HMMActual","187.1650000102818","","","","Images/NewTrialWC.png","39"
"image-keyboard-response","654","616937","0.0-4.0-1.211","9","High_HMMActual","null","","","","Images/WhiteBeadChoice.png","null"
"image-keyboard-response","655","617640","0.0-4.0-2.211","9","High_HMMActual","null","","","","Images/WhiteBeadChoiceCorrect.png","null"
"image-keyboard-response","656","618130","0.0-4.0-0.212","9","High_HMMActual","486.26000015065074","","","","Images/NewTrialWC.png","39"
"image-keyboard-response","657","618532","0.0-4.0-1.212","9","High_HMMActual","null","","","","Images/WhiteBeadChoice.png","null"
"image-keyboard-response","658","619236","0.0-4.0-2.212","9","High_HMMActual","null","","","","Images/WhiteBeadChoiceCorrect.png","null"
"image-keyboard-response","659","619614","0.0-4.0-0.213","9","High_HMMActual","375.400000018999","","","","Images/NewTrialWC.png","39"
"image-keyboard-response","660","620018","0.0-4.0-1.213","9","High_HMMActual","null","","","","Images/WhiteBeadChoice.png","null"
"image-keyboard-response","661","620720","0.0-4.0-2.213","9","High_HMMActual","null","","","","Images/WhiteBeadChoiceCorrect.png","null"
"image-keyboard-response","662","621399","0.0-4.0-0.214","9","High_HMMActual","675.8400001563132","","","","Images/NewTrialWC.png","39"
"image-keyboard-response","663","621802","0.0-4.0-1.214","9","High_HMMActual","null","","","","Images/WhiteBeadChoice.png","null"
"image-keyboard-response","664","622506","0.0-4.0-2.214","9","High_HMMActual","null","","","","Images/WhiteBeadChoiceWrong.png","null"
"image-keyboard-response","665","625424","0.0-4.0-0.215","9","High_HMMActual","2915.4149999376386","","","","Images/NewTrialBC.png","39"
"image-keyboard-response","666","625828","0.0-4.0-1.215","9","High_HMMActual","null","","","","Images/WhiteBeadChoice.png","null"
"image-keyboard-response","667","626532","0.0-4.0-2.215","9","High_HMMActual","null","","","","Images/WhiteBeadChoiceWrong.png","null"
"image-keyboard-response","668","626654","0.0-4.0-0.216","9","High_HMMActual","119.15499996393919","","","","Images/NewTrialBC.png","37"
"image-keyboard-response","669","627059","0.0-4.0-1.216","9","High_HMMActual","null","","","","Images/BlackBeadChoice.png","null"
"image-keyboard-response","670","627763","0.0-4.0-2.216","9","High_HMMActual","null","","","","Images/BlackBeadChoiceCorrect.png","null"
"image-keyboard-response","671","628049","0.0-4.0-0.217","9","High_HMMActual","282.2149998974055","","","","Images/NewTrialBC.png","37"
"image-keyboard-response","672","628451","0.0-4.0-1.217","9","High_HMMActual","null","","","","Images/BlackBeadChoice.png","null"
"image-keyboard-response","673","629155","0.0-4.0-2.217","9","High_HMMActual","null","","","","Images/BlackBeadChoiceWrong.png","null"
"image-keyboard-response","674","630773","0.0-4.0-0.218","9","High_HMMActual","1615.2699999511242","","","","Images/NewTrialWC.png","37"
"image-keyboard-response","675","631176","0.0-4.0-1.218","9","High_HMMActual","null","","","","Images/BlackBeadChoice.png","null"
"image-keyboard-response","676","631880","0.0-4.0-2.218","9","High_HMMActual","null","","","","Images/BlackBeadChoiceCorrect.png","null"
"image-keyboard-response","677","632407","0.0-4.0-0.219","9","High_HMMActual","524.0100000519305","","","","Images/NewTrialBC.png","39"
"image-keyboard-response","678","632810","0.0-4.0-1.219","9","High_HMMActual","null","","","","Images/WhiteBeadChoice.png","null"
"image-keyboard-response","679","633513","0.0-4.0-2.219","9","High_HMMActual","null","","","","Images/WhiteBeadChoiceCorrect.png","null"
"image-keyboard-response","680","634412","0.0-4.0-0.220","9","High_HMMActual","895.2399999834597","","","","Images/NewTrialWC.png","37"
"image-keyboard-response","681","634815","0.0-4.0-1.220","9","High_HMMActual","null","","","","Images/BlackBeadChoice.png","null"
"image-keyboard-response","682","635518","0.0-4.0-2.220","9","High_HMMActual","null","","","","Images/BlackBeadChoiceCorrect.png","null"
"image-keyboard-response","683","635736","0.0-4.0-0.221","9","High_HMMActual","214.780000038445","","","","Images/NewTrialBC.png","37"
"image-keyboard-response","684","636140","0.0-4.0-1.221","9","High_HMMActual","null","","","","Images/BlackBeadChoice.png","null"
"image-keyboard-response","685","636843","0.0-4.0-2.221","9","High_HMMActual","null","","","","Images/BlackBeadChoiceWrong.png","null"
"image-keyboard-response","686","637530","0.0-4.0-0.222","9","High_HMMActual","683.750000083819","","","","Images/NewTrialWC.png","39"
"image-keyboard-response","687","637933","0.0-4.0-1.222","9","High_HMMActual","null","","","","Images/WhiteBeadChoice.png","null"
"image-keyboard-response","688","638638","0.0-4.0-2.222","9","High_HMMActual","null","","","","Images/WhiteBeadChoiceWrong.png","null"
"image-keyboard-response","689","639532","0.0-4.0-0.223","9","High_HMMActual","891.2649999838322","","","","Images/NewTrialBC.png","39"
"image-keyboard-response","690","639935","0.0-4.0-1.223","9","High_HMMActual","null","","","","Images/WhiteBeadChoice.png","null"
"image-keyboard-response","691","640639","0.0-4.0-2.223","9","High_HMMActual","null","","","","Images/WhiteBeadChoiceCorrect.png","null"
"image-keyboard-response","692","641331","0.0-4.0-0.224","9","High_HMMActual","688.5349999647588","","","","Images/NewTrialWC.png","37"
"image-keyboard-response","693","641734","0.0-4.0-1.224","9","High_HMMActual","null","","","","Images/BlackBeadChoice.png","null"
"image-keyboard-response","694","642437","0.0-4.0-2.224","9","High_HMMActual","null","","","","Images/BlackBeadChoiceCorrect.png","null"
"image-keyboard-response","695","645177","0.0-4.0-0.225","9","High_HMMActual","2736.1450002063066","","","","Images/NewTrialBC.png","39"
"image-keyboard-response","696","645579","0.0-4.0-1.225","9","High_HMMActual","null","","","","Images/WhiteBeadChoice.png","null"
"image-keyboard-response","697","646283","0.0-4.0-2.225","9","High_HMMActual","null","","","","Images/WhiteBeadChoiceCorrect.png","null"
"image-keyboard-response","698","647965","0.0-4.0-0.226","9","High_HMMActual","1678.9249998982996","","","","Images/NewTrialWC.png","37"
"image-keyboard-response","699","648368","0.0-4.0-1.226","9","High_HMMActual","null","","","","Images/BlackBeadChoice.png","null"
"image-keyboard-response","700","649071","0.0-4.0-2.226","9","High_HMMActual","null","","","","Images/BlackBeadChoiceCorrect.png","null"
"image-keyboard-response","701","649709","0.0-4.0-0.227","9","High_HMMActual","635.200000135228","","","","Images/NewTrialBC.png","37"
"image-keyboard-response","702","650112","0.0-4.0-1.227","9","High_HMMActual","null","","","","Images/BlackBeadChoice.png","null"
"image-keyboard-response","703","650816","0.0-4.0-2.227","9","High_HMMActual","null","","","","Images/BlackBeadChoiceWrong.png","null"
"image-keyboard-response","704","652568","0.0-4.0-0.228","9","High_HMMActual","1749.1950001567602","","","","Images/NewTrialWC.png","37"
"image-keyboard-response","705","652972","0.0-4.0-1.228","9","High_HMMActual","null","","","","Images/BlackBeadChoice.png","null"
"image-keyboard-response","706","653675","0.0-4.0-2.228","9","High_HMMActual","null","","","","Images/BlackBeadChoiceWrong.png","null"
"image-keyboard-response","707","654528","0.0-4.0-0.229","9","High_HMMActual","849.9449999071658","","","","Images/NewTrialWC.png","37"
"image-keyboard-response","708","654931","0.0-4.0-1.229","9","High_HMMActual","null","","","","Images/BlackBeadChoice.png","null"
"image-keyboard-response","709","655634","0.0-4.0-2.229","9","High_HMMActual","null","","","","Images/BlackBeadChoiceWrong.png","null"
"image-keyboard-response","710","656586","0.0-4.0-0.230","9","High_HMMActual","948.6899999901652","","","","Images/NewTrialWC.png","39"
"image-keyboard-response","711","656989","0.0-4.0-1.230","9","High_HMMActual","null","","","","Images/WhiteBeadChoice.png","null"
"image-keyboard-response","712","657693","0.0-4.0-2.230","9","High_HMMActual","null","","","","Images/WhiteBeadChoiceWrong.png","null"
"image-keyboard-response","713","661113","0.0-4.0-0.231","9","High_HMMActual","3416.6599998716265","","","","Images/NewTrialBC.png","39"
"image-keyboard-response","714","661517","0.0-4.0-1.231","9","High_HMMActual","null","","","","Images/WhiteBeadChoice.png","null"
"image-keyboard-response","715","662222","0.0-4.0-2.231","9","High_HMMActual","null","","","","Images/WhiteBeadChoiceCorrect.png","null"
"image-keyboard-response","716","663482","0.0-4.0-0.232","9","High_HMMActual","1256.834999890998","","","","Images/NewTrialWC.png","37"
"image-keyboard-response","717","663885","0.0-4.0-1.232","9","High_HMMActual","null","","","","Images/BlackBeadChoice.png","null"
"image-keyboard-response","718","664589","0.0-4.0-2.232","9","High_HMMActual","null","","","","Images/BlackBeadChoiceCorrect.png","null"
"image-keyboard-response","719","665951","0.0-4.0-0.233","9","High_HMMActual","1358.7249999400228","","","","Images/NewTrialBC.png","39"
"image-keyboard-response","720","666354","0.0-4.0-1.233","9","High_HMMActual","null","","","","Images/WhiteBeadChoice.png","null"
"image-keyboard-response","721","667059","0.0-4.0-2.233","9","High_HMMActual","null","","","","Images/WhiteBeadChoiceCorrect.png","null"
