"trial_type","trial_index","time_elapsed","internal_node_id","Script_Picker","Block_Type","rt","url","responses","question_order","stimulus","key_press"
"pavlovia","0","3","0.0-0.0","18","Low_HMMActual","","","","","",""
"external-html","1","23243","0.0-1.0-0.0","18","Low_HMMActual","23189.325000159442","consent.html","","","",""
"survey-multi-choice","2","30339","0.0-1.0-1.0","18","Low_HMMActual","7094.29999999702","","{""Q0"":""Female"",""Q1"":""White""}","[0,1]","",""
"survey-text","3","35347","0.0-1.0-2.0","18","Low_HMMActual","4999.844999983907","","{""Q0"":""19""}","","",""
"survey-text","4","42194","0.0-1.0-3.0","18","Low_HMMActual","6744.414999848232","","{""Q0"":""5edacde0e3362f195a4ff727""}","","",""
"html-keyboard-response","5","55850","0.0-2.0-0.0","18","Low_HMMActual","13552.355000050738","","","","<div class=""container"" style=""height:800px;width:800px;display:flex;flex-direction:column;justify-content:center;align-items:center;text-align:center;font-weight:normal;font-family:Arial;font-size:20px""><p>In this task you will see black or white beads being pulled from jars. <br><br>On each trial, a bead will be pulled from one of two jars. Once you see this bead, your goal is to predict the color of NEXT bead that will be pulled. <br> <br>Every time you correctly guess the color of the NEXT bead, you will get a point. <br><br>Press the SPACEBAR to continue.</p><div>","32"
"html-keyboard-response","6","61340","0.0-2.0-1.0","18","Low_HMMActual","5489.174999995157","","","","<div class=""container"" style=""height:800px;width:800px;display:flex;flex-direction:column;justify-content:center;align-items:center;text-align:center;font-weight:normal;font-family:Arial;font-size:20px""><p>Jars are filled with 80% white or black beads and 20% of the opposite color mixed in.<br><br>Press the SPACEBAR to continue. </p><div>","32"
"image-keyboard-response","7","66886","0.0-2.0-2.0","18","Low_HMMActual","5544.920000014827","","","","resources/WhiteJar_HMM.png","32"
"image-keyboard-response","8","68846","0.0-2.0-3.0","18","Low_HMMActual","1959.0650000609457","","","","resources/BlackJar_HMM.png","32"
"html-keyboard-response","9","76613","0.0-2.0-4.0","18","Low_HMMActual","7766.074999934062","","","","<div class=""container"" style=""height:800px;width:800px;display:flex;flex-direction:column;justify-content:center;align-items:center;text-align:center;font-weight:normal;font-family:Arial;font-size:20px""><p>There will be two blocks of trials. Each block will contain 500 trials. <br><br>Here are examples of what you will see on each trial.<br><br>Press the SPACEBAR to continue. </p><div>","32"
"image-keyboard-response","10","81701","0.0-2.0-5.0","18","Low_HMMActual","5087.115000002086","","","","Images/NoChoice.png","32"
"html-keyboard-response","11","122013","0.0-2.0-6.0","18","Low_HMMActual","40310.76000002213","","","","<div class=""container"" style=""height:800px;width:800px;display:flex;flex-direction:column;justify-content:center;align-items:center;text-align:center;font-weight:normal;font-family:Arial;font-size:20px""><p> The jar the beads are pulled from is NOT choosen at random on each trial.<br><br>After each prediction, there will be a chance that the jars will switch, and that the next bead will be pulled from the opposite jar as the previous trial.<br><br>In each block, the chance that a jar will switch will either be LOW (the jars will not switch very often), or HIGH (the jars will switch almost all the time).<br><br>At the start of each block, you will be told the probability that the jars will switch on each trial. This switch probability will stay constant throughout the block.<br><br>We will now show you some examples of beads being drawn from jars. The bead will appear in the middle of the screen, and the jar the bead was pulled from will be indicated with a black rectangle.<br><br>Press the SPACEBAR to continue. </p><div>","32"
"image-keyboard-response","12","129845","0.0-2.0-7.0","18","Low_HMMActual","7831.749999895692","","","","Images/TutorialWhiteJarDrawHMMC.png","32"
"image-keyboard-response","13","134180","0.0-2.0-8.0","18","Low_HMMActual","4334.2999999877065","","","","Images/TutorialBlackJarDrawHMMC.png","32"
"image-keyboard-response","14","136074","0.0-2.0-9.0","18","Low_HMMActual","1892.5600000657141","","","","Images/TutorialBlackJarDrawHMMI.png","32"
"html-keyboard-response","15","152169","0.0-2.0-10.0","18","Low_HMMActual","16094.919999828562","","","","<div class=""container"" style=""height:800px;width:800px;display:flex;flex-direction:column;justify-content:center;align-items:center;text-align:center;font-weight:normal;font-family:Arial;font-size:20px""><p> As you observed, a white bead was pulled from a 80% white jar, the jars switched and a black bead was pulled from the 80% black jar, but then a low-probability white bead was pulled from the 80% black jar. <br><br>This means that the color of the bead will not always match to the color of the jar it was pulled from.<br><br>Press SPACEBAR to conitnue.</p><div>","32"
"html-keyboard-response","16","154897","0.0-2.0-11.0","18","Low_HMMActual","2726.9899998791516","","","","<div class=""container"" style=""height:800px;width:800px;display:flex;flex-direction:column;justify-content:center;align-items:center;text-align:center;font-weight:normal;font-family:Arial;font-size:20px""><p> You will now be given a 2 question quiz to make sure you understand the task. </p><div>","32"
"image-keyboard-response","17","164493","0.0-2.0-12.0","18","Low_HMMActual","9595.48500017263","","","","Images/TutorialQuestion1.png","39"
"image-keyboard-response","18","172452","0.0-2.0-13.0","18","Low_HMMActual","5345.214999979362","","","","Images/TutorialQuestion2.png","38"
"html-keyboard-response","19","186253","0.0-3.0","18","Low_HMMActual","11969.525000080466","","","","<div class=""container"" style=""height:800px;width:800px;display:flex;flex-direction:column;justify-content:center;align-items:center;text-align:center;font-weight:normal;font-family:Arial;font-size:20px""><p>Loading episode&hellip;</p><div>","32"
"image-keyboard-response","20","192639","0.0-4.0-0.0","18","Low_HMMActual","6384.539999999106","","","","Images/NoChoice.png","39"
"image-keyboard-response","21","193041","0.0-4.0-1.0","18","Low_HMMActual","null","","","","Images/WhiteBeadChoice.png","null"
"image-keyboard-response","22","193744","0.0-4.0-2.0","18","Low_HMMActual","null","","","","Images/WhiteBeadChoiceWrong.png","null"
"image-keyboard-response","23","196473","0.0-4.0-0.1","18","Low_HMMActual","2727.7499998454005","","","","Images/NewTrialBC.png","37"
"image-keyboard-response","24","196874","0.0-4.0-1.1","18","Low_HMMActual","null","","","","Images/BlackBeadChoice.png","null"
"image-keyboard-response","25","197576","0.0-4.0-2.1","18","Low_HMMActual","null","","","","Images/BlackBeadChoiceCorrect.png","null"
"image-keyboard-response","26","198384","0.0-4.0-0.2","18","Low_HMMActual","807.2250001132488","","","","Images/NewTrialBC.png","37"
"image-keyboard-response","27","198785","0.0-4.0-1.2","18","Low_HMMActual","null","","","","Images/BlackBeadChoice.png","null"
"image-keyboard-response","28","199487","0.0-4.0-2.2","18","Low_HMMActual","null","","","","Images/BlackBeadChoiceCorrect.png","null"
"image-keyboard-response","29","199988","0.0-4.0-0.3","18","Low_HMMActual","500.0650000292808","","","","Images/NewTrialBC.png","37"
"image-keyboard-response","30","200390","0.0-4.0-1.3","18","Low_HMMActual","null","","","","Images/BlackBeadChoice.png","null"
"image-keyboard-response","31","201091","0.0-4.0-2.3","18","Low_HMMActual","null","","","","Images/BlackBeadChoiceWrong.png","null"
"image-keyboard-response","32","202234","0.0-4.0-0.4","18","Low_HMMActual","1142.3549999017268","","","","Images/NewTrialWC.png","37"
"image-keyboard-response","33","202635","0.0-4.0-1.4","18","Low_HMMActual","null","","","","Images/BlackBeadChoice.png","null"
"image-keyboard-response","34","203338","0.0-4.0-2.4","18","Low_HMMActual","null","","","","Images/BlackBeadChoiceCorrect.png","null"
"image-keyboard-response","35","204026","0.0-4.0-0.5","18","Low_HMMActual","687.4449998140335","","","","Images/NewTrialBC.png","37"
"image-keyboard-response","36","204429","0.0-4.0-1.5","18","Low_HMMActual","null","","","","Images/BlackBeadChoice.png","null"
"image-keyboard-response","37","205131","0.0-4.0-2.5","18","Low_HMMActual","null","","","","Images/BlackBeadChoiceCorrect.png","null"
"image-keyboard-response","38","205533","0.0-4.0-0.6","18","Low_HMMActual","400.7999999448657","","","","Images/NewTrialBC.png","37"
"image-keyboard-response","39","205935","0.0-4.0-1.6","18","Low_HMMActual","null","","","","Images/BlackBeadChoice.png","null"
"image-keyboard-response","40","206637","0.0-4.0-2.6","18","Low_HMMActual","null","","","","Images/BlackBeadChoiceCorrect.png","null"
"image-keyboard-response","41","207144","0.0-4.0-0.7","18","Low_HMMActual","506.02500000968575","","","","Images/NewTrialBC.png","39"
"image-keyboard-response","42","207545","0.0-4.0-1.7","18","Low_HMMActual","null","","","","Images/WhiteBeadChoice.png","null"
"image-keyboard-response","43","208248","0.0-4.0-2.7","18","Low_HMMActual","null","","","","Images/WhiteBeadChoiceWrong.png","null"
"image-keyboard-response","44","208486","0.0-4.0-0.8","18","Low_HMMActual","237.47500008903444","","","","Images/NewTrialBC.png","37"
"image-keyboard-response","45","208888","0.0-4.0-1.8","18","Low_HMMActual","null","","","","Images/BlackBeadChoice.png","null"
"image-keyboard-response","46","209590","0.0-4.0-2.8","18","Low_HMMActual","null","","","","Images/BlackBeadChoiceCorrect.png","null"
"image-keyboard-response","47","210150","0.0-4.0-0.9","18","Low_HMMActual","559.1550001408905","","","","Images/NewTrialBC.png","37"
"image-keyboard-response","48","210551","0.0-4.0-1.9","18","Low_HMMActual","null","","","","Images/BlackBeadChoice.png","null"
"image-keyboard-response","49","211253","0.0-4.0-2.9","18","Low_HMMActual","null","","","","Images/BlackBeadChoiceCorrect.png","null"
"image-keyboard-response","50","211896","0.0-4.0-0.10","18","Low_HMMActual","642.1349998563528","","","","Images/NewTrialBC.png","37"
"image-keyboard-response","51","212298","0.0-4.0-1.10","18","Low_HMMActual","null","","","","Images/BlackBeadChoice.png","null"
"image-keyboard-response","52","213001","0.0-4.0-2.10","18","Low_HMMActual","null","","","","Images/BlackBeadChoiceCorrect.png","null"
"image-keyboard-response","53","213513","0.0-4.0-0.11","18","Low_HMMActual","510.5000000912696","","","","Images/NewTrialBC.png","37"
"image-keyboard-response","54","213915","0.0-4.0-1.11","18","Low_HMMActual","null","","","","Images/BlackBeadChoice.png","null"
"image-keyboard-response","55","214617","0.0-4.0-2.11","18","Low_HMMActual","null","","","","Images/BlackBeadChoiceCorrect.png","null"
"image-keyboard-response","56","215042","0.0-4.0-0.12","18","Low_HMMActual","424.72500004805624","","","","Images/NewTrialBC.png","39"
"image-keyboard-response","57","215444","0.0-4.0-1.12","18","Low_HMMActual","null","","","","Images/WhiteBeadChoice.png","null"
"image-keyboard-response","58","216145","0.0-4.0-2.12","18","Low_HMMActual","null","","","","Images/WhiteBeadChoiceWrong.png","null"
"image-keyboard-response","59","216624","0.0-4.0-0.13","18","Low_HMMActual","478.18499989807606","","","","Images/NewTrialBC.png","37"
"image-keyboard-response","60","217026","0.0-4.0-1.13","18","Low_HMMActual","null","","","","Images/BlackBeadChoice.png","null"
"image-keyboard-response","61","217728","0.0-4.0-2.13","18","Low_HMMActual","null","","","","Images/BlackBeadChoiceCorrect.png","null"
"image-keyboard-response","62","218079","0.0-4.0-0.14","18","Low_HMMActual","350.5249998997897","","","","Images/NewTrialBC.png","37"
"image-keyboard-response","63","218480","0.0-4.0-1.14","18","Low_HMMActual","null","","","","Images/BlackBeadChoice.png","null"
"image-keyboard-response","64","219183","0.0-4.0-2.14","18","Low_HMMActual","null","","","","Images/BlackBeadChoiceWrong.png","null"
"image-keyboard-response","65","219475","0.0-4.0-0.15","18","Low_HMMActual","291.7750000488013","","","","Images/NewTrialWC.png","37"
"image-keyboard-response","66","219877","0.0-4.0-1.15","18","Low_HMMActual","null","","","","Images/BlackBeadChoice.png","null"
"image-keyboard-response","67","220579","0.0-4.0-2.15","18","Low_HMMActual","null","","","","Images/BlackBeadChoiceWrong.png","null"
"image-keyboard-response","68","220844","0.0-4.0-0.16","18","Low_HMMActual","264.2350001260638","","","","Images/NewTrialWC.png","37"
"image-keyboard-response","69","221247","0.0-4.0-1.16","18","Low_HMMActual","null","","","","Images/BlackBeadChoice.png","null"
"image-keyboard-response","70","221949","0.0-4.0-2.16","18","Low_HMMActual","null","","","","Images/BlackBeadChoiceCorrect.png","null"
"image-keyboard-response","71","222226","0.0-4.0-0.17","18","Low_HMMActual","276.39500005170703","","","","Images/NewTrialBC.png","37"
"image-keyboard-response","72","222627","0.0-4.0-1.17","18","Low_HMMActual","null","","","","Images/BlackBeadChoice.png","null"
"image-keyboard-response","73","223330","0.0-4.0-2.17","18","Low_HMMActual","null","","","","Images/BlackBeadChoiceCorrect.png","null"
"image-keyboard-response","74","223699","0.0-4.0-0.18","18","Low_HMMActual","367.71999998018146","","","","Images/NewTrialBC.png","37"
"image-keyboard-response","75","224101","0.0-4.0-1.18","18","Low_HMMActual","null","","","","Images/BlackBeadChoice.png","null"
"image-keyboard-response","76","224803","0.0-4.0-2.18","18","Low_HMMActual","null","","","","Images/BlackBeadChoiceCorrect.png","null"
"image-keyboard-response","77","225214","0.0-4.0-0.19","18","Low_HMMActual","410.0999999791384","","","","Images/NewTrialBC.png","37"
"image-keyboard-response","78","225615","0.0-4.0-1.19","18","Low_HMMActual","null","","","","Images/BlackBeadChoice.png","null"
"image-keyboard-response","79","226317","0.0-4.0-2.19","18","Low_HMMActual","null","","","","Images/BlackBeadChoiceWrong.png","null"
"image-keyboard-response","80","227594","0.0-4.0-0.20","18","Low_HMMActual","1275.3999999258667","","","","Images/NewTrialWC.png","37"
"image-keyboard-response","81","227995","0.0-4.0-1.20","18","Low_HMMActual","null","","","","Images/BlackBeadChoice.png","null"
"image-keyboard-response","82","228697","0.0-4.0-2.20","18","Low_HMMActual","null","","","","Images/BlackBeadChoiceCorrect.png","null"
"image-keyboard-response","83","229007","0.0-4.0-0.21","18","Low_HMMActual","308.73499996960163","","","","Images/NewTrialBC.png","37"
"image-keyboard-response","84","229408","0.0-4.0-1.21","18","Low_HMMActual","null","","","","Images/BlackBeadChoice.png","null"
"image-keyboard-response","85","230109","0.0-4.0-2.21","18","Low_HMMActual","null","","","","Images/BlackBeadChoiceCorrect.png","null"
"image-keyboard-response","86","230335","0.0-4.0-0.22","18","Low_HMMActual","224.48499989695847","","","","Images/NewTrialBC.png","37"
"image-keyboard-response","87","230737","0.0-4.0-1.22","18","Low_HMMActual","null","","","","Images/BlackBeadChoice.png","null"
"image-keyboard-response","88","231439","0.0-4.0-2.22","18","Low_HMMActual","null","","","","Images/BlackBeadChoiceCorrect.png","null"
"image-keyboard-response","89","231575","0.0-4.0-0.23","18","Low_HMMActual","135.4099998716265","","","","Images/NewTrialBC.png","37"
"image-keyboard-response","90","231977","0.0-4.0-1.23","18","Low_HMMActual","null","","","","Images/BlackBeadChoice.png","null"
"image-keyboard-response","91","232678","0.0-4.0-2.23","18","Low_HMMActual","null","","","","Images/BlackBeadChoiceCorrect.png","null"
"image-keyboard-response","92","232909","0.0-4.0-0.24","18","Low_HMMActual","229.51500001363456","","","","Images/NewTrialBC.png","39"
"image-keyboard-response","93","233310","0.0-4.0-1.24","18","Low_HMMActual","null","","","","Images/WhiteBeadChoice.png","null"
"image-keyboard-response","94","234012","0.0-4.0-2.24","18","Low_HMMActual","null","","","","Images/WhiteBeadChoiceWrong.png","null"
"image-keyboard-response","95","234320","0.0-4.0-0.25","18","Low_HMMActual","307.91500001214445","","","","Images/NewTrialBC.png","37"
"image-keyboard-response","96","234723","0.0-4.0-1.25","18","Low_HMMActual","null","","","","Images/BlackBeadChoice.png","null"
"image-keyboard-response","97","235424","0.0-4.0-2.25","18","Low_HMMActual","null","","","","Images/BlackBeadChoiceCorrect.png","null"
"image-keyboard-response","98","235459","0.0-4.0-0.26","18","Low_HMMActual","33.389999996870756","","","","Images/NewTrialBC.png","37"
"image-keyboard-response","99","235859","0.0-4.0-1.26","18","Low_HMMActual","null","","","","Images/BlackBeadChoice.png","null"
"image-keyboard-response","100","236561","0.0-4.0-2.26","18","Low_HMMActual","676.2599998619407","","","","Images/BlackBeadChoiceCorrect.png","37"
"image-keyboard-response","101","237173","0.0-4.0-0.27","18","Low_HMMActual","611.3299999851733","","","","Images/NewTrialBC.png","37"
"image-keyboard-response","102","237575","0.0-4.0-1.27","18","Low_HMMActual","null","","","","Images/BlackBeadChoice.png","null"
"image-keyboard-response","103","238276","0.0-4.0-2.27","18","Low_HMMActual","null","","","","Images/BlackBeadChoiceCorrect.png","null"
"image-keyboard-response","104","238608","0.0-4.0-0.28","18","Low_HMMActual","329.76999995298684","","","","Images/NewTrialBC.png","37"
"image-keyboard-response","105","239009","0.0-4.0-1.28","18","Low_HMMActual","null","","","","Images/BlackBeadChoice.png","null"
"image-keyboard-response","106","239710","0.0-4.0-2.28","18","Low_HMMActual","null","","","","Images/BlackBeadChoiceCorrect.png","null"
"image-keyboard-response","107","239988","0.0-4.0-0.29","18","Low_HMMActual","276.9800000824034","","","","Images/NewTrialBC.png","39"
"image-keyboard-response","108","240390","0.0-4.0-1.29","18","Low_HMMActual","null","","","","Images/WhiteBeadChoice.png","null"
"image-keyboard-response","109","241093","0.0-4.0-2.29","18","Low_HMMActual","null","","","","Images/WhiteBeadChoiceWrong.png","null"
"image-keyboard-response","110","241341","0.0-4.0-0.30","18","Low_HMMActual","247.31500004418194","","","","Images/NewTrialBC.png","37"
"image-keyboard-response","111","241743","0.0-4.0-1.30","18","Low_HMMActual","null","","","","Images/BlackBeadChoice.png","null"
"image-keyboard-response","112","242445","0.0-4.0-2.30","18","Low_HMMActual","null","","","","Images/BlackBeadChoiceCorrect.png","null"
"image-keyboard-response","113","242953","0.0-4.0-0.31","18","Low_HMMActual","506.9550001062453","","","","Images/NewTrialBC.png","37"
"image-keyboard-response","114","243354","0.0-4.0-1.31","18","Low_HMMActual","null","","","","Images/BlackBeadChoice.png","null"
"image-keyboard-response","115","244056","0.0-4.0-2.31","18","Low_HMMActual","null","","","","Images/BlackBeadChoiceWrong.png","null"
"image-keyboard-response","116","244567","0.0-4.0-0.32","18","Low_HMMActual","510.77000005170703","","","","Images/NewTrialWC.png","37"
"image-keyboard-response","117","244969","0.0-4.0-1.32","18","Low_HMMActual","null","","","","Images/BlackBeadChoice.png","null"
"image-keyboard-response","118","245671","0.0-4.0-2.32","18","Low_HMMActual","null","","","","Images/BlackBeadChoiceWrong.png","null"
"image-keyboard-response","119","245810","0.0-4.0-0.33","18","Low_HMMActual","137.82500009983778","","","","Images/NewTrialWC.png","37"
"image-keyboard-response","120","246211","0.0-4.0-1.33","18","Low_HMMActual","null","","","","Images/BlackBeadChoice.png","null"
"image-keyboard-response","121","246913","0.0-4.0-2.33","18","Low_HMMActual","null","","","","Images/BlackBeadChoiceWrong.png","null"
"image-keyboard-response","122","247178","0.0-4.0-0.34","18","Low_HMMActual","264.23000008799136","","","","Images/NewTrialWC.png","39"
"image-keyboard-response","123","247580","0.0-4.0-1.34","18","Low_HMMActual","null","","","","Images/WhiteBeadChoice.png","null"
"image-keyboard-response","124","248281","0.0-4.0-2.34","18","Low_HMMActual","null","","","","Images/WhiteBeadChoiceCorrect.png","null"
"image-keyboard-response","125","248578","0.0-4.0-0.35","18","Low_HMMActual","295.4000001773238","","","","Images/NewTrialWC.png","39"
"image-keyboard-response","126","248980","0.0-4.0-1.35","18","Low_HMMActual","null","","","","Images/WhiteBeadChoice.png","null"
"image-keyboard-response","127","249682","0.0-4.0-2.35","18","Low_HMMActual","null","","","","Images/WhiteBeadChoiceWrong.png","null"
"image-keyboard-response","128","250249","0.0-4.0-0.36","18","Low_HMMActual","566.3499999791384","","","","Images/NewTrialBC.png","37"
"image-keyboard-response","129","250650","0.0-4.0-1.36","18","Low_HMMActual","null","","","","Images/BlackBeadChoice.png","null"
"image-keyboard-response","130","251351","0.0-4.0-2.36","18","Low_HMMActual","649.8350000474602","","","","Images/BlackBeadChoiceWrong.png","39"
"image-keyboard-response","131","251674","0.0-4.0-0.37","18","Low_HMMActual","321.9800000078976","","","","Images/NewTrialWC.png","39"
"image-keyboard-response","132","252075","0.0-4.0-1.37","18","Low_HMMActual","null","","","","Images/WhiteBeadChoice.png","null"
"image-keyboard-response","133","252777","0.0-4.0-2.37","18","Low_HMMActual","null","","","","Images/WhiteBeadChoiceWrong.png","null"
"image-keyboard-response","134","253039","0.0-4.0-0.38","18","Low_HMMActual","260.74500009417534","","","","Images/NewTrialBC.png","39"
"image-keyboard-response","135","253440","0.0-4.0-1.38","18","Low_HMMActual","null","","","","Images/WhiteBeadChoice.png","null"
"image-keyboard-response","136","254142","0.0-4.0-2.38","18","Low_HMMActual","520.4549999907613","","","","Images/WhiteBeadChoiceWrong.png","37"
"image-keyboard-response","137","254378","0.0-4.0-0.39","18","Low_HMMActual","235.25999998673797","","","","Images/NewTrialBC.png","37"
"image-keyboard-response","138","254780","0.0-4.0-1.39","18","Low_HMMActual","null","","","","Images/BlackBeadChoice.png","null"
"image-keyboard-response","139","255481","0.0-4.0-2.39","18","Low_HMMActual","null","","","","Images/BlackBeadChoiceWrong.png","null"
"image-keyboard-response","140","255707","0.0-4.0-0.40","18","Low_HMMActual","224.81000004336238","","","","Images/NewTrialWC.png","37"
"image-keyboard-response","141","256109","0.0-4.0-1.40","18","Low_HMMActual","null","","","","Images/BlackBeadChoice.png","null"
"image-keyboard-response","142","256811","0.0-4.0-2.40","18","Low_HMMActual","614.6650000009686","","","","Images/BlackBeadChoiceCorrect.png","37"
"image-keyboard-response","143","257136","0.0-4.0-0.41","18","Low_HMMActual","323.9649999886751","","","","Images/NewTrialBC.png","37"
"image-keyboard-response","144","257537","0.0-4.0-1.41","18","Low_HMMActual","null","","","","Images/BlackBeadChoice.png","null"
"image-keyboard-response","145","258239","0.0-4.0-2.41","18","Low_HMMActual","null","","","","Images/BlackBeadChoiceCorrect.png","null"
"image-keyboard-response","146","258504","0.0-4.0-0.42","18","Low_HMMActual","264.3699999898672","","","","Images/NewTrialBC.png","37"
"image-keyboard-response","147","258906","0.0-4.0-1.42","18","Low_HMMActual","null","","","","Images/BlackBeadChoice.png","null"
"image-keyboard-response","148","259608","0.0-4.0-2.42","18","Low_HMMActual","null","","","","Images/BlackBeadChoiceCorrect.png","null"
"image-keyboard-response","149","259902","0.0-4.0-0.43","18","Low_HMMActual","293.35499997250736","","","","Images/NewTrialBC.png","37"
"image-keyboard-response","150","260303","0.0-4.0-1.43","18","Low_HMMActual","null","","","","Images/BlackBeadChoice.png","null"
"image-keyboard-response","151","261005","0.0-4.0-2.43","18","Low_HMMActual","null","","","","Images/BlackBeadChoiceCorrect.png","null"
"image-keyboard-response","152","261323","0.0-4.0-0.44","18","Low_HMMActual","316.5449998341501","","","","Images/NewTrialBC.png","37"
"image-keyboard-response","153","261725","0.0-4.0-1.44","18","Low_HMMActual","null","","","","Images/BlackBeadChoice.png","null"
"image-keyboard-response","154","262427","0.0-4.0-2.44","18","Low_HMMActual","650.0399999786168","","","","Images/BlackBeadChoiceCorrect.png","37"
"image-keyboard-response","155","262808","0.0-4.0-0.45","18","Low_HMMActual","379.8249999526888","","","","Images/NewTrialBC.png","37"
"image-keyboard-response","156","263210","0.0-4.0-1.45","18","Low_HMMActual","null","","","","Images/BlackBeadChoice.png","null"
"image-keyboard-response","157","263912","0.0-4.0-2.45","18","Low_HMMActual","null","","","","Images/BlackBeadChoiceCorrect.png","null"
"image-keyboard-response","158","264253","0.0-4.0-0.46","18","Low_HMMActual","339.26500007510185","","","","Images/NewTrialBC.png","37"
"image-keyboard-response","159","264654","0.0-4.0-1.46","18","Low_HMMActual","null","","","","Images/BlackBeadChoice.png","null"
"image-keyboard-response","160","265356","0.0-4.0-2.46","18","Low_HMMActual","null","","","","Images/BlackBeadChoiceCorrect.png","null"
"image-keyboard-response","161","265595","0.0-4.0-0.47","18","Low_HMMActual","238.26500005088747","","","","Images/NewTrialBC.png","37"
"image-keyboard-response","162","265997","0.0-4.0-1.47","18","Low_HMMActual","null","","","","Images/BlackBeadChoice.png","null"
"image-keyboard-response","163","266698","0.0-4.0-2.47","18","Low_HMMActual","null","","","","Images/BlackBeadChoiceCorrect.png","null"
"image-keyboard-response","164","266922","0.0-4.0-0.48","18","Low_HMMActual","222.85999986343086","","","","Images/NewTrialBC.png","37"
"image-keyboard-response","165","267324","0.0-4.0-1.48","18","Low_HMMActual","null","","","","Images/BlackBeadChoice.png","null"
"image-keyboard-response","166","268027","0.0-4.0-2.48","18","Low_HMMActual","null","","","","Images/BlackBeadChoiceCorrect.png","null"
"image-keyboard-response","167","268258","0.0-4.0-0.49","18","Low_HMMActual","230.22500006482005","","","","Images/NewTrialBC.png","39"
"image-keyboard-response","168","268660","0.0-4.0-1.49","18","Low_HMMActual","null","","","","Images/WhiteBeadChoice.png","null"
"image-keyboard-response","169","269361","0.0-4.0-2.49","18","Low_HMMActual","null","","","","Images/WhiteBeadChoiceWrong.png","null"
"image-keyboard-response","170","269587","0.0-4.0-0.50","18","Low_HMMActual","224.44000001996756","","","","Images/NewTrialBC.png","37"
"image-keyboard-response","171","269988","0.0-4.0-1.50","18","Low_HMMActual","null","","","","Images/BlackBeadChoice.png","null"
"image-keyboard-response","172","270689","0.0-4.0-2.50","18","Low_HMMActual","null","","","","Images/BlackBeadChoiceCorrect.png","null"
"image-keyboard-response","173","270798","0.0-4.0-0.51","18","Low_HMMActual","108.47000009380281","","","","Images/NewTrialBC.png","37"
"image-keyboard-response","174","271200","0.0-4.0-1.51","18","Low_HMMActual","null","","","","Images/BlackBeadChoice.png","null"
"image-keyboard-response","175","271902","0.0-4.0-2.51","18","Low_HMMActual","428.58500010333955","","","","Images/BlackBeadChoiceCorrect.png","37"
"image-keyboard-response","176","272210","0.0-4.0-0.52","18","Low_HMMActual","307.4099998921156","","","","Images/NewTrialBC.png","37"
"image-keyboard-response","177","272612","0.0-4.0-1.52","18","Low_HMMActual","null","","","","Images/BlackBeadChoice.png","null"
"image-keyboard-response","178","273313","0.0-4.0-2.52","18","Low_HMMActual","211.08500007539988","","","","Images/BlackBeadChoiceCorrect.png","37"
"image-keyboard-response","179","273670","0.0-4.0-0.53","18","Low_HMMActual","355.18499999307096","","","","Images/NewTrialBC.png","37"
"image-keyboard-response","180","274071","0.0-4.0-1.53","18","Low_HMMActual","null","","","","Images/BlackBeadChoice.png","null"
"image-keyboard-response","181","274773","0.0-4.0-2.53","18","Low_HMMActual","239.44499995559454","","","","Images/BlackBeadChoiceCorrect.png","37"
"image-keyboard-response","182","275098","0.0-4.0-0.54","18","Low_HMMActual","324.0800001658499","","","","Images/NewTrialBC.png","37"
"image-keyboard-response","183","275500","0.0-4.0-1.54","18","Low_HMMActual","null","","","","Images/BlackBeadChoice.png","null"
"image-keyboard-response","184","276201","0.0-4.0-2.54","18","Low_HMMActual","255.94999990426004","","","","Images/BlackBeadChoiceWrong.png","37"
"image-keyboard-response","185","276344","0.0-4.0-0.55","18","Low_HMMActual","142.1349998563528","","","","Images/NewTrialWC.png","37"
"image-keyboard-response","186","276746","0.0-4.0-1.55","18","Low_HMMActual","null","","","","Images/BlackBeadChoice.png","null"
"image-keyboard-response","187","277447","0.0-4.0-2.55","18","Low_HMMActual","404.92999996058643","","","","Images/BlackBeadChoiceWrong.png","37"
"image-keyboard-response","188","277690","0.0-4.0-0.56","18","Low_HMMActual","241.4349999744445","","","","Images/NewTrialWC.png","39"
"image-keyboard-response","189","278091","0.0-4.0-1.56","18","Low_HMMActual","null","","","","Images/WhiteBeadChoice.png","null"
"image-keyboard-response","190","278793","0.0-4.0-2.56","18","Low_HMMActual","286.83999995701015","","","","Images/WhiteBeadChoiceCorrect.png","39"
"image-keyboard-response","191","279084","0.0-4.0-0.57","18","Low_HMMActual","289.8399999830872","","","","Images/NewTrialWC.png","39"
"image-keyboard-response","192","279486","0.0-4.0-1.57","18","Low_HMMActual","null","","","","Images/WhiteBeadChoice.png","null"
"image-keyboard-response","193","280188","0.0-4.0-2.57","18","Low_HMMActual","null","","","","Images/WhiteBeadChoiceWrong.png","null"
"image-keyboard-response","194","280418","0.0-4.0-0.58","18","Low_HMMActual","228.07499999180436","","","","Images/NewTrialBC.png","37"
"image-keyboard-response","195","280819","0.0-4.0-1.58","18","Low_HMMActual","null","","","","Images/BlackBeadChoice.png","null"
"image-keyboard-response","196","281520","0.0-4.0-2.58","18","Low_HMMActual","null","","","","Images/BlackBeadChoiceWrong.png","null"
"image-keyboard-response","197","281690","0.0-4.0-0.59","18","Low_HMMActual","169.0549999475479","","","","Images/NewTrialWC.png","37"
"image-keyboard-response","198","282092","0.0-4.0-1.59","18","Low_HMMActual","null","","","","Images/BlackBeadChoice.png","null"
"image-keyboard-response","199","282793","0.0-4.0-2.59","18","Low_HMMActual","545.7999999634922","","","","Images/BlackBeadChoiceCorrect.png","37"
"image-keyboard-response","200","283112","0.0-4.0-0.60","18","Low_HMMActual","317.7599997725338","","","","Images/NewTrialBC.png","37"
"image-keyboard-response","201","283513","0.0-4.0-1.60","18","Low_HMMActual","null","","","","Images/BlackBeadChoice.png","null"
"image-keyboard-response","202","284215","0.0-4.0-2.60","18","Low_HMMActual","354.1550000663847","","","","Images/BlackBeadChoiceCorrect.png","37"
"image-keyboard-response","203","284274","0.0-4.0-0.61","18","Low_HMMActual","58.10000002384186","","","","Images/NewTrialBC.png","37"
"image-keyboard-response","204","284675","0.0-4.0-1.61","18","Low_HMMActual","null","","","","Images/BlackBeadChoice.png","null"
"image-keyboard-response","205","285377","0.0-4.0-2.61","18","Low_HMMActual","323.0699999257922","","","","Images/BlackBeadChoiceCorrect.png","37"
"image-keyboard-response","206","285812","0.0-4.0-0.62","18","Low_HMMActual","434.5350000075996","","","","Images/NewTrialBC.png","37"
"image-keyboard-response","207","286213","0.0-4.0-1.62","18","Low_HMMActual","null","","","","Images/BlackBeadChoice.png","null"
"image-keyboard-response","208","286915","0.0-4.0-2.62","18","Low_HMMActual","287.81999996863306","","","","Images/BlackBeadChoiceCorrect.png","37"
"image-keyboard-response","209","286986","0.0-4.0-0.63","18","Low_HMMActual","70.25000010617077","","","","Images/NewTrialBC.png","37"
"image-keyboard-response","210","287388","0.0-4.0-1.63","18","Low_HMMActual","null","","","","Images/BlackBeadChoice.png","null"
"image-keyboard-response","211","288090","0.0-4.0-2.63","18","Low_HMMActual","257.3599999304861","","","","Images/BlackBeadChoiceCorrect.png","37"
"image-keyboard-response","212","288584","0.0-4.0-0.64","18","Low_HMMActual","493.43000003136694","","","","Images/NewTrialBC.png","37"
"image-keyboard-response","213","288987","0.0-4.0-1.64","18","Low_HMMActual","null","","","","Images/BlackBeadChoice.png","null"
"image-keyboard-response","214","289689","0.0-4.0-2.64","18","Low_HMMActual","568.9399999100715","","","","Images/BlackBeadChoiceCorrect.png","37"
"image-keyboard-response","215","289990","0.0-4.0-0.65","18","Low_HMMActual","299.9749998562038","","","","Images/NewTrialBC.png","37"
"image-keyboard-response","216","290392","0.0-4.0-1.65","18","Low_HMMActual","null","","","","Images/BlackBeadChoice.png","null"
"image-keyboard-response","217","291093","0.0-4.0-2.65","18","Low_HMMActual","null","","","","Images/BlackBeadChoiceWrong.png","null"
"image-keyboard-response","218","291481","0.0-4.0-0.66","18","Low_HMMActual","387.45500007644296","","","","Images/NewTrialWC.png","39"
"image-keyboard-response","219","291883","0.0-4.0-1.66","18","Low_HMMActual","null","","","","Images/WhiteBeadChoice.png","null"
"image-keyboard-response","220","292584","0.0-4.0-2.66","18","Low_HMMActual","null","","","","Images/WhiteBeadChoiceCorrect.png","null"
"image-keyboard-response","221","292949","0.0-4.0-0.67","18","Low_HMMActual","363.514999859035","","","","Images/NewTrialWC.png","39"
"image-keyboard-response","222","293351","0.0-4.0-1.67","18","Low_HMMActual","null","","","","Images/WhiteBeadChoice.png","null"
"image-keyboard-response","223","294052","0.0-4.0-2.67","18","Low_HMMActual","null","","","","Images/WhiteBeadChoiceWrong.png","null"
"image-keyboard-response","224","294112","0.0-4.0-0.68","18","Low_HMMActual","58.609999949112535","","","","Images/NewTrialBC.png","37"
"image-keyboard-response","225","294514","0.0-4.0-1.68","18","Low_HMMActual","null","","","","Images/BlackBeadChoice.png","null"
"image-keyboard-response","226","295216","0.0-4.0-2.68","18","Low_HMMActual","null","","","","Images/BlackBeadChoiceWrong.png","null"
"image-keyboard-response","227","356654","0.0-4.0-0.69","18","Low_HMMActual","61437.7150000073","","","","Images/NewTrialWC.png","39"
"image-keyboard-response","228","357055","0.0-4.0-1.69","18","Low_HMMActual","null","","","","Images/WhiteBeadChoice.png","null"
"image-keyboard-response","229","357756","0.0-4.0-2.69","18","Low_HMMActual","271.48000011220574","","","","Images/WhiteBeadChoiceCorrect.png","39"
"image-keyboard-response","230","357950","0.0-4.0-0.70","18","Low_HMMActual","192.9799998179078","","","","Images/NewTrialWC.png","39"
"image-keyboard-response","231","358352","0.0-4.0-1.70","18","Low_HMMActual","null","","","","Images/WhiteBeadChoice.png","null"
"image-keyboard-response","232","359053","0.0-4.0-2.70","18","Low_HMMActual","null","","","","Images/WhiteBeadChoiceWrong.png","null"
"image-keyboard-response","233","359269","0.0-4.0-0.71","18","Low_HMMActual","214.26500007510185","","","","Images/NewTrialBC.png","39"
"image-keyboard-response","234","359670","0.0-4.0-1.71","18","Low_HMMActual","null","","","","Images/WhiteBeadChoice.png","null"
"image-keyboard-response","235","360372","0.0-4.0-2.71","18","Low_HMMActual","390.2999998535961","","","","Images/WhiteBeadChoiceWrong.png","37"
"image-keyboard-response","236","360438","0.0-4.0-0.72","18","Low_HMMActual","65.12499996460974","","","","Images/NewTrialBC.png","37"
"image-keyboard-response","237","360839","0.0-4.0-1.72","18","Low_HMMActual","165.06500006653368","","","","Images/BlackBeadChoice.png","37"
"image-keyboard-response","238","361540","0.0-4.0-2.72","18","Low_HMMActual","215.75500001199543","","","","Images/BlackBeadChoiceCorrect.png","37"
"image-keyboard-response","239","361744","0.0-4.0-0.73","18","Low_HMMActual","202.3300000000745","","","","Images/NewTrialBC.png","37"
"image-keyboard-response","240","362145","0.0-4.0-1.73","18","Low_HMMActual","null","","","","Images/BlackBeadChoice.png","null"
"image-keyboard-response","241","362847","0.0-4.0-2.73","18","Low_HMMActual","339.94499989785254","","","","Images/BlackBeadChoiceCorrect.png","37"
"image-keyboard-response","242","362877","0.0-4.0-0.74","18","Low_HMMActual","28.854999924078584","","","","Images/NewTrialBC.png","37"
"image-keyboard-response","243","363279","0.0-4.0-1.74","18","Low_HMMActual","null","","","","Images/BlackBeadChoice.png","null"
"image-keyboard-response","244","363980","0.0-4.0-2.74","18","Low_HMMActual","557.8449999447912","","","","Images/BlackBeadChoiceWrong.png","37"
"image-keyboard-response","245","364185","0.0-4.0-0.75","18","Low_HMMActual","203.51000013761222","","","","Images/NewTrialWC.png","37"
"image-keyboard-response","246","364586","0.0-4.0-1.75","18","Low_HMMActual","null","","","","Images/BlackBeadChoice.png","null"
"image-keyboard-response","247","365288","0.0-4.0-2.75","18","Low_HMMActual","319.6650000754744","","","","Images/BlackBeadChoiceCorrect.png","37"
"image-keyboard-response","248","365620","0.0-4.0-0.76","18","Low_HMMActual","330.65500017255545","","","","Images/NewTrialBC.png","37"
"image-keyboard-response","249","366022","0.0-4.0-1.76","18","Low_HMMActual","null","","","","Images/BlackBeadChoice.png","null"
"image-keyboard-response","250","366724","0.0-4.0-2.76","18","Low_HMMActual","333.1849998794496","","","","Images/BlackBeadChoiceCorrect.png","37"
"image-keyboard-response","251","367079","0.0-4.0-0.77","18","Low_HMMActual","353.94500009715557","","","","Images/NewTrialBC.png","37"
"image-keyboard-response","252","367481","0.0-4.0-1.77","18","Low_HMMActual","null","","","","Images/BlackBeadChoice.png","null"
"image-keyboard-response","253","368184","0.0-4.0-2.77","18","Low_HMMActual","460.08500014431775","","","","Images/BlackBeadChoiceCorrect.png","37"
"image-keyboard-response","254","368218","0.0-4.0-0.78","18","Low_HMMActual","33.13500015065074","","","","Images/NewTrialBC.png","37"
"image-keyboard-response","255","368619","0.0-4.0-1.78","18","Low_HMMActual","null","","","","Images/BlackBeadChoice.png","null"
"image-keyboard-response","256","369320","0.0-4.0-2.78","18","Low_HMMActual","489.1050001606345","","","","Images/BlackBeadChoiceCorrect.png","37"
"image-keyboard-response","257","369650","0.0-4.0-0.79","18","Low_HMMActual","327.76999985799193","","","","Images/NewTrialBC.png","37"
"image-keyboard-response","258","370051","0.0-4.0-1.79","18","Low_HMMActual","null","","","","Images/BlackBeadChoice.png","null"
"image-keyboard-response","259","370753","0.0-4.0-2.79","18","Low_HMMActual","386.5149999037385","","","","Images/BlackBeadChoiceCorrect.png","37"
"image-keyboard-response","260","371031","0.0-4.0-0.80","18","Low_HMMActual","277.25999988615513","","","","Images/NewTrialBC.png","37"
"image-keyboard-response","261","371432","0.0-4.0-1.80","18","Low_HMMActual","null","","","","Images/BlackBeadChoice.png","null"
"image-keyboard-response","262","372134","0.0-4.0-2.80","18","Low_HMMActual","null","","","","Images/BlackBeadChoiceCorrect.png","null"
"image-keyboard-response","263","372229","0.0-4.0-0.81","18","Low_HMMActual","94.53999996185303","","","","Images/NewTrialBC.png","39"
"image-keyboard-response","264","372631","0.0-4.0-1.81","18","Low_HMMActual","null","","","","Images/WhiteBeadChoice.png","null"
"image-keyboard-response","265","373333","0.0-4.0-2.81","18","Low_HMMActual","259.275000076741","","","","Images/WhiteBeadChoiceWrong.png","39"
"image-keyboard-response","266","373415","0.0-4.0-0.82","18","Low_HMMActual","81.36499999091029","","","","Images/NewTrialBC.png","37"
"image-keyboard-response","267","373817","0.0-4.0-1.82","18","Low_HMMActual","null","","","","Images/BlackBeadChoice.png","null"
"image-keyboard-response","268","374518","0.0-4.0-2.82","18","Low_HMMActual","353.8649999536574","","","","Images/BlackBeadChoiceCorrect.png","37"
"image-keyboard-response","269","374759","0.0-4.0-0.83","18","Low_HMMActual","239.73000003024936","","","","Images/NewTrialBC.png","37"
"image-keyboard-response","270","375160","0.0-4.0-1.83","18","Low_HMMActual","null","","","","Images/BlackBeadChoice.png","null"
"image-keyboard-response","271","375861","0.0-4.0-2.83","18","Low_HMMActual","null","","","","Images/BlackBeadChoiceWrong.png","null"
"image-keyboard-response","272","376529","0.0-4.0-0.84","18","Low_HMMActual","666.7549998965114","","","","Images/NewTrialWC.png","37"
"image-keyboard-response","273","376931","0.0-4.0-1.84","18","Low_HMMActual","null","","","","Images/BlackBeadChoice.png","null"
"image-keyboard-response","274","377633","0.0-4.0-2.84","18","Low_HMMActual","698.8999999593943","","","","Images/BlackBeadChoiceCorrect.png","37"
"image-keyboard-response","275","378068","0.0-4.0-0.85","18","Low_HMMActual","433.530000038445","","","","Images/NewTrialBC.png","37"
"image-keyboard-response","276","378470","0.0-4.0-1.85","18","Low_HMMActual","null","","","","Images/BlackBeadChoice.png","null"
"image-keyboard-response","277","379172","0.0-4.0-2.85","18","Low_HMMActual","null","","","","Images/BlackBeadChoiceCorrect.png","null"
"image-keyboard-response","278","379497","0.0-4.0-0.86","18","Low_HMMActual","323.74999998137355","","","","Images/NewTrialBC.png","37"
"image-keyboard-response","279","379898","0.0-4.0-1.86","18","Low_HMMActual","null","","","","Images/BlackBeadChoice.png","null"
"image-keyboard-response","280","380600","0.0-4.0-2.86","18","Low_HMMActual","null","","","","Images/BlackBeadChoiceCorrect.png","null"
"image-keyboard-response","281","380863","0.0-4.0-0.87","18","Low_HMMActual","261.2750001717359","","","","Images/NewTrialBC.png","37"
"image-keyboard-response","282","381264","0.0-4.0-1.87","18","Low_HMMActual","null","","","","Images/BlackBeadChoice.png","null"
"image-keyboard-response","283","381966","0.0-4.0-2.87","18","Low_HMMActual","570.5550001002848","","","","Images/BlackBeadChoiceCorrect.png","37"
"image-keyboard-response","284","382266","0.0-4.0-0.88","18","Low_HMMActual","299.1949999704957","","","","Images/NewTrialBC.png","37"
"image-keyboard-response","285","382667","0.0-4.0-1.88","18","Low_HMMActual","null","","","","Images/BlackBeadChoice.png","null"
"image-keyboard-response","286","383370","0.0-4.0-2.88","18","Low_HMMActual","null","","","","Images/BlackBeadChoiceCorrect.png","null"
"image-keyboard-response","287","383554","0.0-4.0-0.89","18","Low_HMMActual","183.41000005602837","","","","Images/NewTrialBC.png","37"
"image-keyboard-response","288","383957","0.0-4.0-1.89","18","Low_HMMActual","null","","","","Images/BlackBeadChoice.png","null"
"image-keyboard-response","289","384658","0.0-4.0-2.89","18","Low_HMMActual","447.8249999228865","","","","Images/BlackBeadChoiceCorrect.png","37"
"image-keyboard-response","290","384913","0.0-4.0-0.90","18","Low_HMMActual","253.6599999293685","","","","Images/NewTrialBC.png","37"
"image-keyboard-response","291","385314","0.0-4.0-1.90","18","Low_HMMActual","null","","","","Images/BlackBeadChoice.png","null"
"image-keyboard-response","292","386015","0.0-4.0-2.90","18","Low_HMMActual","null","","","","Images/BlackBeadChoiceCorrect.png","null"
"image-keyboard-response","293","386273","0.0-4.0-0.91","18","Low_HMMActual","256.2700000125915","","","","Images/NewTrialBC.png","37"
"image-keyboard-response","294","386675","0.0-4.0-1.91","18","Low_HMMActual","null","","","","Images/BlackBeadChoice.png","null"
"image-keyboard-response","295","387376","0.0-4.0-2.91","18","Low_HMMActual","null","","","","Images/BlackBeadChoiceCorrect.png","null"
"image-keyboard-response","296","387653","0.0-4.0-0.92","18","Low_HMMActual","275.89499996975064","","","","Images/NewTrialBC.png","37"
"image-keyboard-response","297","388054","0.0-4.0-1.92","18","Low_HMMActual","null","","","","Images/BlackBeadChoice.png","null"
"image-keyboard-response","298","388756","0.0-4.0-2.92","18","Low_HMMActual","null","","","","Images/BlackBeadChoiceWrong.png","null"
"image-keyboard-response","299","389004","0.0-4.0-0.93","18","Low_HMMActual","246.43000005744398","","","","Images/NewTrialWC.png","37"
"image-keyboard-response","300","389405","0.0-4.0-1.93","18","Low_HMMActual","null","","","","Images/BlackBeadChoice.png","null"
"image-keyboard-response","301","390106","0.0-4.0-2.93","18","Low_HMMActual","623.6650000791997","","","","Images/BlackBeadChoiceCorrect.png","37"
"image-keyboard-response","302","390457","0.0-4.0-0.94","18","Low_HMMActual","350.64500011503696","","","","Images/NewTrialBC.png","37"
"image-keyboard-response","303","390859","0.0-4.0-1.94","18","Low_HMMActual","null","","","","Images/BlackBeadChoice.png","null"
"image-keyboard-response","304","391561","0.0-4.0-2.94","18","Low_HMMActual","286.5349999628961","","","","Images/BlackBeadChoiceCorrect.png","37"
"image-keyboard-response","305","391913","0.0-4.0-0.95","18","Low_HMMActual","350.6400000769645","","","","Images/NewTrialBC.png","37"
"image-keyboard-response","306","392314","0.0-4.0-1.95","18","Low_HMMActual","null","","","","Images/BlackBeadChoice.png","null"
"image-keyboard-response","307","393016","0.0-4.0-2.95","18","Low_HMMActual","272.9750000871718","","","","Images/BlackBeadChoiceCorrect.png","37"
"image-keyboard-response","308","393307","0.0-4.0-0.96","18","Low_HMMActual","290.0949998293072","","","","Images/NewTrialBC.png","37"
"image-keyboard-response","309","393710","0.0-4.0-1.96","18","Low_HMMActual","null","","","","Images/BlackBeadChoice.png","null"
"image-keyboard-response","310","394412","0.0-4.0-2.96","18","Low_HMMActual","336.70499990694225","","","","Images/BlackBeadChoiceCorrect.png","37"
"image-keyboard-response","311","394440","0.0-4.0-0.97","18","Low_HMMActual","27.230000123381615","","","","Images/NewTrialBC.png","37"
"image-keyboard-response","312","394842","0.0-4.0-1.97","18","Low_HMMActual","null","","","","Images/BlackBeadChoice.png","null"
"image-keyboard-response","313","395545","0.0-4.0-2.97","18","Low_HMMActual","360.4999999515712","","","","Images/BlackBeadChoiceCorrect.png","37"
"image-keyboard-response","314","395786","0.0-4.0-0.98","18","Low_HMMActual","240.1850000023842","","","","Images/NewTrialBC.png","37"
"image-keyboard-response","315","396188","0.0-4.0-1.98","18","Low_HMMActual","null","","","","Images/BlackBeadChoice.png","null"
"image-keyboard-response","316","396889","0.0-4.0-2.98","18","Low_HMMActual","null","","","","Images/BlackBeadChoiceCorrect.png","null"
"image-keyboard-response","317","397053","0.0-4.0-0.99","18","Low_HMMActual","162.47499990276992","","","","Images/NewTrialBC.png","39"
"image-keyboard-response","318","397455","0.0-4.0-1.99","18","Low_HMMActual","null","","","","Images/WhiteBeadChoice.png","null"
"image-keyboard-response","319","398157","0.0-4.0-2.99","18","Low_HMMActual","null","","","","Images/WhiteBeadChoiceCorrect.png","null"
"image-keyboard-response","320","398909","0.0-4.0-0.100","18","Low_HMMActual","751.0000001639128","","","","Images/NewTrialWC.png","39"
"image-keyboard-response","321","399311","0.0-4.0-1.100","18","Low_HMMActual","null","","","","Images/WhiteBeadChoice.png","null"
"image-keyboard-response","322","400012","0.0-4.0-2.100","18","Low_HMMActual","446.0200001485646","","","","Images/WhiteBeadChoiceWrong.png","37"
"image-keyboard-response","323","400170","0.0-4.0-0.101","18","Low_HMMActual","156.50500007905066","","","","Images/NewTrialBC.png","37"
"image-keyboard-response","324","400572","0.0-4.0-1.101","18","Low_HMMActual","null","","","","Images/BlackBeadChoice.png","null"
"image-keyboard-response","325","401274","0.0-4.0-2.101","18","Low_HMMActual","292.3299998510629","","","","Images/BlackBeadChoiceCorrect.png","37"
"image-keyboard-response","326","401697","0.0-4.0-0.102","18","Low_HMMActual","422.2349999472499","","","","Images/NewTrialBC.png","37"
"image-keyboard-response","327","402098","0.0-4.0-1.102","18","Low_HMMActual","null","","","","Images/BlackBeadChoice.png","null"
"image-keyboard-response","328","402800","0.0-4.0-2.102","18","Low_HMMActual","423.0400000233203","","","","Images/BlackBeadChoiceCorrect.png","37"
"image-keyboard-response","329","402834","0.0-4.0-0.103","18","Low_HMMActual","32.639999873936176","","","","Images/NewTrialBC.png","37"
"image-keyboard-response","330","403235","0.0-4.0-1.103","18","Low_HMMActual","null","","","","Images/BlackBeadChoice.png","null"
"image-keyboard-response","331","403937","0.0-4.0-2.103","18","Low_HMMActual","364.2599999438971","","","","Images/BlackBeadChoiceCorrect.png","37"
"image-keyboard-response","332","404119","0.0-4.0-0.104","18","Low_HMMActual","180.57499988935888","","","","Images/NewTrialBC.png","37"
"image-keyboard-response","333","404520","0.0-4.0-1.104","18","Low_HMMActual","null","","","","Images/BlackBeadChoice.png","null"
"image-keyboard-response","334","405222","0.0-4.0-2.104","18","Low_HMMActual","485.46999995596707","","","","Images/BlackBeadChoiceCorrect.png","37"
"image-keyboard-response","335","405620","0.0-4.0-0.105","18","Low_HMMActual","397.2300000023097","","","","Images/NewTrialBC.png","37"
"image-keyboard-response","336","406022","0.0-4.0-1.105","18","Low_HMMActual","null","","","","Images/BlackBeadChoice.png","null"
"image-keyboard-response","337","406724","0.0-4.0-2.105","18","Low_HMMActual","null","","","","Images/BlackBeadChoiceCorrect.png","null"
"image-keyboard-response","338","431568","0.0-4.0-0.106","18","Low_HMMActual","24841.849999967963","","","","Images/NewTrialBC.png","37"
"image-keyboard-response","339","431969","0.0-4.0-1.106","18","Low_HMMActual","null","","","","Images/BlackBeadChoice.png","null"
"image-keyboard-response","340","432671","0.0-4.0-2.106","18","Low_HMMActual","359.36000011861324","","","","Images/BlackBeadChoiceCorrect.png","37"
"image-keyboard-response","341","433755","0.0-4.0-0.107","18","Low_HMMActual","1082.9700001049787","","","","Images/NewTrialBC.png","37"
"image-keyboard-response","342","434157","0.0-4.0-1.107","18","Low_HMMActual","null","","","","Images/BlackBeadChoice.png","null"
"image-keyboard-response","343","434859","0.0-4.0-2.107","18","Low_HMMActual","384.1750000137836","","","","Images/BlackBeadChoiceCorrect.png","37"
"image-keyboard-response","344","434955","0.0-4.0-0.108","18","Low_HMMActual","96.02999989874661","","","","Images/NewTrialBC.png","37"
"image-keyboard-response","345","435358","0.0-4.0-1.108","18","Low_HMMActual","null","","","","Images/BlackBeadChoice.png","null"
"image-keyboard-response","346","436061","0.0-4.0-2.108","18","Low_HMMActual","553.3800001721829","","","","Images/BlackBeadChoiceCorrect.png","37"
"image-keyboard-response","347","436214","0.0-4.0-0.109","18","Low_HMMActual","152.0450001116842","","","","Images/NewTrialBC.png","37"
"image-keyboard-response","348","436616","0.0-4.0-1.109","18","Low_HMMActual","null","","","","Images/BlackBeadChoice.png","null"
"image-keyboard-response","349","437318","0.0-4.0-2.109","18","Low_HMMActual","363.2400000933558","","","","Images/BlackBeadChoiceCorrect.png","37"
"image-keyboard-response","350","437704","0.0-4.0-0.110","18","Low_HMMActual","384.9150000605732","","","","Images/NewTrialBC.png","37"
"image-keyboard-response","351","438106","0.0-4.0-1.110","18","Low_HMMActual","null","","","","Images/BlackBeadChoice.png","null"
"image-keyboard-response","352","438808","0.0-4.0-2.110","18","Low_HMMActual","null","","","","Images/BlackBeadChoiceWrong.png","null"
"image-keyboard-response","353","439123","0.0-4.0-0.111","18","Low_HMMActual","314.174999948591","","","","Images/NewTrialWC.png","37"
"image-keyboard-response","354","439525","0.0-4.0-1.111","18","Low_HMMActual","null","","","","Images/BlackBeadChoice.png","null"
"image-keyboard-response","355","440227","0.0-4.0-2.111","18","Low_HMMActual","null","","","","Images/BlackBeadChoiceCorrect.png","null"
"image-keyboard-response","356","440423","0.0-4.0-0.112","18","Low_HMMActual","194.98499995097518","","","","Images/NewTrialBC.png","37"
"image-keyboard-response","357","440825","0.0-4.0-1.112","18","Low_HMMActual","null","","","","Images/BlackBeadChoice.png","null"
"image-keyboard-response","358","441526","0.0-4.0-2.112","18","Low_HMMActual","465.2400000486523","","","","Images/BlackBeadChoiceCorrect.png","37"
"image-keyboard-response","359","441649","0.0-4.0-0.113","18","Low_HMMActual","122.38500011153519","","","","Images/NewTrialBC.png","37"
"image-keyboard-response","360","442051","0.0-4.0-1.113","18","Low_HMMActual","null","","","","Images/BlackBeadChoice.png","null"
"image-keyboard-response","361","442754","0.0-4.0-2.113","18","Low_HMMActual","343.63999986089766","","","","Images/BlackBeadChoiceCorrect.png","37"
"image-keyboard-response","362","443114","0.0-4.0-0.114","18","Low_HMMActual","358.82999980822206","","","","Images/NewTrialBC.png","37"
"image-keyboard-response","363","443516","0.0-4.0-1.114","18","Low_HMMActual","null","","","","Images/BlackBeadChoice.png","null"
"image-keyboard-response","364","444218","0.0-4.0-2.114","18","Low_HMMActual","null","","","","Images/BlackBeadChoiceWrong.png","null"
"image-keyboard-response","365","444271","0.0-4.0-0.115","18","Low_HMMActual","52.4100000038743","","","","Images/NewTrialWC.png","37"
"image-keyboard-response","366","444672","0.0-4.0-1.115","18","Low_HMMActual","null","","","","Images/BlackBeadChoice.png","null"
"image-keyboard-response","367","445375","0.0-4.0-2.115","18","Low_HMMActual","null","","","","Images/BlackBeadChoiceCorrect.png","null"
"image-keyboard-response","368","445438","0.0-4.0-0.116","18","Low_HMMActual","62.00999999418855","","","","Images/NewTrialBC.png","37"
"image-keyboard-response","369","445839","0.0-4.0-1.116","18","Low_HMMActual","null","","","","Images/BlackBeadChoice.png","null"
"image-keyboard-response","370","446540","0.0-4.0-2.116","18","Low_HMMActual","359.2499999795109","","","","Images/BlackBeadChoiceCorrect.png","37"
"image-keyboard-response","371","446773","0.0-4.0-0.117","18","Low_HMMActual","231.54999990947545","","","","Images/NewTrialBC.png","37"
"image-keyboard-response","372","447174","0.0-4.0-1.117","18","Low_HMMActual","null","","","","Images/BlackBeadChoice.png","null"
"image-keyboard-response","373","447877","0.0-4.0-2.117","18","Low_HMMActual","null","","","","Images/BlackBeadChoiceWrong.png","null"
"image-keyboard-response","374","447981","0.0-4.0-0.118","18","Low_HMMActual","103.20500005036592","","","","Images/NewTrialWC.png","37"
"image-keyboard-response","375","448383","0.0-4.0-1.118","18","Low_HMMActual","null","","","","Images/BlackBeadChoice.png","null"
"image-keyboard-response","376","449084","0.0-4.0-2.118","18","Low_HMMActual","698.3000000473112","","","","Images/BlackBeadChoiceCorrect.png","37"
"image-keyboard-response","377","449412","0.0-4.0-0.119","18","Low_HMMActual","327.77999993413687","","","","Images/NewTrialBC.png","37"
"image-keyboard-response","378","449814","0.0-4.0-1.119","18","Low_HMMActual","null","","","","Images/BlackBeadChoice.png","null"
"image-keyboard-response","379","450515","0.0-4.0-2.119","18","Low_HMMActual","322.14499986730516","","","","Images/BlackBeadChoiceCorrect.png","37"
"image-keyboard-response","380","450849","0.0-4.0-0.120","18","Low_HMMActual","332.83500000834465","","","","Images/NewTrialBC.png","37"
"image-keyboard-response","381","451251","0.0-4.0-1.120","18","Low_HMMActual","null","","","","Images/BlackBeadChoice.png","null"
"image-keyboard-response","382","451953","0.0-4.0-2.120","18","Low_HMMActual","null","","","","Images/BlackBeadChoiceCorrect.png","null"
"image-keyboard-response","383","452154","0.0-4.0-0.121","18","Low_HMMActual","200.19000000320375","","","","Images/NewTrialBC.png","39"
"image-keyboard-response","384","452555","0.0-4.0-1.121","18","Low_HMMActual","null","","","","Images/WhiteBeadChoice.png","null"
"image-keyboard-response","385","453257","0.0-4.0-2.121","18","Low_HMMActual","null","","","","Images/WhiteBeadChoiceWrong.png","null"
"image-keyboard-response","386","453490","0.0-4.0-0.122","18","Low_HMMActual","231.32000002078712","","","","Images/NewTrialBC.png","37"
"image-keyboard-response","387","453891","0.0-4.0-1.122","18","Low_HMMActual","null","","","","Images/BlackBeadChoice.png","null"
"image-keyboard-response","388","454593","0.0-4.0-2.122","18","Low_HMMActual","404.60500004701316","","","","Images/BlackBeadChoiceCorrect.png","37"
"image-keyboard-response","389","454969","0.0-4.0-0.123","18","Low_HMMActual","374.69500000588596","","","","Images/NewTrialBC.png","37"
"image-keyboard-response","390","455371","0.0-4.0-1.123","18","Low_HMMActual","null","","","","Images/BlackBeadChoice.png","null"
"image-keyboard-response","391","456073","0.0-4.0-2.123","18","Low_HMMActual","null","","","","Images/BlackBeadChoiceCorrect.png","null"
"image-keyboard-response","392","456667","0.0-4.0-0.124","18","Low_HMMActual","593.1799998506904","","","","Images/NewTrialBC.png","37"
"image-keyboard-response","393","457068","0.0-4.0-1.124","18","Low_HMMActual","null","","","","Images/BlackBeadChoice.png","null"
"image-keyboard-response","394","457769","0.0-4.0-2.124","18","Low_HMMActual","null","","","","Images/BlackBeadChoiceWrong.png","null"
"image-keyboard-response","395","457825","0.0-4.0-0.125","18","Low_HMMActual","55.034999968484044","","","","Images/NewTrialWC.png","37"
"image-keyboard-response","396","458227","0.0-4.0-1.125","18","Low_HMMActual","null","","","","Images/BlackBeadChoice.png","null"
"image-keyboard-response","397","458929","0.0-4.0-2.125","18","Low_HMMActual","null","","","","Images/BlackBeadChoiceWrong.png","null"
"image-keyboard-response","398","459203","0.0-4.0-0.126","18","Low_HMMActual","273.43499986454844","","","","Images/NewTrialWC.png","37"
"image-keyboard-response","399","459605","0.0-4.0-1.126","18","Low_HMMActual","null","","","","Images/BlackBeadChoice.png","null"
"image-keyboard-response","400","460306","0.0-4.0-2.126","18","Low_HMMActual","null","","","","Images/BlackBeadChoiceWrong.png","null"
"image-keyboard-response","401","460389","0.0-4.0-0.127","18","Low_HMMActual","81.46000001579523","","","","Images/NewTrialWC.png","39"
"image-keyboard-response","402","460790","0.0-4.0-1.127","18","Low_HMMActual","null","","","","Images/WhiteBeadChoice.png","null"
"image-keyboard-response","403","461491","0.0-4.0-2.127","18","Low_HMMActual","null","","","","Images/WhiteBeadChoiceWrong.png","null"
"image-keyboard-response","404","461878","0.0-4.0-0.128","18","Low_HMMActual","385.4449999053031","","","","Images/NewTrialBC.png","39"
"image-keyboard-response","405","462280","0.0-4.0-1.128","18","Low_HMMActual","null","","","","Images/WhiteBeadChoice.png","null"
"image-keyboard-response","406","462982","0.0-4.0-2.128","18","Low_HMMActual","null","","","","Images/WhiteBeadChoiceWrong.png","null"
"image-keyboard-response","407","463532","0.0-4.0-0.129","18","Low_HMMActual","549.2050000466406","","","","Images/NewTrialBC.png","37"
"image-keyboard-response","408","463934","0.0-4.0-1.129","18","Low_HMMActual","null","","","","Images/BlackBeadChoice.png","null"
"image-keyboard-response","409","464635","0.0-4.0-2.129","18","Low_HMMActual","null","","","","Images/BlackBeadChoiceCorrect.png","null"
"image-keyboard-response","410","466832","0.0-4.0-0.130","18","Low_HMMActual","2195.829999865964","","","","Images/NewTrialBC.png","37"
"image-keyboard-response","411","467233","0.0-4.0-1.130","18","Low_HMMActual","null","","","","Images/BlackBeadChoice.png","null"
"image-keyboard-response","412","467935","0.0-4.0-2.130","18","Low_HMMActual","638.685000129044","","","","Images/BlackBeadChoiceCorrect.png","37"
"image-keyboard-response","413","468509","0.0-4.0-0.131","18","Low_HMMActual","573.6150001175702","","","","Images/NewTrialBC.png","37"
"image-keyboard-response","414","468911","0.0-4.0-1.131","18","Low_HMMActual","null","","","","Images/BlackBeadChoice.png","null"
"image-keyboard-response","415","469612","0.0-4.0-2.131","18","Low_HMMActual","null","","","","Images/BlackBeadChoiceCorrect.png","null"
"image-keyboard-response","416","470360","0.0-4.0-0.132","18","Low_HMMActual","746.4850000105798","","","","Images/NewTrialBC.png","37"
"image-keyboard-response","417","470762","0.0-4.0-1.132","18","Low_HMMActual","null","","","","Images/BlackBeadChoice.png","null"
"image-keyboard-response","418","471465","0.0-4.0-2.132","18","Low_HMMActual","null","","","","Images/BlackBeadChoiceWrong.png","null"
"image-keyboard-response","419","471532","0.0-4.0-0.133","18","Low_HMMActual","66.28999998793006","","","","Images/NewTrialWC.png","37"
"image-keyboard-response","420","471934","0.0-4.0-1.133","18","Low_HMMActual","null","","","","Images/BlackBeadChoice.png","null"
"image-keyboard-response","421","472637","0.0-4.0-2.133","18","Low_HMMActual","null","","","","Images/BlackBeadChoiceCorrect.png","null"
"image-keyboard-response","422","472672","0.0-4.0-0.134","18","Low_HMMActual","34.005000023171306","","","","Images/NewTrialBC.png","37"
"image-keyboard-response","423","473073","0.0-4.0-1.134","18","Low_HMMActual","null","","","","Images/BlackBeadChoice.png","null"
"image-keyboard-response","424","473774","0.0-4.0-2.134","18","Low_HMMActual","331.2900001183152","","","","Images/BlackBeadChoiceCorrect.png","37"
"image-keyboard-response","425","473850","0.0-4.0-0.135","18","Low_HMMActual","74.63499996811152","","","","Images/NewTrialBC.png","37"
"image-keyboard-response","426","474252","0.0-4.0-1.135","18","Low_HMMActual","null","","","","Images/BlackBeadChoice.png","null"
"image-keyboard-response","427","474953","0.0-4.0-2.135","18","Low_HMMActual","323.3150001615286","","","","Images/BlackBeadChoiceCorrect.png","37"
"image-keyboard-response","428","475297","0.0-4.0-0.136","18","Low_HMMActual","343.0750002153218","","","","Images/NewTrialBC.png","37"
"image-keyboard-response","429","475699","0.0-4.0-1.136","18","Low_HMMActual","null","","","","Images/BlackBeadChoice.png","null"
"image-keyboard-response","430","476400","0.0-4.0-2.136","18","Low_HMMActual","null","","","","Images/BlackBeadChoiceCorrect.png","null"
"image-keyboard-response","431","476563","0.0-4.0-0.137","18","Low_HMMActual","161.94500005804002","","","","Images/NewTrialBC.png","37"
"image-keyboard-response","432","476965","0.0-4.0-1.137","18","Low_HMMActual","null","","","","Images/BlackBeadChoice.png","null"
"image-keyboard-response","433","477667","0.0-4.0-2.137","18","Low_HMMActual","null","","","","Images/BlackBeadChoiceWrong.png","null"
"image-keyboard-response","434","477834","0.0-4.0-0.138","18","Low_HMMActual","165.07499990984797","","","","Images/NewTrialWC.png","37"
"image-keyboard-response","435","478236","0.0-4.0-1.138","18","Low_HMMActual","null","","","","Images/BlackBeadChoice.png","null"
"image-keyboard-response","436","478937","0.0-4.0-2.138","18","Low_HMMActual","317.99500016495585","","","","Images/BlackBeadChoiceCorrect.png","37"
"image-keyboard-response","437","479101","0.0-4.0-0.139","18","Low_HMMActual","162.36499999649823","","","","Images/NewTrialBC.png","37"
"image-keyboard-response","438","479503","0.0-4.0-1.139","18","Low_HMMActual","204.8750000540167","","","","Images/BlackBeadChoice.png","37"
"image-keyboard-response","439","480205","0.0-4.0-2.139","18","Low_HMMActual","55.825000163167715","","","","Images/BlackBeadChoiceCorrect.png","37"
"image-keyboard-response","440","480261","0.0-4.0-0.140","18","Low_HMMActual","55.08500011637807","","","","Images/NewTrialBC.png","37"
"image-keyboard-response","441","480663","0.0-4.0-1.140","18","Low_HMMActual","154.93000019341707","","","","Images/BlackBeadChoice.png","37"
"image-keyboard-response","442","481365","0.0-4.0-2.140","18","Low_HMMActual","256.30999985150993","","","","Images/BlackBeadChoiceCorrect.png","37"
"image-keyboard-response","443","481391","0.0-4.0-0.141","18","Low_HMMActual","25.744999991729856","","","","Images/NewTrialBC.png","37"
"image-keyboard-response","444","481793","0.0-4.0-1.141","18","Low_HMMActual","172.94499999843538","","","","Images/BlackBeadChoice.png","37"
"image-keyboard-response","445","482496","0.0-4.0-2.141","18","Low_HMMActual","306.97500007227063","","","","Images/BlackBeadChoiceCorrect.png","37"
"image-keyboard-response","446","482557","0.0-4.0-0.142","18","Low_HMMActual","60.20499998703599","","","","Images/NewTrialBC.png","37"
"image-keyboard-response","447","482959","0.0-4.0-1.142","18","Low_HMMActual","144.33000003919005","","","","Images/BlackBeadChoice.png","37"
"image-keyboard-response","448","483662","0.0-4.0-2.142","18","Low_HMMActual","125.64499978907406","","","","Images/BlackBeadChoiceCorrect.png","39"
"image-keyboard-response","449","483938","0.0-4.0-0.143","18","Low_HMMActual","274.99999990686774","","","","Images/NewTrialBC.png","39"
"image-keyboard-response","450","484340","0.0-4.0-1.143","18","Low_HMMActual","182.0200001820922","","","","Images/WhiteBeadChoice.png","39"
"image-keyboard-response","451","485041","0.0-4.0-2.143","18","Low_HMMActual","null","","","","Images/WhiteBeadChoiceWrong.png","null"
"image-keyboard-response","452","485303","0.0-4.0-0.144","18","Low_HMMActual","261.1500001512468","","","","Images/NewTrialBC.png","37"
"image-keyboard-response","453","485704","0.0-4.0-1.144","18","Low_HMMActual","159.4200001563877","","","","Images/BlackBeadChoice.png","37"
"image-keyboard-response","454","486406","0.0-4.0-2.144","18","Low_HMMActual","342.92500000447035","","","","Images/BlackBeadChoiceCorrect.png","37"
"image-keyboard-response","455","486616","0.0-4.0-0.145","18","Low_HMMActual","209.55000002868474","","","","Images/NewTrialBC.png","37"
"image-keyboard-response","456","487018","0.0-4.0-1.145","18","Low_HMMActual","168.7000000383705","","","","Images/BlackBeadChoice.png","37"
"image-keyboard-response","457","487720","0.0-4.0-2.145","18","Low_HMMActual","339.2600000370294","","","","Images/BlackBeadChoiceWrong.png","37"
"image-keyboard-response","458","487792","0.0-4.0-0.146","18","Low_HMMActual","71.37999986298382","","","","Images/NewTrialWC.png","37"
"image-keyboard-response","459","488193","0.0-4.0-1.146","18","Low_HMMActual","155.75499995611608","","","","Images/BlackBeadChoice.png","37"
"image-keyboard-response","460","488895","0.0-4.0-2.146","18","Low_HMMActual","551.8400000873953","","","","Images/BlackBeadChoiceCorrect.png","37"
"image-keyboard-response","461","488921","0.0-4.0-0.147","18","Low_HMMActual","25.930000003427267","","","","Images/NewTrialBC.png","37"
"image-keyboard-response","462","489323","0.0-4.0-1.147","18","Low_HMMActual","163.15999999642372","","","","Images/BlackBeadChoice.png","37"
"image-keyboard-response","463","490024","0.0-4.0-2.147","18","Low_HMMActual","314.32999996468425","","","","Images/BlackBeadChoiceCorrect.png","37"
"image-keyboard-response","464","490125","0.0-4.0-0.148","18","Low_HMMActual","99.84499984420836","","","","Images/NewTrialBC.png","37"
"image-keyboard-response","465","490527","0.0-4.0-1.148","18","Low_HMMActual","null","","","","Images/BlackBeadChoice.png","null"
"image-keyboard-response","466","491229","0.0-4.0-2.148","18","Low_HMMActual","240.9050001297146","","","","Images/BlackBeadChoiceWrong.png","37"
"image-keyboard-response","467","491254","0.0-4.0-0.149","18","Low_HMMActual","23.314999882131815","","","","Images/NewTrialWC.png","37"
"image-keyboard-response","468","491656","0.0-4.0-1.149","18","Low_HMMActual","null","","","","Images/BlackBeadChoice.png","null"
"image-keyboard-response","469","492358","0.0-4.0-2.149","18","Low_HMMActual","276.1999999638647","","","","Images/BlackBeadChoiceCorrect.png","37"
"image-keyboard-response","470","492445","0.0-4.0-0.150","18","Low_HMMActual","85.82999999634922","","","","Images/NewTrialBC.png","37"
"image-keyboard-response","471","492846","0.0-4.0-1.150","18","Low_HMMActual","null","","","","Images/BlackBeadChoice.png","null"
"image-keyboard-response","472","493547","0.0-4.0-2.150","18","Low_HMMActual","315.7750000245869","","","","Images/BlackBeadChoiceCorrect.png","37"
"image-keyboard-response","473","494063","0.0-4.0-0.151","18","Low_HMMActual","514.8899999912828","","","","Images/NewTrialBC.png","37"
"image-keyboard-response","474","494465","0.0-4.0-1.151","18","Low_HMMActual","null","","","","Images/BlackBeadChoice.png","null"
"image-keyboard-response","475","495167","0.0-4.0-2.151","18","Low_HMMActual","null","","","","Images/BlackBeadChoiceCorrect.png","null"
"image-keyboard-response","476","495300","0.0-4.0-0.152","18","Low_HMMActual","132.25500006228685","","","","Images/NewTrialBC.png","39"
"image-keyboard-response","477","495703","0.0-4.0-1.152","18","Low_HMMActual","null","","","","Images/WhiteBeadChoice.png","null"
"image-keyboard-response","478","496404","0.0-4.0-2.152","18","Low_HMMActual","null","","","","Images/WhiteBeadChoiceCorrect.png","null"
"image-keyboard-response","479","496767","0.0-4.0-0.153","18","Low_HMMActual","361.77499988116324","","","","Images/NewTrialWC.png","37"
"image-keyboard-response","480","497170","0.0-4.0-1.153","18","Low_HMMActual","null","","","","Images/BlackBeadChoice.png","null"
"image-keyboard-response","481","497871","0.0-4.0-2.153","18","Low_HMMActual","null","","","","Images/BlackBeadChoiceCorrect.png","null"
"image-keyboard-response","482","498146","0.0-4.0-0.154","18","Low_HMMActual","274.0200001280755","","","","Images/NewTrialBC.png","37"
"image-keyboard-response","483","498549","0.0-4.0-1.154","18","Low_HMMActual","null","","","","Images/BlackBeadChoice.png","null"
"image-keyboard-response","484","499251","0.0-4.0-2.154","18","Low_HMMActual","null","","","","Images/BlackBeadChoiceWrong.png","null"
"image-keyboard-response","485","499447","0.0-4.0-0.155","18","Low_HMMActual","195.52500010468066","","","","Images/NewTrialWC.png","37"
"image-keyboard-response","486","499850","0.0-4.0-1.155","18","Low_HMMActual","null","","","","Images/BlackBeadChoice.png","null"
"image-keyboard-response","487","500552","0.0-4.0-2.155","18","Low_HMMActual","null","","","","Images/BlackBeadChoiceWrong.png","null"
"image-keyboard-response","488","510443","0.0-4.0-0.156","18","Low_HMMActual","9890.005000168458","","","","Images/NewTrialWC.png","37"
"image-keyboard-response","489","510845","0.0-4.0-1.156","18","Low_HMMActual","null","","","","Images/BlackBeadChoice.png","null"
"image-keyboard-response","490","511547","0.0-4.0-2.156","18","Low_HMMActual","null","","","","Images/BlackBeadChoiceCorrect.png","null"
"image-keyboard-response","491","586702","0.0-4.0-0.157","18","Low_HMMActual","75154.6700000763","","","","Images/NewTrialBC.png","37"
"image-keyboard-response","492","587103","0.0-4.0-1.157","18","Low_HMMActual","null","","","","Images/BlackBeadChoice.png","null"
"image-keyboard-response","493","587805","0.0-4.0-2.157","18","Low_HMMActual","null","","","","Images/BlackBeadChoiceWrong.png","null"
"image-keyboard-response","494","591954","0.0-4.0-0.158","18","Low_HMMActual","4147.924999939278","","","","Images/NewTrialWC.png","37"
"image-keyboard-response","495","592355","0.0-4.0-1.158","18","Low_HMMActual","null","","","","Images/BlackBeadChoice.png","null"
"image-keyboard-response","496","593057","0.0-4.0-2.158","18","Low_HMMActual","482.5399999972433","","","","Images/BlackBeadChoiceWrong.png","37"
"image-keyboard-response","497","593687","0.0-4.0-0.159","18","Low_HMMActual","629.3099999893457","","","","Images/NewTrialWC.png","37"
"image-keyboard-response","498","594089","0.0-4.0-1.159","18","Low_HMMActual","null","","","","Images/BlackBeadChoice.png","null"
"image-keyboard-response","499","594790","0.0-4.0-2.159","18","Low_HMMActual","null","","","","Images/BlackBeadChoiceWrong.png","null"
"image-keyboard-response","500","595036","0.0-4.0-0.160","18","Low_HMMActual","244.44499984383583","","","","Images/NewTrialWC.png","39"
"image-keyboard-response","501","595437","0.0-4.0-1.160","18","Low_HMMActual","null","","","","Images/WhiteBeadChoice.png","null"
"image-keyboard-response","502","596138","0.0-4.0-2.160","18","Low_HMMActual","393.3800000231713","","","","Images/WhiteBeadChoiceCorrect.png","39"
"image-keyboard-response","503","596244","0.0-4.0-0.161","18","Low_HMMActual","105.09500000625849","","","","Images/NewTrialWC.png","39"
"image-keyboard-response","504","596646","0.0-4.0-1.161","18","Low_HMMActual","null","","","","Images/WhiteBeadChoice.png","null"
"image-keyboard-response","505","597348","0.0-4.0-2.161","18","Low_HMMActual","275.9899999946356","","","","Images/WhiteBeadChoiceCorrect.png","39"
"image-keyboard-response","506","597443","0.0-4.0-0.162","18","Low_HMMActual","93.37000013329089","","","","Images/NewTrialWC.png","39"
"image-keyboard-response","507","597844","0.0-4.0-1.162","18","Low_HMMActual","null","","","","Images/WhiteBeadChoice.png","null"
"image-keyboard-response","508","598546","0.0-4.0-2.162","18","Low_HMMActual","423.0499998666346","","","","Images/WhiteBeadChoiceWrong.png","37"
"image-keyboard-response","509","599111","0.0-4.0-0.163","18","Low_HMMActual","564.0150001272559","","","","Images/NewTrialBC.png","39"
"image-keyboard-response","510","599512","0.0-4.0-1.163","18","Low_HMMActual","null","","","","Images/WhiteBeadChoice.png","null"
"image-keyboard-response","511","600214","0.0-4.0-2.163","18","Low_HMMActual","null","","","","Images/WhiteBeadChoiceCorrect.png","null"
"image-keyboard-response","512","600436","0.0-4.0-0.164","18","Low_HMMActual","220.9049998782575","","","","Images/NewTrialWC.png","39"
"image-keyboard-response","513","600838","0.0-4.0-1.164","18","Low_HMMActual","null","","","","Images/WhiteBeadChoice.png","null"
"image-keyboard-response","514","601539","0.0-4.0-2.164","18","Low_HMMActual","479.68000010587275","","","","Images/WhiteBeadChoiceCorrect.png","39"
"image-keyboard-response","515","601614","0.0-4.0-0.165","18","Low_HMMActual","73.78500001505017","","","","Images/NewTrialWC.png","39"
"image-keyboard-response","516","602016","0.0-4.0-1.165","18","Low_HMMActual","225.78999982215464","","","","Images/WhiteBeadChoice.png","39"
"image-keyboard-response","517","602718","0.0-4.0-2.165","18","Low_HMMActual","274.47499986737967","","","","Images/WhiteBeadChoiceCorrect.png","39"
"image-keyboard-response","518","602888","0.0-4.0-0.166","18","Low_HMMActual","169.02999999001622","","","","Images/NewTrialWC.png","39"
"image-keyboard-response","519","603291","0.0-4.0-1.166","18","Low_HMMActual","null","","","","Images/WhiteBeadChoice.png","null"
"image-keyboard-response","520","603993","0.0-4.0-2.166","18","Low_HMMActual","600.730000063777","","","","Images/WhiteBeadChoiceWrong.png","39"
"image-keyboard-response","521","604194","0.0-4.0-0.167","18","Low_HMMActual","200.175000121817","","","","Images/NewTrialBC.png","39"
"image-keyboard-response","522","604596","0.0-4.0-1.167","18","Low_HMMActual","null","","","","Images/WhiteBeadChoice.png","null"
"image-keyboard-response","523","605297","0.0-4.0-2.167","18","Low_HMMActual","429.109999909997","","","","Images/WhiteBeadChoiceWrong.png","39"
"image-keyboard-response","524","605305","0.0-4.0-0.168","18","Low_HMMActual","6.2599999364465475","","","","Images/NewTrialBC.png","39"
"image-keyboard-response","525","605707","0.0-4.0-1.168","18","Low_HMMActual","222.4250000435859","","","","Images/WhiteBeadChoice.png","39"
"image-keyboard-response","526","606409","0.0-4.0-2.168","18","Low_HMMActual","459.1449999716133","","","","Images/WhiteBeadChoiceCorrect.png","39"
"image-keyboard-response","527","606593","0.0-4.0-0.169","18","Low_HMMActual","183.6399999447167","","","","Images/NewTrialWC.png","39"
"image-keyboard-response","528","606995","0.0-4.0-1.169","18","Low_HMMActual","null","","","","Images/WhiteBeadChoice.png","null"
"image-keyboard-response","529","607697","0.0-4.0-2.169","18","Low_HMMActual","null","","","","Images/WhiteBeadChoiceCorrect.png","null"
"image-keyboard-response","530","607858","0.0-4.0-0.170","18","Low_HMMActual","159.35999993234873","","","","Images/NewTrialWC.png","39"
"image-keyboard-response","531","608259","0.0-4.0-1.170","18","Low_HMMActual","null","","","","Images/WhiteBeadChoice.png","null"
"image-keyboard-response","532","608961","0.0-4.0-2.170","18","Low_HMMActual","null","","","","Images/WhiteBeadChoiceCorrect.png","null"
"image-keyboard-response","533","609152","0.0-4.0-0.171","18","Low_HMMActual","189.55000001005828","","","","Images/NewTrialWC.png","39"
"image-keyboard-response","534","609553","0.0-4.0-1.171","18","Low_HMMActual","null","","","","Images/WhiteBeadChoice.png","null"
"image-keyboard-response","535","610255","0.0-4.0-2.171","18","Low_HMMActual","null","","","","Images/WhiteBeadChoiceCorrect.png","null"
"image-keyboard-response","536","610367","0.0-4.0-0.172","18","Low_HMMActual","111.16999993100762","","","","Images/NewTrialWC.png","39"
"image-keyboard-response","537","610768","0.0-4.0-1.172","18","Low_HMMActual","null","","","","Images/WhiteBeadChoice.png","null"
"image-keyboard-response","538","611469","0.0-4.0-2.172","18","Low_HMMActual","636.6300000809133","","","","Images/WhiteBeadChoiceCorrect.png","37"
"image-keyboard-response","539","611794","0.0-4.0-0.173","18","Low_HMMActual","323.6599999945611","","","","Images/NewTrialWC.png","37"
"image-keyboard-response","540","612196","0.0-4.0-1.173","18","Low_HMMActual","null","","","","Images/BlackBeadChoice.png","null"
"image-keyboard-response","541","612898","0.0-4.0-2.173","18","Low_HMMActual","null","","","","Images/BlackBeadChoiceCorrect.png","null"
"image-keyboard-response","542","613130","0.0-4.0-0.174","18","Low_HMMActual","230.72999995201826","","","","Images/NewTrialBC.png","39"
"image-keyboard-response","543","613531","0.0-4.0-1.174","18","Low_HMMActual","null","","","","Images/WhiteBeadChoice.png","null"
"image-keyboard-response","544","614232","0.0-4.0-2.174","18","Low_HMMActual","646.4249999262393","","","","Images/WhiteBeadChoiceWrong.png","39"
"image-keyboard-response","545","614569","0.0-4.0-0.175","18","Low_HMMActual","335.42999997735023","","","","Images/NewTrialBC.png","39"
"image-keyboard-response","546","614970","0.0-4.0-1.175","18","Low_HMMActual","null","","","","Images/WhiteBeadChoice.png","null"
"image-keyboard-response","547","615671","0.0-4.0-2.175","18","Low_HMMActual","539.6300000138581","","","","Images/WhiteBeadChoiceWrong.png","37"
"image-keyboard-response","548","615813","0.0-4.0-0.176","18","Low_HMMActual","140.58999996632338","","","","Images/NewTrialBC.png","37"
"image-keyboard-response","549","616214","0.0-4.0-1.176","18","Low_HMMActual","214.41500005312264","","","","Images/BlackBeadChoice.png","37"
"image-keyboard-response","550","616916","0.0-4.0-2.176","18","Low_HMMActual","null","","","","Images/BlackBeadChoiceCorrect.png","null"
"image-keyboard-response","551","617697","0.0-4.0-0.177","18","Low_HMMActual","779.6199999283999","","","","Images/NewTrialBC.png","37"
"image-keyboard-response","552","618099","0.0-4.0-1.177","18","Low_HMMActual","null","","","","Images/BlackBeadChoice.png","null"
"image-keyboard-response","553","618800","0.0-4.0-2.177","18","Low_HMMActual","592.8350000176579","","","","Images/BlackBeadChoiceWrong.png","37"
"image-keyboard-response","554","619286","0.0-4.0-0.178","18","Low_HMMActual","484.6000000834465","","","","Images/NewTrialWC.png","37"
"image-keyboard-response","555","619687","0.0-4.0-1.178","18","Low_HMMActual","null","","","","Images/BlackBeadChoice.png","null"
"image-keyboard-response","556","620389","0.0-4.0-2.178","18","Low_HMMActual","null","","","","Images/BlackBeadChoiceCorrect.png","null"
"image-keyboard-response","557","620414","0.0-4.0-0.179","18","Low_HMMActual","24.45499994792044","","","","Images/NewTrialBC.png","37"
"image-keyboard-response","558","620815","0.0-4.0-1.179","18","Low_HMMActual","null","","","","Images/BlackBeadChoice.png","null"
"image-keyboard-response","559","621518","0.0-4.0-2.179","18","Low_HMMActual","null","","","","Images/BlackBeadChoiceCorrect.png","null"
"image-keyboard-response","560","634492","0.0-4.0-0.180","18","Low_HMMActual","12973.269999958575","","","","Images/NewTrialBC.png","37"
"image-keyboard-response","561","634893","0.0-4.0-1.180","18","Low_HMMActual","null","","","","Images/BlackBeadChoice.png","null"
"image-keyboard-response","562","635594","0.0-4.0-2.180","18","Low_HMMActual","346.12499992363155","","","","Images/BlackBeadChoiceWrong.png","37"
"image-keyboard-response","563","635758","0.0-4.0-0.181","18","Low_HMMActual","162.81000012531877","","","","Images/NewTrialWC.png","37"
"image-keyboard-response","564","636160","0.0-4.0-1.181","18","Low_HMMActual","160.45999992638826","","","","Images/BlackBeadChoice.png","37"
"image-keyboard-response","565","636861","0.0-4.0-2.181","18","Low_HMMActual","273.4550000168383","","","","Images/BlackBeadChoiceCorrect.png","37"
"image-keyboard-response","566","636936","0.0-4.0-0.182","18","Low_HMMActual","73.7649998627603","","","","Images/NewTrialBC.png","37"
"image-keyboard-response","567","637338","0.0-4.0-1.182","18","Low_HMMActual","null","","","","Images/BlackBeadChoice.png","null"
"image-keyboard-response","568","638040","0.0-4.0-2.182","18","Low_HMMActual","541.6149999946356","","","","Images/BlackBeadChoiceCorrect.png","37"
"image-keyboard-response","569","638590","0.0-4.0-0.183","18","Low_HMMActual","549.2400000803173","","","","Images/NewTrialBC.png","37"
"image-keyboard-response","570","638992","0.0-4.0-1.183","18","Low_HMMActual","null","","","","Images/BlackBeadChoice.png","null"
"image-keyboard-response","571","639693","0.0-4.0-2.183","18","Low_HMMActual","152.46000001206994","","","","Images/BlackBeadChoiceCorrect.png","37"
"image-keyboard-response","572","639705","0.0-4.0-0.184","18","Low_HMMActual","10.694999946281314","","","","Images/NewTrialBC.png","37"
"image-keyboard-response","573","640106","0.0-4.0-1.184","18","Low_HMMActual","341.8000000528991","","","","Images/BlackBeadChoice.png","37"
"image-keyboard-response","574","640807","0.0-4.0-2.184","18","Low_HMMActual","325.8050000295043","","","","Images/BlackBeadChoiceWrong.png","37"
"image-keyboard-response","575","641231","0.0-4.0-0.185","18","Low_HMMActual","423.030000180006","","","","Images/NewTrialWC.png","37"
"image-keyboard-response","576","641633","0.0-4.0-1.185","18","Low_HMMActual","null","","","","Images/BlackBeadChoice.png","null"
"image-keyboard-response","577","642334","0.0-4.0-2.185","18","Low_HMMActual","null","","","","Images/BlackBeadChoiceCorrect.png","null"
"image-keyboard-response","578","647271","0.0-4.0-0.186","18","Low_HMMActual","4936.5899998229","","","","Images/NewTrialBC.png","37"
"image-keyboard-response","579","647673","0.0-4.0-1.186","18","Low_HMMActual","null","","","","Images/BlackBeadChoice.png","null"
"image-keyboard-response","580","648375","0.0-4.0-2.186","18","Low_HMMActual","250.37499982863665","","","","Images/BlackBeadChoiceCorrect.png","37"
"image-keyboard-response","581","648645","0.0-4.0-0.187","18","Low_HMMActual","269.0099999308586","","","","Images/NewTrialBC.png","37"
"image-keyboard-response","582","649046","0.0-4.0-1.187","18","Low_HMMActual","206.4650000538677","","","","Images/BlackBeadChoice.png","37"
"image-keyboard-response","583","649748","0.0-4.0-2.187","18","Low_HMMActual","40.78499996103346","","","","Images/BlackBeadChoiceCorrect.png","37"
"image-keyboard-response","584","649763","0.0-4.0-0.188","18","Low_HMMActual","14.274999964982271","","","","Images/NewTrialBC.png","37"
"image-keyboard-response","585","650165","0.0-4.0-1.188","18","Low_HMMActual","149.500000057742","","","","Images/BlackBeadChoice.png","37"
"image-keyboard-response","586","650866","0.0-4.0-2.188","18","Low_HMMActual","131.93999999202788","","","","Images/BlackBeadChoiceCorrect.png","37"
"image-keyboard-response","587","650958","0.0-4.0-0.189","18","Low_HMMActual","91.07499988749623","","","","Images/NewTrialBC.png","37"
"image-keyboard-response","588","651360","0.0-4.0-1.189","18","Low_HMMActual","158.945000031963","","","","Images/BlackBeadChoice.png","37"
"image-keyboard-response","589","652062","0.0-4.0-2.189","18","Low_HMMActual","86.64000011049211","","","","Images/BlackBeadChoiceCorrect.png","37"
"image-keyboard-response","590","658034","0.0-4.0-0.190","18","Low_HMMActual","5971.339999930933","","","","Images/NewTrialBC.png","37"
"image-keyboard-response","591","658435","0.0-4.0-1.190","18","Low_HMMActual","null","","","","Images/BlackBeadChoice.png","null"
"image-keyboard-response","592","659138","0.0-4.0-2.190","18","Low_HMMActual","280.3850001655519","","","","Images/BlackBeadChoiceCorrect.png","37"
"image-keyboard-response","593","659194","0.0-4.0-0.191","18","Low_HMMActual","55.28500000946224","","","","Images/NewTrialBC.png","37"
"image-keyboard-response","594","659595","0.0-4.0-1.191","18","Low_HMMActual","null","","","","Images/BlackBeadChoice.png","null"
"image-keyboard-response","595","660296","0.0-4.0-2.191","18","Low_HMMActual","null","","","","Images/BlackBeadChoiceWrong.png","null"
"image-keyboard-response","596","692647","0.0-4.0-0.192","18","Low_HMMActual","32350.340000120923","","","","Images/NewTrialWC.png","37"
"image-keyboard-response","597","693049","0.0-4.0-1.192","18","Low_HMMActual","null","","","","Images/BlackBeadChoice.png","null"
"image-keyboard-response","598","693751","0.0-4.0-2.192","18","Low_HMMActual","null","","","","Images/BlackBeadChoiceCorrect.png","null"
"image-keyboard-response","599","694953","0.0-4.0-0.193","18","Low_HMMActual","1201.1199998669326","","","","Images/NewTrialBC.png","37"
"image-keyboard-response","600","695354","0.0-4.0-1.193","18","Low_HMMActual","null","","","","Images/BlackBeadChoice.png","null"
"image-keyboard-response","601","696057","0.0-4.0-2.193","18","Low_HMMActual","575.3200000617653","","","","Images/BlackBeadChoiceCorrect.png","37"
"image-keyboard-response","602","697432","0.0-4.0-0.194","18","Low_HMMActual","1374.6199999004602","","","","Images/NewTrialBC.png","37"
"image-keyboard-response","603","697834","0.0-4.0-1.194","18","Low_HMMActual","null","","","","Images/BlackBeadChoice.png","null"
"image-keyboard-response","604","698536","0.0-4.0-2.194","18","Low_HMMActual","null","","","","Images/BlackBeadChoiceCorrect.png","null"
"image-keyboard-response","605","698660","0.0-4.0-0.195","18","Low_HMMActual","123.4900001436472","","","","Images/NewTrialBC.png","37"
"image-keyboard-response","606","699062","0.0-4.0-1.195","18","Low_HMMActual","null","","","","Images/BlackBeadChoice.png","null"
"image-keyboard-response","607","699763","0.0-4.0-2.195","18","Low_HMMActual","536.0399999190122","","","","Images/BlackBeadChoiceCorrect.png","37"
"image-keyboard-response","608","700200","0.0-4.0-0.196","18","Low_HMMActual","436.2350001465529","","","","Images/NewTrialBC.png","37"
"image-keyboard-response","609","700601","0.0-4.0-1.196","18","Low_HMMActual","null","","","","Images/BlackBeadChoice.png","null"
"image-keyboard-response","610","701303","0.0-4.0-2.196","18","Low_HMMActual","644.7800002060831","","","","Images/BlackBeadChoiceCorrect.png","37"
"image-keyboard-response","611","701672","0.0-4.0-0.197","18","Low_HMMActual","368.28999989666045","","","","Images/NewTrialBC.png","37"
"image-keyboard-response","612","702074","0.0-4.0-1.197","18","Low_HMMActual","null","","","","Images/BlackBeadChoice.png","null"
"image-keyboard-response","613","702776","0.0-4.0-2.197","18","Low_HMMActual","null","","","","Images/BlackBeadChoiceWrong.png","null"
"image-keyboard-response","614","706574","0.0-4.0-0.198","18","Low_HMMActual","3796.70500010252","","","","Images/NewTrialWC.png","37"
"image-keyboard-response","615","706975","0.0-4.0-1.198","18","Low_HMMActual","null","","","","Images/BlackBeadChoice.png","null"
"image-keyboard-response","616","707676","0.0-4.0-2.198","18","Low_HMMActual","279.9100000411272","","","","Images/BlackBeadChoiceWrong.png","37"
"image-keyboard-response","617","708150","0.0-4.0-0.199","18","Low_HMMActual","473.0299999937415","","","","Images/NewTrialWC.png","37"
"image-keyboard-response","618","708552","0.0-4.0-1.199","18","Low_HMMActual","null","","","","Images/BlackBeadChoice.png","null"
"image-keyboard-response","619","709254","0.0-4.0-2.199","18","Low_HMMActual","399.01000005193055","","","","Images/BlackBeadChoiceCorrect.png","37"
"image-keyboard-response","620","709521","0.0-4.0-0.200","18","Low_HMMActual","266.3799999281764","","","","Images/NewTrialBC.png","37"
"image-keyboard-response","621","709924","0.0-4.0-1.200","18","Low_HMMActual","null","","","","Images/BlackBeadChoice.png","null"
"image-keyboard-response","622","710625","0.0-4.0-2.200","18","Low_HMMActual","332.8499998897314","","","","Images/BlackBeadChoiceCorrect.png","37"
"image-keyboard-response","623","710815","0.0-4.0-0.201","18","Low_HMMActual","189.28000004962087","","","","Images/NewTrialBC.png","37"
"image-keyboard-response","624","711218","0.0-4.0-1.201","18","Low_HMMActual","null","","","","Images/BlackBeadChoice.png","null"
"image-keyboard-response","625","711919","0.0-4.0-2.201","18","Low_HMMActual","664.3950000870973","","","","Images/BlackBeadChoiceCorrect.png","37"
"image-keyboard-response","626","712338","0.0-4.0-0.202","18","Low_HMMActual","418.1900001130998","","","","Images/NewTrialBC.png","37"
"image-keyboard-response","627","712739","0.0-4.0-1.202","18","Low_HMMActual","null","","","","Images/BlackBeadChoice.png","null"
"image-keyboard-response","628","713440","0.0-4.0-2.202","18","Low_HMMActual","null","","","","Images/BlackBeadChoiceCorrect.png","null"
"image-keyboard-response","629","732805","0.0-4.0-0.203","18","Low_HMMActual","19363.889999920502","","","","Images/NewTrialBC.png","37"
"image-keyboard-response","630","733206","0.0-4.0-1.203","18","Low_HMMActual","null","","","","Images/BlackBeadChoice.png","null"
"image-keyboard-response","631","733908","0.0-4.0-2.203","18","Low_HMMActual","null","","","","Images/BlackBeadChoiceWrong.png","null"
"image-keyboard-response","632","734684","0.0-4.0-0.204","18","Low_HMMActual","775.4450000356883","","","","Images/NewTrialWC.png","37"
"image-keyboard-response","633","735086","0.0-4.0-1.204","18","Low_HMMActual","null","","","","Images/BlackBeadChoice.png","null"
"image-keyboard-response","634","735787","0.0-4.0-2.204","18","Low_HMMActual","null","","","","Images/BlackBeadChoiceCorrect.png","null"
"image-keyboard-response","635","736389","0.0-4.0-0.205","18","Low_HMMActual","601.130000082776","","","","Images/NewTrialBC.png","37"
"image-keyboard-response","636","736790","0.0-4.0-1.205","18","Low_HMMActual","null","","","","Images/BlackBeadChoice.png","null"
"image-keyboard-response","637","737492","0.0-4.0-2.205","18","Low_HMMActual","378.4499999601394","","","","Images/BlackBeadChoiceCorrect.png","37"
"image-keyboard-response","638","738285","0.0-4.0-0.206","18","Low_HMMActual","791.9149999506772","","","","Images/NewTrialBC.png","37"
"image-keyboard-response","639","738687","0.0-4.0-1.206","18","Low_HMMActual","null","","","","Images/BlackBeadChoice.png","null"
"image-keyboard-response","640","739389","0.0-4.0-2.206","18","Low_HMMActual","349.2449999321252","","","","Images/BlackBeadChoiceCorrect.png","37"
"image-keyboard-response","641","740282","0.0-4.0-0.207","18","Low_HMMActual","892.5449999514967","","","","Images/NewTrialBC.png","37"
"image-keyboard-response","642","740684","0.0-4.0-1.207","18","Low_HMMActual","null","","","","Images/BlackBeadChoice.png","null"
"image-keyboard-response","643","741385","0.0-4.0-2.207","18","Low_HMMActual","377.7399999089539","","","","Images/BlackBeadChoiceCorrect.png","37"
"image-keyboard-response","644","741823","0.0-4.0-0.208","18","Low_HMMActual","437.72000004537404","","","","Images/NewTrialBC.png","37"
"image-keyboard-response","645","742225","0.0-4.0-1.208","18","Low_HMMActual","null","","","","Images/BlackBeadChoice.png","null"
"image-keyboard-response","646","742926","0.0-4.0-2.208","18","Low_HMMActual","null","","","","Images/BlackBeadChoiceCorrect.png","null"
"image-keyboard-response","647","743100","0.0-4.0-0.209","18","Low_HMMActual","172.41499992087483","","","","Images/NewTrialBC.png","39"
"image-keyboard-response","648","743502","0.0-4.0-1.209","18","Low_HMMActual","null","","","","Images/WhiteBeadChoice.png","null"
"image-keyboard-response","649","744203","0.0-4.0-2.209","18","Low_HMMActual","null","","","","Images/WhiteBeadChoiceWrong.png","null"
"image-keyboard-response","650","744345","0.0-4.0-0.210","18","Low_HMMActual","141.4199999999255","","","","Images/NewTrialBC.png","39"
"image-keyboard-response","651","744748","0.0-4.0-1.210","18","Low_HMMActual","null","","","","Images/WhiteBeadChoice.png","null"
"image-keyboard-response","652","745449","0.0-4.0-2.210","18","Low_HMMActual","345.0650000013411","","","","Images/WhiteBeadChoiceWrong.png","37"
"image-keyboard-response","653","745534","0.0-4.0-0.211","18","Low_HMMActual","84.44000012241304","","","","Images/NewTrialBC.png","37"
"image-keyboard-response","654","745936","0.0-4.0-1.211","18","Low_HMMActual","null","","","","Images/BlackBeadChoice.png","null"
"image-keyboard-response","655","746638","0.0-4.0-2.211","18","Low_HMMActual","369.9699998833239","","","","Images/BlackBeadChoiceCorrect.png","37"
"image-keyboard-response","656","746709","0.0-4.0-0.212","18","Low_HMMActual","70.58500009588897","","","","Images/NewTrialBC.png","37"
"image-keyboard-response","657","747111","0.0-4.0-1.212","18","Low_HMMActual","null","","","","Images/BlackBeadChoice.png","null"
"image-keyboard-response","658","747813","0.0-4.0-2.212","18","Low_HMMActual","525.3299998585135","","","","Images/BlackBeadChoiceCorrect.png","37"
"image-keyboard-response","659","748126","0.0-4.0-0.213","18","Low_HMMActual","312.8900001756847","","","","Images/NewTrialBC.png","37"
"image-keyboard-response","660","748528","0.0-4.0-1.213","18","Low_HMMActual","null","","","","Images/BlackBeadChoice.png","null"
"image-keyboard-response","661","749230","0.0-4.0-2.213","18","Low_HMMActual","null","","","","Images/BlackBeadChoiceCorrect.png","null"
"image-keyboard-response","662","749465","0.0-4.0-0.214","18","Low_HMMActual","233.75999997369945","","","","Images/NewTrialBC.png","39"
"image-keyboard-response","663","749866","0.0-4.0-1.214","18","Low_HMMActual","null","","","","Images/WhiteBeadChoice.png","null"
"image-keyboard-response","664","750568","0.0-4.0-2.214","18","Low_HMMActual","498.9549999590963","","","","Images/WhiteBeadChoiceWrong.png","37"
"image-keyboard-response","665","750613","0.0-4.0-0.215","18","Low_HMMActual","44.26000011153519","","","","Images/NewTrialBC.png","37"
"image-keyboard-response","666","751015","0.0-4.0-1.215","18","Low_HMMActual","170.32000003382564","","","","Images/BlackBeadChoice.png","37"
"image-keyboard-response","667","751717","0.0-4.0-2.215","18","Low_HMMActual","290.5949999112636","","","","Images/BlackBeadChoiceCorrect.png","37"
"image-keyboard-response","668","751756","0.0-4.0-0.216","18","Low_HMMActual","38.434999994933605","","","","Images/NewTrialBC.png","37"
"image-keyboard-response","669","752158","0.0-4.0-1.216","18","Low_HMMActual","145.21500002592802","","","","Images/BlackBeadChoice.png","37"
"image-keyboard-response","670","752860","0.0-4.0-2.216","18","Low_HMMActual","415.38999998010695","","","","Images/BlackBeadChoiceCorrect.png","37"
"image-keyboard-response","671","753138","0.0-4.0-0.217","18","Low_HMMActual","276.0349998716265","","","","Images/NewTrialBC.png","37"
"image-keyboard-response","672","753539","0.0-4.0-1.217","18","Low_HMMActual","150.70499991998076","","","","Images/BlackBeadChoice.png","37"
"image-keyboard-response","673","754241","0.0-4.0-2.217","18","Low_HMMActual","330.7999998796731","","","","Images/BlackBeadChoiceCorrect.png","37"
"image-keyboard-response","674","754507","0.0-4.0-0.218","18","Low_HMMActual","264.74000001326203","","","","Images/NewTrialBC.png","37"
"image-keyboard-response","675","754908","0.0-4.0-1.218","18","Low_HMMActual","null","","","","Images/BlackBeadChoice.png","null"
"image-keyboard-response","676","755610","0.0-4.0-2.218","18","Low_HMMActual","477.05999994650483","","","","Images/BlackBeadChoiceCorrect.png","37"
"image-keyboard-response","677","755741","0.0-4.0-0.219","18","Low_HMMActual","130.72500005364418","","","","Images/NewTrialBC.png","37"
"image-keyboard-response","678","756143","0.0-4.0-1.219","18","Low_HMMActual","null","","","","Images/BlackBeadChoice.png","null"
"image-keyboard-response","679","756845","0.0-4.0-2.219","18","Low_HMMActual","null","","","","Images/BlackBeadChoiceWrong.png","null"
"image-keyboard-response","680","757117","0.0-4.0-0.220","18","Low_HMMActual","271.0100000258535","","","","Images/NewTrialWC.png","37"
"image-keyboard-response","681","757519","0.0-4.0-1.220","18","Low_HMMActual","null","","","","Images/BlackBeadChoice.png","null"
"image-keyboard-response","682","758221","0.0-4.0-2.220","18","Low_HMMActual","313.2850001566112","","","","Images/BlackBeadChoiceCorrect.png","37"
"image-keyboard-response","683","758251","0.0-4.0-0.221","18","Low_HMMActual","29.350000200793147","","","","Images/NewTrialBC.png","37"
"image-keyboard-response","684","758653","0.0-4.0-1.221","18","Low_HMMActual","null","","","","Images/BlackBeadChoice.png","null"
"image-keyboard-response","685","759355","0.0-4.0-2.221","18","Low_HMMActual","null","","","","Images/BlackBeadChoiceCorrect.png","null"
"image-keyboard-response","686","759621","0.0-4.0-0.222","18","Low_HMMActual","264.885000186041","","","","Images/NewTrialBC.png","37"
"image-keyboard-response","687","760023","0.0-4.0-1.222","18","Low_HMMActual","null","","","","Images/BlackBeadChoice.png","null"
"image-keyboard-response","688","760724","0.0-4.0-2.222","18","Low_HMMActual","647.9500001296401","","","","Images/BlackBeadChoiceWrong.png","39"
"image-keyboard-response","689","761101","0.0-4.0-0.223","18","Low_HMMActual","375.8600000292063","","","","Images/NewTrialWC.png","39"
"image-keyboard-response","690","761502","0.0-4.0-1.223","18","Low_HMMActual","null","","","","Images/WhiteBeadChoice.png","null"
"image-keyboard-response","691","762204","0.0-4.0-2.223","18","Low_HMMActual","null","","","","Images/WhiteBeadChoiceWrong.png","null"
"image-keyboard-response","692","762336","0.0-4.0-0.224","18","Low_HMMActual","130.39000006392598","","","","Images/NewTrialBC.png","37"
"image-keyboard-response","693","762737","0.0-4.0-1.224","18","Low_HMMActual","null","","","","Images/BlackBeadChoice.png","null"
"image-keyboard-response","694","763438","0.0-4.0-2.224","18","Low_HMMActual","533.7649998255074","","","","Images/BlackBeadChoiceCorrect.png","37"
"image-keyboard-response","695","763679","0.0-4.0-0.225","18","Low_HMMActual","240.1100001297891","","","","Images/NewTrialBC.png","37"
"image-keyboard-response","696","764081","0.0-4.0-1.225","18","Low_HMMActual","null","","","","Images/BlackBeadChoice.png","null"
"image-keyboard-response","697","764783","0.0-4.0-2.225","18","Low_HMMActual","222.18000004068017","","","","Images/BlackBeadChoiceCorrect.png","37"
"image-keyboard-response","698","764826","0.0-4.0-0.226","18","Low_HMMActual","41.54000012204051","","","","Images/NewTrialBC.png","37"
"image-keyboard-response","699","765228","0.0-4.0-1.226","18","Low_HMMActual","210.97499993629754","","","","Images/BlackBeadChoice.png","37"
"image-keyboard-response","700","765930","0.0-4.0-2.226","18","Low_HMMActual","29.679999919608235","","","","Images/BlackBeadChoiceCorrect.png","37"
"image-keyboard-response","701","766083","0.0-4.0-0.227","18","Low_HMMActual","151.91000001505017","","","","Images/NewTrialBC.png","37"
"image-keyboard-response","702","766485","0.0-4.0-1.227","18","Low_HMMActual","214.46499996818602","","","","Images/BlackBeadChoice.png","37"
"image-keyboard-response","703","767187","0.0-4.0-2.227","18","Low_HMMActual","22.895000176504254","","","","Images/BlackBeadChoiceCorrect.png","37"
"image-keyboard-response","704","767197","0.0-4.0-0.228","18","Low_HMMActual","9.324999991804361","","","","Images/NewTrialBC.png","37"
"image-keyboard-response","705","767600","0.0-4.0-1.228","18","Low_HMMActual","180.99500006064773","","","","Images/BlackBeadChoice.png","37"
"image-keyboard-response","706","768302","0.0-4.0-2.228","18","Low_HMMActual","169.84000010415912","","","","Images/BlackBeadChoiceCorrect.png","37"
"image-keyboard-response","707","768447","0.0-4.0-0.229","18","Low_HMMActual","144.12499987520278","","","","Images/NewTrialBC.png","37"
"image-keyboard-response","708","768848","0.0-4.0-1.229","18","Low_HMMActual","220.6749999895692","","","","Images/BlackBeadChoice.png","37"
"image-keyboard-response","709","769549","0.0-4.0-2.229","18","Low_HMMActual","20.17499995417893","","","","Images/BlackBeadChoiceCorrect.png","37"
