"trial_type","trial_index","time_elapsed","internal_node_id","Script_Picker","Block_Type","rt","url","responses","question_order","stimulus","key_press"
"pavlovia","0","6","0.0-0.0","8","High_HMMActual","","","","","",""
"external-html","1","15232","0.0-1.0-0.0","8","High_HMMActual","14994.799999996758","consent.html","","","",""
"survey-multi-choice","2","32847","0.0-1.0-1.0","8","High_HMMActual","17612.4149999996","","{""Q0"":""Male"",""Q1"":""White""}","[0,1]","",""
"survey-text","3","37881","0.0-1.0-2.0","8","High_HMMActual","5021.630000002915","","{""Q0"":""24""}","","",""
"survey-text","4","42574","0.0-1.0-3.0","8","High_HMMActual","4534.7750000000815","","{""Q0"":""5ee5cc9105dd19308e0f23e2""}","","",""
"html-keyboard-response","5","77295","0.0-2.0-0.0","8","High_HMMActual","34603.49000000133","","","","<div class=""container"" style=""height:800px;width:800px;display:flex;flex-direction:column;justify-content:center;align-items:center;text-align:center;font-weight:normal;font-family:Arial;font-size:20px""><p>In this task you will see black or white beads being pulled from jars. <br><br>On each trial, a bead will be pulled from one of two jars. Once you see this bead, your goal is to predict the color of NEXT bead that will be pulled. <br> <br>Every time you correctly guess the color of the NEXT bead, you will get a point. <br><br>Press the SPACEBAR to continue.</p><div>","32"
"html-keyboard-response","6","86190","0.0-2.0-1.0","8","High_HMMActual","8893.370000001596","","","","<div class=""container"" style=""height:800px;width:800px;display:flex;flex-direction:column;justify-content:center;align-items:center;text-align:center;font-weight:normal;font-family:Arial;font-size:20px""><p>Jars are filled with 80% white or black beads and 20% of the opposite color mixed in.<br><br>Press the SPACEBAR to continue. </p><div>","32"
"image-keyboard-response","7","97038","0.0-2.0-2.0","8","High_HMMActual","10846.30499999912","","","","resources/WhiteJar_HMM.png","32"
"image-keyboard-response","8","105557","0.0-2.0-3.0","8","High_HMMActual","8518.25000000099","","","","resources/BlackJar_HMM.png","32"
"html-keyboard-response","9","112334","0.0-2.0-4.0","8","High_HMMActual","6775.290000001405","","","","<div class=""container"" style=""height:800px;width:800px;display:flex;flex-direction:column;justify-content:center;align-items:center;text-align:center;font-weight:normal;font-family:Arial;font-size:20px""><p>There will be two blocks of trials. Each block will contain 500 trials. <br><br>Here are examples of what you will see on each trial.<br><br>Press the SPACEBAR to continue. </p><div>","32"
"image-keyboard-response","10","117166","0.0-2.0-5.0","8","High_HMMActual","4830.8949999991455","","","","Images/NoChoice.png","32"
"html-keyboard-response","11","124709","0.0-2.0-6.0","8","High_HMMActual","7542.149999997491","","","","<div class=""container"" style=""height:800px;width:800px;display:flex;flex-direction:column;justify-content:center;align-items:center;text-align:center;font-weight:normal;font-family:Arial;font-size:20px""><p> The jar the beads are pulled from is NOT choosen at random on each trial.<br><br>After each prediction, there will be a chance that the jars will switch, and that the next bead will be pulled from the opposite jar as the previous trial.<br><br>In each block, the chance that a jar will switch will either be LOW (the jars will not switch very often), or HIGH (the jars will switch almost all the time).<br><br>At the start of each block, you will be told the probability that the jars will switch on each trial. This switch probability will stay constant throughout the block.<br><br>We will now show you some examples of beads being drawn from jars. The bead will appear in the middle of the screen, and the jar the bead was pulled from will be indicated with a black rectangle.<br><br>Press the SPACEBAR to continue. </p><div>","32"
"image-keyboard-response","12","129166","0.0-2.0-7.0","8","High_HMMActual","4454.744999999093","","","","Images/TutorialWhiteJarDrawHMMC.png","32"
"image-keyboard-response","13","133110","0.0-2.0-8.0","8","High_HMMActual","3942.9700000000594","","","","Images/TutorialBlackJarDrawHMMC.png","32"
"image-keyboard-response","14","135141","0.0-2.0-9.0","8","High_HMMActual","2030.509999996866","","","","Images/TutorialBlackJarDrawHMMI.png","32"
"html-keyboard-response","15","148942","0.0-2.0-10.0","8","High_HMMActual","13799.329999998008","","","","<div class=""container"" style=""height:800px;width:800px;display:flex;flex-direction:column;justify-content:center;align-items:center;text-align:center;font-weight:normal;font-family:Arial;font-size:20px""><p> As you observed, a white bead was pulled from a 80% white jar, the jars switched and a black bead was pulled from the 80% black jar, but then a low-probability white bead was pulled from the 80% black jar. <br><br>Because the jars have a mix of white and black beads, the best strategy to predict the next bead is to first figure out which jar the current bead was pulled from, then use the jar switch probability to predict which jar will be drawn from next.<br><br>Press SPACEBAR to conitnue.</p><div>","32"
"html-keyboard-response","16","152422","0.0-2.0-11.0","8","High_HMMActual","3478.7299999989045","","","","<div class=""container"" style=""height:800px;width:800px;display:flex;flex-direction:column;justify-content:center;align-items:center;text-align:center;font-weight:normal;font-family:Arial;font-size:20px""><p> You will now be given a 2 question quiz to make sure you understand the task. </p><div>","32"
"image-keyboard-response","17","162078","0.0-2.0-12.0","8","High_HMMActual","9654.405000001134","","","","Images/TutorialQuestion1.png","39"
"image-keyboard-response","18","178325","0.0-2.0-13.0","8","High_HMMActual","14839.245000002848","","","","Images/TutorialQuestion2.png","38"
"html-keyboard-response","19","204958","0.0-3.0","8","High_HMMActual","24862.349999999424","","","","<div class=""container"" style=""height:800px;width:800px;display:flex;flex-direction:column;justify-content:center;align-items:center;text-align:center;font-weight:normal;font-family:Arial;font-size:20px""><p>Loading episode&hellip;</p><div>","32"
"image-keyboard-response","20","208142","0.0-4.0-0.0","8","High_HMMActual","3181.7950000004203","","","","Images/NoChoice.png","39"
"image-keyboard-response","21","208558","0.0-4.0-1.0","8","High_HMMActual","null","","","","Images/WhiteBeadChoice.png","null"
"image-keyboard-response","22","209262","0.0-4.0-2.0","8","High_HMMActual","null","","","","Images/WhiteBeadChoiceCorrect.png","null"
"image-keyboard-response","23","212707","0.0-4.0-0.1","8","High_HMMActual","3454.345000001922","","","","Images/NewTrialWC.png","39"
"image-keyboard-response","24","213114","0.0-4.0-1.1","8","High_HMMActual","null","","","","Images/WhiteBeadChoice.png","null"
"image-keyboard-response","25","213826","0.0-4.0-2.1","8","High_HMMActual","null","","","","Images/WhiteBeadChoiceCorrect.png","null"
"image-keyboard-response","26","214635","0.0-4.0-0.2","8","High_HMMActual","807.6949999995122","","","","Images/NewTrialWC.png","37"
"image-keyboard-response","27","215036","0.0-4.0-1.2","8","High_HMMActual","null","","","","Images/BlackBeadChoice.png","null"
"image-keyboard-response","28","215743","0.0-4.0-2.2","8","High_HMMActual","null","","","","Images/BlackBeadChoiceCorrect.png","null"
"image-keyboard-response","29","219068","0.0-4.0-0.3","8","High_HMMActual","3323.0399999993097","","","","Images/NewTrialBC.png","39"
"image-keyboard-response","30","219478","0.0-4.0-1.3","8","High_HMMActual","null","","","","Images/WhiteBeadChoice.png","null"
"image-keyboard-response","31","220190","0.0-4.0-2.3","8","High_HMMActual","null","","","","Images/WhiteBeadChoiceWrong.png","null"
"image-keyboard-response","32","221531","0.0-4.0-0.4","8","High_HMMActual","1339.3099999993865","","","","Images/NewTrialBC.png","39"
"image-keyboard-response","33","221941","0.0-4.0-1.4","8","High_HMMActual","null","","","","Images/WhiteBeadChoice.png","null"
"image-keyboard-response","34","222652","0.0-4.0-2.4","8","High_HMMActual","null","","","","Images/WhiteBeadChoiceCorrect.png","null"
"image-keyboard-response","35","223595","0.0-4.0-0.5","8","High_HMMActual","941.4250000008906","","","","Images/NewTrialWC.png","39"
"image-keyboard-response","36","224010","0.0-4.0-1.5","8","High_HMMActual","null","","","","Images/WhiteBeadChoice.png","null"
"image-keyboard-response","37","224720","0.0-4.0-2.5","8","High_HMMActual","null","","","","Images/WhiteBeadChoiceWrong.png","null"
"image-keyboard-response","38","225419","0.0-4.0-0.6","8","High_HMMActual","697.2649999988789","","","","Images/NewTrialBC.png","37"
"image-keyboard-response","39","225834","0.0-4.0-1.6","8","High_HMMActual","null","","","","Images/BlackBeadChoice.png","null"
"image-keyboard-response","40","226547","0.0-4.0-2.6","8","High_HMMActual","null","","","","Images/BlackBeadChoiceCorrect.png","null"
"image-keyboard-response","41","227163","0.0-4.0-0.7","8","High_HMMActual","615.3950000007171","","","","Images/NewTrialBC.png","37"
"image-keyboard-response","42","227565","0.0-4.0-1.7","8","High_HMMActual","null","","","","Images/BlackBeadChoice.png","null"
"image-keyboard-response","43","228273","0.0-4.0-2.7","8","High_HMMActual","null","","","","Images/BlackBeadChoiceWrong.png","null"
"image-keyboard-response","44","228787","0.0-4.0-0.8","8","High_HMMActual","512.1700000017881","","","","Images/NewTrialWC.png","39"
"image-keyboard-response","45","229196","0.0-4.0-1.8","8","High_HMMActual","null","","","","Images/WhiteBeadChoice.png","null"
"image-keyboard-response","46","229907","0.0-4.0-2.8","8","High_HMMActual","null","","","","Images/WhiteBeadChoiceCorrect.png","null"
"image-keyboard-response","47","230619","0.0-4.0-0.9","8","High_HMMActual","710.7600000017555","","","","Images/NewTrialWC.png","37"
"image-keyboard-response","48","231029","0.0-4.0-1.9","8","High_HMMActual","null","","","","Images/BlackBeadChoice.png","null"
"image-keyboard-response","49","231739","0.0-4.0-2.9","8","High_HMMActual","null","","","","Images/BlackBeadChoiceCorrect.png","null"
"image-keyboard-response","50","232107","0.0-4.0-0.10","8","High_HMMActual","366.5000000000873","","","","Images/NewTrialBC.png","39"
"image-keyboard-response","51","232518","0.0-4.0-1.10","8","High_HMMActual","null","","","","Images/WhiteBeadChoice.png","null"
"image-keyboard-response","52","233226","0.0-4.0-2.10","8","High_HMMActual","null","","","","Images/WhiteBeadChoiceCorrect.png","null"
"image-keyboard-response","53","233851","0.0-4.0-0.11","8","High_HMMActual","623.7550000005285","","","","Images/NewTrialWC.png","39"
"image-keyboard-response","54","234263","0.0-4.0-1.11","8","High_HMMActual","null","","","","Images/WhiteBeadChoice.png","null"
"image-keyboard-response","55","234974","0.0-4.0-2.11","8","High_HMMActual","null","","","","Images/WhiteBeadChoiceWrong.png","null"
"image-keyboard-response","56","235499","0.0-4.0-0.12","8","High_HMMActual","523.6650000006193","","","","Images/NewTrialBC.png","37"
"image-keyboard-response","57","235910","0.0-4.0-1.12","8","High_HMMActual","null","","","","Images/BlackBeadChoice.png","null"
"image-keyboard-response","58","236624","0.0-4.0-2.12","8","High_HMMActual","null","","","","Images/BlackBeadChoiceWrong.png","null"
"image-keyboard-response","59","237243","0.0-4.0-0.13","8","High_HMMActual","617.9049999991548","","","","Images/NewTrialWC.png","37"
"image-keyboard-response","60","237660","0.0-4.0-1.13","8","High_HMMActual","null","","","","Images/BlackBeadChoice.png","null"
"image-keyboard-response","61","238373","0.0-4.0-2.13","8","High_HMMActual","null","","","","Images/BlackBeadChoiceCorrect.png","null"
"image-keyboard-response","62","238731","0.0-4.0-0.14","8","High_HMMActual","356.0700000016368","","","","Images/NewTrialBC.png","39"
"image-keyboard-response","63","239145","0.0-4.0-1.14","8","High_HMMActual","null","","","","Images/WhiteBeadChoice.png","null"
"image-keyboard-response","64","239848","0.0-4.0-2.14","8","High_HMMActual","null","","","","Images/WhiteBeadChoiceCorrect.png","null"
"image-keyboard-response","65","240931","0.0-4.0-0.15","8","High_HMMActual","1082.4250000005122","","","","Images/NewTrialWC.png","37"
"image-keyboard-response","66","241334","0.0-4.0-1.15","8","High_HMMActual","null","","","","Images/BlackBeadChoice.png","null"
"image-keyboard-response","67","242037","0.0-4.0-2.15","8","High_HMMActual","null","","","","Images/BlackBeadChoiceWrong.png","null"
"image-keyboard-response","68","242208","0.0-4.0-0.16","8","High_HMMActual","170.04999999699066","","","","Images/NewTrialWC.png","39"
"image-keyboard-response","69","242623","0.0-4.0-1.16","8","High_HMMActual","null","","","","Images/WhiteBeadChoice.png","null"
"image-keyboard-response","70","243336","0.0-4.0-2.16","8","High_HMMActual","null","","","","Images/WhiteBeadChoiceWrong.png","null"
"image-keyboard-response","71","243387","0.0-4.0-0.17","8","High_HMMActual","49.5550000014191","","","","Images/NewTrialBC.png","39"
"image-keyboard-response","72","243795","0.0-4.0-1.17","8","High_HMMActual","null","","","","Images/WhiteBeadChoice.png","null"
"image-keyboard-response","73","244509","0.0-4.0-2.17","8","High_HMMActual","566.4550000001327","","","","Images/WhiteBeadChoiceWrong.png","39"
"image-keyboard-response","74","245363","0.0-4.0-0.18","8","High_HMMActual","852.6399999973364","","","","Images/NewTrialBC.png","37"
"image-keyboard-response","75","245777","0.0-4.0-1.18","8","High_HMMActual","null","","","","Images/BlackBeadChoice.png","null"
"image-keyboard-response","76","246490","0.0-4.0-2.18","8","High_HMMActual","null","","","","Images/BlackBeadChoiceWrong.png","null"
"image-keyboard-response","77","246851","0.0-4.0-0.19","8","High_HMMActual","359.3199999995704","","","","Images/NewTrialWC.png","39"
"image-keyboard-response","78","247263","0.0-4.0-1.19","8","High_HMMActual","null","","","","Images/WhiteBeadChoice.png","null"
"image-keyboard-response","79","247974","0.0-4.0-2.19","8","High_HMMActual","null","","","","Images/WhiteBeadChoiceWrong.png","null"
"image-keyboard-response","80","248451","0.0-4.0-0.20","8","High_HMMActual","475.9300000005169","","","","Images/NewTrialBC.png","37"
"image-keyboard-response","81","248862","0.0-4.0-1.20","8","High_HMMActual","null","","","","Images/BlackBeadChoice.png","null"
"image-keyboard-response","82","249574","0.0-4.0-2.20","8","High_HMMActual","null","","","","Images/BlackBeadChoiceWrong.png","null"
"image-keyboard-response","83","249939","0.0-4.0-0.21","8","High_HMMActual","363.7300000009418","","","","Images/NewTrialWC.png","39"
"image-keyboard-response","84","250345","0.0-4.0-1.21","8","High_HMMActual","null","","","","Images/WhiteBeadChoice.png","null"
"image-keyboard-response","85","251057","0.0-4.0-2.21","8","High_HMMActual","null","","","","Images/WhiteBeadChoiceWrong.png","null"
"image-keyboard-response","86","251755","0.0-4.0-0.22","8","High_HMMActual","696.7949999998382","","","","Images/NewTrialBC.png","37"
"image-keyboard-response","87","252162","0.0-4.0-1.22","8","High_HMMActual","null","","","","Images/BlackBeadChoice.png","null"
"image-keyboard-response","88","252878","0.0-4.0-2.22","8","High_HMMActual","null","","","","Images/BlackBeadChoiceWrong.png","null"
"image-keyboard-response","89","253211","0.0-4.0-0.23","8","High_HMMActual","330.1849999988917","","","","Images/NewTrialWC.png","39"
"image-keyboard-response","90","253627","0.0-4.0-1.23","8","High_HMMActual","null","","","","Images/WhiteBeadChoice.png","null"
"image-keyboard-response","91","254341","0.0-4.0-2.23","8","High_HMMActual","null","","","","Images/WhiteBeadChoiceWrong.png","null"
"image-keyboard-response","92","254771","0.0-4.0-0.24","8","High_HMMActual","429.0399999990768","","","","Images/NewTrialBC.png","37"
"image-keyboard-response","93","255179","0.0-4.0-1.24","8","High_HMMActual","null","","","","Images/BlackBeadChoice.png","null"
"image-keyboard-response","94","255881","0.0-4.0-2.24","8","High_HMMActual","null","","","","Images/BlackBeadChoiceWrong.png","null"
"image-keyboard-response","95","257195","0.0-4.0-0.25","8","High_HMMActual","1312.4600000010105","","","","Images/NewTrialWC.png","37"
"image-keyboard-response","96","257610","0.0-4.0-1.25","8","High_HMMActual","null","","","","Images/BlackBeadChoice.png","null"
"image-keyboard-response","97","258330","0.0-4.0-2.25","8","High_HMMActual","null","","","","Images/BlackBeadChoiceCorrect.png","null"
"image-keyboard-response","98","258723","0.0-4.0-0.26","8","High_HMMActual","391.6899999968009","","","","Images/NewTrialBC.png","39"
"image-keyboard-response","99","259128","0.0-4.0-1.26","8","High_HMMActual","null","","","","Images/WhiteBeadChoice.png","null"
"image-keyboard-response","100","259831","0.0-4.0-2.26","8","High_HMMActual","null","","","","Images/WhiteBeadChoiceCorrect.png","null"
"image-keyboard-response","101","260211","0.0-4.0-0.27","8","High_HMMActual","378.81000000197673","","","","Images/NewTrialWC.png","39"
"image-keyboard-response","102","260615","0.0-4.0-1.27","8","High_HMMActual","null","","","","Images/WhiteBeadChoice.png","null"
"image-keyboard-response","103","261330","0.0-4.0-2.27","8","High_HMMActual","null","","","","Images/WhiteBeadChoiceCorrect.png","null"
"image-keyboard-response","104","261907","0.0-4.0-0.28","8","High_HMMActual","576.0450000016717","","","","Images/NewTrialWC.png","37"
"image-keyboard-response","105","262315","0.0-4.0-1.28","8","High_HMMActual","null","","","","Images/BlackBeadChoice.png","null"
"image-keyboard-response","106","263019","0.0-4.0-2.28","8","High_HMMActual","366.96500000107335","","","","Images/BlackBeadChoiceCorrect.png","39"
"image-keyboard-response","107","263579","0.0-4.0-0.29","8","High_HMMActual","558.7650000015274","","","","Images/NewTrialBC.png","39"
"image-keyboard-response","108","263993","0.0-4.0-1.29","8","High_HMMActual","null","","","","Images/WhiteBeadChoice.png","null"
"image-keyboard-response","109","264709","0.0-4.0-2.29","8","High_HMMActual","560.2600000019884","","","","Images/WhiteBeadChoiceWrong.png","37"
"image-keyboard-response","110","265131","0.0-4.0-0.30","8","High_HMMActual","420.7349999997532","","","","Images/NewTrialBC.png","37"
"image-keyboard-response","111","265536","0.0-4.0-1.30","8","High_HMMActual","null","","","","Images/BlackBeadChoice.png","null"
"image-keyboard-response","112","266245","0.0-4.0-2.30","8","High_HMMActual","585.5149999988498","","","","Images/BlackBeadChoiceWrong.png","39"
"image-keyboard-response","113","266579","0.0-4.0-0.31","8","High_HMMActual","332.8250000013504","","","","Images/NewTrialWC.png","39"
"image-keyboard-response","114","266993","0.0-4.0-1.31","8","High_HMMActual","null","","","","Images/WhiteBeadChoice.png","null"
"image-keyboard-response","115","267704","0.0-4.0-2.31","8","High_HMMActual","null","","","","Images/WhiteBeadChoiceWrong.png","null"
"image-keyboard-response","116","267963","0.0-4.0-0.32","8","High_HMMActual","257.9249999980675","","","","Images/NewTrialBC.png","37"
"image-keyboard-response","117","268377","0.0-4.0-1.32","8","High_HMMActual","null","","","","Images/BlackBeadChoice.png","null"
"image-keyboard-response","118","269085","0.0-4.0-2.32","8","High_HMMActual","null","","","","Images/BlackBeadChoiceWrong.png","null"
"image-keyboard-response","119","269387","0.0-4.0-0.33","8","High_HMMActual","300.7850000031176","","","","Images/NewTrialWC.png","39"
"image-keyboard-response","120","269792","0.0-4.0-1.33","8","High_HMMActual","null","","","","Images/WhiteBeadChoice.png","null"
"image-keyboard-response","121","270507","0.0-4.0-2.33","8","High_HMMActual","null","","","","Images/WhiteBeadChoiceCorrect.png","null"
"image-keyboard-response","122","270795","0.0-4.0-0.34","8","High_HMMActual","286.81499999947846","","","","Images/NewTrialWC.png","37"
"image-keyboard-response","123","271210","0.0-4.0-1.34","8","High_HMMActual","null","","","","Images/BlackBeadChoice.png","null"
"image-keyboard-response","124","271925","0.0-4.0-2.34","8","High_HMMActual","null","","","","Images/BlackBeadChoiceWrong.png","null"
"image-keyboard-response","125","272212","0.0-4.0-0.35","8","High_HMMActual","285.54499999881955","","","","Images/NewTrialWC.png","37"
"image-keyboard-response","126","272615","0.0-4.0-1.35","8","High_HMMActual","null","","","","Images/BlackBeadChoice.png","null"
"image-keyboard-response","127","273336","0.0-4.0-2.35","8","High_HMMActual","null","","","","Images/BlackBeadChoiceWrong.png","null"
"image-keyboard-response","128","273613","0.0-4.0-0.36","8","High_HMMActual","275.8749999994179","","","","Images/NewTrialWC.png","39"
"image-keyboard-response","129","274022","0.0-4.0-1.36","8","High_HMMActual","null","","","","Images/WhiteBeadChoice.png","null"
"image-keyboard-response","130","274738","0.0-4.0-2.36","8","High_HMMActual","null","","","","Images/WhiteBeadChoiceWrong.png","null"
"image-keyboard-response","131","275029","0.0-4.0-0.37","8","High_HMMActual","289.46999999973923","","","","Images/NewTrialBC.png","37"
"image-keyboard-response","132","275437","0.0-4.0-1.37","8","High_HMMActual","null","","","","Images/BlackBeadChoice.png","null"
"image-keyboard-response","133","276151","0.0-4.0-2.37","8","High_HMMActual","null","","","","Images/BlackBeadChoiceCorrect.png","null"
"image-keyboard-response","134","276597","0.0-4.0-0.38","8","High_HMMActual","445.1000000007916","","","","Images/NewTrialBC.png","37"
"image-keyboard-response","135","277006","0.0-4.0-1.38","8","High_HMMActual","null","","","","Images/BlackBeadChoice.png","null"
"image-keyboard-response","136","277709","0.0-4.0-2.38","8","High_HMMActual","702.2800000013085","","","","Images/BlackBeadChoiceCorrect.png","37"
"image-keyboard-response","137","278341","0.0-4.0-0.39","8","High_HMMActual","630.5899999969988","","","","Images/NewTrialBC.png","37"
"image-keyboard-response","138","278754","0.0-4.0-1.39","8","High_HMMActual","null","","","","Images/BlackBeadChoice.png","null"
"image-keyboard-response","139","279467","0.0-4.0-2.39","8","High_HMMActual","null","","","","Images/BlackBeadChoiceCorrect.png","null"
"image-keyboard-response","140","279765","0.0-4.0-0.40","8","High_HMMActual","296.6099999976577","","","","Images/NewTrialBC.png","37"
"image-keyboard-response","141","280173","0.0-4.0-1.40","8","High_HMMActual","null","","","","Images/BlackBeadChoice.png","null"
"image-keyboard-response","142","280884","0.0-4.0-2.40","8","High_HMMActual","null","","","","Images/BlackBeadChoiceWrong.png","null"
"image-keyboard-response","143","281029","0.0-4.0-0.41","8","High_HMMActual","144.17000000318512","","","","Images/NewTrialWC.png","39"
"image-keyboard-response","144","281436","0.0-4.0-1.41","8","High_HMMActual","null","","","","Images/WhiteBeadChoice.png","null"
"image-keyboard-response","145","282142","0.0-4.0-2.41","8","High_HMMActual","704.1950000020443","","","","Images/WhiteBeadChoiceWrong.png","37"
"image-keyboard-response","146","282646","0.0-4.0-0.42","8","High_HMMActual","502.39999999757856","","","","Images/NewTrialBC.png","37"
"image-keyboard-response","147","283056","0.0-4.0-1.42","8","High_HMMActual","null","","","","Images/BlackBeadChoice.png","null"
"image-keyboard-response","148","283763","0.0-4.0-2.42","8","High_HMMActual","null","","","","Images/BlackBeadChoiceWrong.png","null"
"image-keyboard-response","149","283885","0.0-4.0-0.43","8","High_HMMActual","120.87500000058208","","","","Images/NewTrialWC.png","39"
"image-keyboard-response","150","284294","0.0-4.0-1.43","8","High_HMMActual","null","","","","Images/WhiteBeadChoice.png","null"
"image-keyboard-response","151","285003","0.0-4.0-2.43","8","High_HMMActual","null","","","","Images/WhiteBeadChoiceWrong.png","null"
"image-keyboard-response","152","285243","0.0-4.0-0.44","8","High_HMMActual","239.05499999818858","","","","Images/NewTrialBC.png","37"
"image-keyboard-response","153","285656","0.0-4.0-1.44","8","High_HMMActual","null","","","","Images/BlackBeadChoice.png","null"
"image-keyboard-response","154","286367","0.0-4.0-2.44","8","High_HMMActual","27.490000000456348","","","","Images/BlackBeadChoiceWrong.png","37"
"image-keyboard-response","155","288797","0.0-4.0-0.45","8","High_HMMActual","2428.5199999976903","","","","Images/NewTrialWC.png","39"
"image-keyboard-response","156","289205","0.0-4.0-1.45","8","High_HMMActual","null","","","","Images/WhiteBeadChoice.png","null"
"image-keyboard-response","157","289919","0.0-4.0-2.45","8","High_HMMActual","null","","","","Images/WhiteBeadChoiceWrong.png","null"
"image-keyboard-response","158","290166","0.0-4.0-0.46","8","High_HMMActual","245.04499999963446","","","","Images/NewTrialBC.png","37"
"image-keyboard-response","159","290571","0.0-4.0-1.46","8","High_HMMActual","null","","","","Images/BlackBeadChoice.png","null"
"image-keyboard-response","160","291284","0.0-4.0-2.46","8","High_HMMActual","null","","","","Images/BlackBeadChoiceWrong.png","null"
"image-keyboard-response","161","292213","0.0-4.0-0.47","8","High_HMMActual","927.3800000009942","","","","Images/NewTrialWC.png","39"
"image-keyboard-response","162","292623","0.0-4.0-1.47","8","High_HMMActual","null","","","","Images/WhiteBeadChoice.png","null"
"image-keyboard-response","163","293334","0.0-4.0-2.47","8","High_HMMActual","null","","","","Images/WhiteBeadChoiceWrong.png","null"
"image-keyboard-response","164","293726","0.0-4.0-0.48","8","High_HMMActual","390.34499999979744","","","","Images/NewTrialBC.png","37"
"image-keyboard-response","165","294138","0.0-4.0-1.48","8","High_HMMActual","null","","","","Images/BlackBeadChoice.png","null"
"image-keyboard-response","166","294850","0.0-4.0-2.48","8","High_HMMActual","null","","","","Images/BlackBeadChoiceWrong.png","null"
"image-keyboard-response","167","294917","0.0-4.0-0.49","8","High_HMMActual","65.40999999921769","","","","Images/NewTrialWC.png","39"
"image-keyboard-response","168","295324","0.0-4.0-1.49","8","High_HMMActual","null","","","","Images/WhiteBeadChoice.png","null"
"image-keyboard-response","169","296040","0.0-4.0-2.49","8","High_HMMActual","632.4600000007194","","","","Images/WhiteBeadChoiceWrong.png","37"
"image-keyboard-response","170","296765","0.0-4.0-0.50","8","High_HMMActual","723.5400000027148","","","","Images/NewTrialBC.png","37"
"image-keyboard-response","171","297173","0.0-4.0-1.50","8","High_HMMActual","null","","","","Images/BlackBeadChoice.png","null"
"image-keyboard-response","172","297888","0.0-4.0-2.50","8","High_HMMActual","null","","","","Images/BlackBeadChoiceWrong.png","null"
"image-keyboard-response","173","298149","0.0-4.0-0.51","8","High_HMMActual","260.0299999976414","","","","Images/NewTrialWC.png","39"
"image-keyboard-response","174","298561","0.0-4.0-1.51","8","High_HMMActual","null","","","","Images/WhiteBeadChoice.png","null"
"image-keyboard-response","175","299269","0.0-4.0-2.51","8","High_HMMActual","null","","","","Images/WhiteBeadChoiceWrong.png","null"
"image-keyboard-response","176","299445","0.0-4.0-0.52","8","High_HMMActual","174.72499999706633","","","","Images/NewTrialBC.png","37"
"image-keyboard-response","177","299855","0.0-4.0-1.52","8","High_HMMActual","null","","","","Images/BlackBeadChoice.png","null"
"image-keyboard-response","178","300567","0.0-4.0-2.52","8","High_HMMActual","null","","","","Images/BlackBeadChoiceWrong.png","null"
"image-keyboard-response","179","300861","0.0-4.0-0.53","8","High_HMMActual","293.0450000021374","","","","Images/NewTrialWC.png","39"
"image-keyboard-response","180","301273","0.0-4.0-1.53","8","High_HMMActual","null","","","","Images/WhiteBeadChoice.png","null"
"image-keyboard-response","181","301975","0.0-4.0-2.53","8","High_HMMActual","null","","","","Images/WhiteBeadChoiceWrong.png","null"
"image-keyboard-response","182","302217","0.0-4.0-0.54","8","High_HMMActual","240.75000000087311","","","","Images/NewTrialBC.png","37"
"image-keyboard-response","183","302621","0.0-4.0-1.54","8","High_HMMActual","null","","","","Images/BlackBeadChoice.png","null"
"image-keyboard-response","184","303334","0.0-4.0-2.54","8","High_HMMActual","null","","","","Images/BlackBeadChoiceCorrect.png","null"
"image-keyboard-response","185","303429","0.0-4.0-0.55","8","High_HMMActual","93.87000000063563","","","","Images/NewTrialBC.png","37"
"image-keyboard-response","186","303839","0.0-4.0-1.55","8","High_HMMActual","null","","","","Images/BlackBeadChoice.png","null"
"image-keyboard-response","187","304541","0.0-4.0-2.55","8","High_HMMActual","437.24000000290107","","","","Images/BlackBeadChoiceCorrect.png","37"
"image-keyboard-response","188","304877","0.0-4.0-0.56","8","High_HMMActual","334.9100000014296","","","","Images/NewTrialBC.png","37"
"image-keyboard-response","189","305288","0.0-4.0-1.56","8","High_HMMActual","null","","","","Images/BlackBeadChoice.png","null"
"image-keyboard-response","190","306001","0.0-4.0-2.56","8","High_HMMActual","null","","","","Images/BlackBeadChoiceWrong.png","null"
"image-keyboard-response","191","306525","0.0-4.0-0.57","8","High_HMMActual","522.9450000006473","","","","Images/NewTrialWC.png","39"
"image-keyboard-response","192","306937","0.0-4.0-1.57","8","High_HMMActual","null","","","","Images/WhiteBeadChoice.png","null"
"image-keyboard-response","193","307651","0.0-4.0-2.57","8","High_HMMActual","null","","","","Images/WhiteBeadChoiceWrong.png","null"
"image-keyboard-response","194","307749","0.0-4.0-0.58","8","High_HMMActual","96.9249999980093","","","","Images/NewTrialBC.png","37"
"image-keyboard-response","195","308156","0.0-4.0-1.58","8","High_HMMActual","null","","","","Images/BlackBeadChoice.png","null"
"image-keyboard-response","196","308865","0.0-4.0-2.58","8","High_HMMActual","488.1700000005658","","","","Images/BlackBeadChoiceWrong.png","39"
"image-keyboard-response","197","309325","0.0-4.0-0.59","8","High_HMMActual","458.42999999877065","","","","Images/NewTrialWC.png","37"
"image-keyboard-response","198","309737","0.0-4.0-1.59","8","High_HMMActual","null","","","","Images/BlackBeadChoice.png","null"
"image-keyboard-response","199","310442","0.0-4.0-2.59","8","High_HMMActual","643.1350000021048","","","","Images/BlackBeadChoiceCorrect.png","37"
"image-keyboard-response","200","311093","0.0-4.0-0.60","8","High_HMMActual","649.5099999993108","","","","Images/NewTrialBC.png","37"
"image-keyboard-response","201","311504","0.0-4.0-1.60","8","High_HMMActual","null","","","","Images/BlackBeadChoice.png","null"
"image-keyboard-response","202","312218","0.0-4.0-2.60","8","High_HMMActual","null","","","","Images/BlackBeadChoiceCorrect.png","null"
"image-keyboard-response","203","312837","0.0-4.0-0.61","8","High_HMMActual","618.28500000044","","","","Images/NewTrialBC.png","39"
"image-keyboard-response","204","313254","0.0-4.0-1.61","8","High_HMMActual","null","","","","Images/WhiteBeadChoice.png","null"
"image-keyboard-response","205","313971","0.0-4.0-2.61","8","High_HMMActual","574.0399999994552","","","","Images/WhiteBeadChoiceWrong.png","37"
"image-keyboard-response","206","314414","0.0-4.0-0.62","8","High_HMMActual","441.60999999800697","","","","Images/NewTrialBC.png","37"
"image-keyboard-response","207","314823","0.0-4.0-1.62","8","High_HMMActual","null","","","","Images/BlackBeadChoice.png","null"
"image-keyboard-response","208","315537","0.0-4.0-2.62","8","High_HMMActual","null","","","","Images/BlackBeadChoiceWrong.png","null"
"image-keyboard-response","209","315933","0.0-4.0-0.63","8","High_HMMActual","392.2549999988405","","","","Images/NewTrialWC.png","37"
"image-keyboard-response","210","316339","0.0-4.0-1.63","8","High_HMMActual","null","","","","Images/BlackBeadChoice.png","null"
"image-keyboard-response","211","317055","0.0-4.0-2.63","8","High_HMMActual","593.4150000030058","","","","Images/BlackBeadChoiceCorrect.png","37"
"image-keyboard-response","212","317461","0.0-4.0-0.64","8","High_HMMActual","404.94499999837717","","","","Images/NewTrialBC.png","37"
"image-keyboard-response","213","317872","0.0-4.0-1.64","8","High_HMMActual","null","","","","Images/BlackBeadChoice.png","null"
"image-keyboard-response","214","318574","0.0-4.0-2.64","8","High_HMMActual","null","","","","Images/BlackBeadChoiceWrong.png","null"
"image-keyboard-response","215","318773","0.0-4.0-0.65","8","High_HMMActual","197.91999999870313","","","","Images/NewTrialWC.png","39"
"image-keyboard-response","216","319188","0.0-4.0-1.65","8","High_HMMActual","null","","","","Images/WhiteBeadChoice.png","null"
"image-keyboard-response","217","319889","0.0-4.0-2.65","8","High_HMMActual","600.5000000004657","","","","Images/WhiteBeadChoiceWrong.png","37"
"image-keyboard-response","218","320381","0.0-4.0-0.66","8","High_HMMActual","490.55999999836786","","","","Images/NewTrialBC.png","37"
"image-keyboard-response","219","320796","0.0-4.0-1.66","8","High_HMMActual","null","","","","Images/BlackBeadChoice.png","null"
"image-keyboard-response","220","321512","0.0-4.0-2.66","8","High_HMMActual","447.59000000340166","","","","Images/BlackBeadChoiceWrong.png","37"
"image-keyboard-response","221","322077","0.0-4.0-0.67","8","High_HMMActual","563.5649999968009","","","","Images/NewTrialWC.png","39"
"image-keyboard-response","222","322482","0.0-4.0-1.67","8","High_HMMActual","null","","","","Images/WhiteBeadChoice.png","null"
"image-keyboard-response","223","323186","0.0-4.0-2.67","8","High_HMMActual","null","","","","Images/WhiteBeadChoiceCorrect.png","null"
"image-keyboard-response","224","323805","0.0-4.0-0.68","8","High_HMMActual","618.0199999980978","","","","Images/NewTrialWC.png","39"
"image-keyboard-response","225","324220","0.0-4.0-1.68","8","High_HMMActual","null","","","","Images/WhiteBeadChoice.png","null"
"image-keyboard-response","226","324924","0.0-4.0-2.68","8","High_HMMActual","608.0250000014203","","","","Images/WhiteBeadChoiceCorrect.png","39"
"image-keyboard-response","227","325301","0.0-4.0-0.69","8","High_HMMActual","376.11499999905936","","","","Images/NewTrialWC.png","39"
"image-keyboard-response","228","325705","0.0-4.0-1.69","8","High_HMMActual","null","","","","Images/WhiteBeadChoice.png","null"
"image-keyboard-response","229","326410","0.0-4.0-2.69","8","High_HMMActual","666.5249999968801","","","","Images/WhiteBeadChoiceWrong.png","37"
"image-keyboard-response","230","326893","0.0-4.0-0.70","8","High_HMMActual","481.3250000006519","","","","Images/NewTrialBC.png","37"
"image-keyboard-response","231","327305","0.0-4.0-1.70","8","High_HMMActual","null","","","","Images/BlackBeadChoice.png","null"
"image-keyboard-response","232","328018","0.0-4.0-2.70","8","High_HMMActual","523.4849999978906","","","","Images/BlackBeadChoiceCorrect.png","39"
"image-keyboard-response","233","328437","0.0-4.0-0.71","8","High_HMMActual","418.36999999941327","","","","Images/NewTrialBC.png","39"
"image-keyboard-response","234","328839","0.0-4.0-1.71","8","High_HMMActual","null","","","","Images/WhiteBeadChoice.png","null"
"image-keyboard-response","235","329550","0.0-4.0-2.71","8","High_HMMActual","516.8200000007637","","","","Images/WhiteBeadChoiceWrong.png","37"
"image-keyboard-response","236","329925","0.0-4.0-0.72","8","High_HMMActual","373.9999999998254","","","","Images/NewTrialBC.png","37"
"image-keyboard-response","237","330337","0.0-4.0-1.72","8","High_HMMActual","null","","","","Images/BlackBeadChoice.png","null"
"image-keyboard-response","238","331051","0.0-4.0-2.72","8","High_HMMActual","537.6800000013318","","","","Images/BlackBeadChoiceWrong.png","39"
"image-keyboard-response","239","331317","0.0-4.0-0.73","8","High_HMMActual","264.32999999809545","","","","Images/NewTrialWC.png","39"
"image-keyboard-response","240","331722","0.0-4.0-1.73","8","High_HMMActual","null","","","","Images/WhiteBeadChoice.png","null"
"image-keyboard-response","241","332434","0.0-4.0-2.73","8","High_HMMActual","null","","","","Images/WhiteBeadChoiceCorrect.png","null"
"image-keyboard-response","242","332877","0.0-4.0-0.74","8","High_HMMActual","442.13999999919906","","","","Images/NewTrialWC.png","37"
"image-keyboard-response","243","333289","0.0-4.0-1.74","8","High_HMMActual","null","","","","Images/BlackBeadChoice.png","null"
"image-keyboard-response","244","334001","0.0-4.0-2.74","8","High_HMMActual","null","","","","Images/BlackBeadChoiceWrong.png","null"
"image-keyboard-response","245","334453","0.0-4.0-0.75","8","High_HMMActual","451.20500000118045","","","","Images/NewTrialWC.png","37"
"image-keyboard-response","246","334855","0.0-4.0-1.75","8","High_HMMActual","null","","","","Images/BlackBeadChoice.png","null"
"image-keyboard-response","247","335568","0.0-4.0-2.75","8","High_HMMActual","null","","","","Images/BlackBeadChoiceCorrect.png","null"
"image-keyboard-response","248","336222","0.0-4.0-0.76","8","High_HMMActual","652.9399999999441","","","","Images/NewTrialBC.png","37"
"image-keyboard-response","249","336637","0.0-4.0-1.76","8","High_HMMActual","null","","","","Images/BlackBeadChoice.png","null"
"image-keyboard-response","250","337351","0.0-4.0-2.76","8","High_HMMActual","null","","","","Images/BlackBeadChoiceWrong.png","null"
"image-keyboard-response","251","337749","0.0-4.0-0.77","8","High_HMMActual","397.33999999950174","","","","Images/NewTrialWC.png","39"
"image-keyboard-response","252","338156","0.0-4.0-1.77","8","High_HMMActual","null","","","","Images/WhiteBeadChoice.png","null"
"image-keyboard-response","253","338867","0.0-4.0-2.77","8","High_HMMActual","null","","","","Images/WhiteBeadChoiceCorrect.png","null"
"image-keyboard-response","254","339365","0.0-4.0-0.78","8","High_HMMActual","496.86499999737134","","","","Images/NewTrialWC.png","37"
"image-keyboard-response","255","339773","0.0-4.0-1.78","8","High_HMMActual","null","","","","Images/BlackBeadChoice.png","null"
"image-keyboard-response","256","340484","0.0-4.0-2.78","8","High_HMMActual","null","","","","Images/BlackBeadChoiceWrong.png","null"
"image-keyboard-response","257","341365","0.0-4.0-0.79","8","High_HMMActual","880.1099999982398","","","","Images/NewTrialWC.png","39"
"image-keyboard-response","258","341777","0.0-4.0-1.79","8","High_HMMActual","null","","","","Images/WhiteBeadChoice.png","null"
"image-keyboard-response","259","342486","0.0-4.0-2.79","8","High_HMMActual","null","","","","Images/WhiteBeadChoiceCorrect.png","null"
"image-keyboard-response","260","342853","0.0-4.0-0.80","8","High_HMMActual","366.39999999897555","","","","Images/NewTrialWC.png","37"
"image-keyboard-response","261","343255","0.0-4.0-1.80","8","High_HMMActual","null","","","","Images/BlackBeadChoice.png","null"
"image-keyboard-response","262","343968","0.0-4.0-2.80","8","High_HMMActual","null","","","","Images/BlackBeadChoiceCorrect.png","null"
"image-keyboard-response","263","344797","0.0-4.0-0.81","8","High_HMMActual","828.3400000000256","","","","Images/NewTrialBC.png","39"
"image-keyboard-response","264","345206","0.0-4.0-1.81","8","High_HMMActual","null","","","","Images/WhiteBeadChoice.png","null"
"image-keyboard-response","265","345923","0.0-4.0-2.81","8","High_HMMActual","null","","","","Images/WhiteBeadChoiceWrong.png","null"
"image-keyboard-response","266","346262","0.0-4.0-0.82","8","High_HMMActual","337.9800000002142","","","","Images/NewTrialBC.png","37"
"image-keyboard-response","267","346678","0.0-4.0-1.82","8","High_HMMActual","null","","","","Images/BlackBeadChoice.png","null"
"image-keyboard-response","268","347386","0.0-4.0-2.82","8","High_HMMActual","null","","","","Images/BlackBeadChoiceWrong.png","null"
"image-keyboard-response","269","347541","0.0-4.0-0.83","8","High_HMMActual","153.6599999999744","","","","Images/NewTrialWC.png","37"
"image-keyboard-response","270","347954","0.0-4.0-1.83","8","High_HMMActual","null","","","","Images/BlackBeadChoice.png","null"
"image-keyboard-response","271","348668","0.0-4.0-2.83","8","High_HMMActual","null","","","","Images/BlackBeadChoiceWrong.png","null"
"image-keyboard-response","272","348973","0.0-4.0-0.84","8","High_HMMActual","304.46500000113156","","","","Images/NewTrialWC.png","39"
"image-keyboard-response","273","349387","0.0-4.0-1.84","8","High_HMMActual","null","","","","Images/WhiteBeadChoice.png","null"
"image-keyboard-response","274","350101","0.0-4.0-2.84","8","High_HMMActual","null","","","","Images/WhiteBeadChoiceCorrect.png","null"
"image-keyboard-response","275","350406","0.0-4.0-0.85","8","High_HMMActual","303.40499999874737","","","","Images/NewTrialWC.png","37"
"image-keyboard-response","276","350817","0.0-4.0-1.85","8","High_HMMActual","null","","","","Images/BlackBeadChoice.png","null"
"image-keyboard-response","277","351535","0.0-4.0-2.85","8","High_HMMActual","null","","","","Images/BlackBeadChoiceCorrect.png","null"
"image-keyboard-response","278","351805","0.0-4.0-0.86","8","High_HMMActual","269.3749999998254","","","","Images/NewTrialBC.png","39"
"image-keyboard-response","279","352221","0.0-4.0-1.86","8","High_HMMActual","null","","","","Images/WhiteBeadChoice.png","null"
"image-keyboard-response","280","352935","0.0-4.0-2.86","8","High_HMMActual","null","","","","Images/WhiteBeadChoiceCorrect.png","null"
"image-keyboard-response","281","353493","0.0-4.0-0.87","8","High_HMMActual","557.0250000018859","","","","Images/NewTrialWC.png","37"
"image-keyboard-response","282","353905","0.0-4.0-1.87","8","High_HMMActual","null","","","","Images/BlackBeadChoice.png","null"
"image-keyboard-response","283","354612","0.0-4.0-2.87","8","High_HMMActual","443.24500000220723","","","","Images/BlackBeadChoiceCorrect.png","37"
"image-keyboard-response","284","354893","0.0-4.0-0.88","8","High_HMMActual","279.81500000169035","","","","Images/NewTrialBC.png","37"
"image-keyboard-response","285","355305","0.0-4.0-1.88","8","High_HMMActual","null","","","","Images/BlackBeadChoice.png","null"
"image-keyboard-response","286","356018","0.0-4.0-2.88","8","High_HMMActual","null","","","","Images/BlackBeadChoiceWrong.png","null"
"image-keyboard-response","287","356454","0.0-4.0-0.89","8","High_HMMActual","435.0849999973434","","","","Images/NewTrialWC.png","39"
"image-keyboard-response","288","356870","0.0-4.0-1.89","8","High_HMMActual","null","","","","Images/WhiteBeadChoice.png","null"
"image-keyboard-response","289","357573","0.0-4.0-2.89","8","High_HMMActual","469.87999999697786","","","","Images/WhiteBeadChoiceWrong.png","37"
"image-keyboard-response","290","357885","0.0-4.0-0.90","8","High_HMMActual","310.7850000014296","","","","Images/NewTrialBC.png","37"
"image-keyboard-response","291","358289","0.0-4.0-1.90","8","High_HMMActual","null","","","","Images/BlackBeadChoice.png","null"
"image-keyboard-response","292","359000","0.0-4.0-2.90","8","High_HMMActual","507.29499999945983","","","","Images/BlackBeadChoiceWrong.png","39"
"image-keyboard-response","293","359253","0.0-4.0-0.91","8","High_HMMActual","252.3700000019744","","","","Images/NewTrialWC.png","39"
"image-keyboard-response","294","359671","0.0-4.0-1.91","8","High_HMMActual","null","","","","Images/WhiteBeadChoice.png","null"
"image-keyboard-response","295","360384","0.0-4.0-2.91","8","High_HMMActual","null","","","","Images/WhiteBeadChoiceWrong.png","null"
"image-keyboard-response","296","360742","0.0-4.0-0.92","8","High_HMMActual","356.04500000044936","","","","Images/NewTrialBC.png","37"
"image-keyboard-response","297","361156","0.0-4.0-1.92","8","High_HMMActual","null","","","","Images/BlackBeadChoice.png","null"
"image-keyboard-response","298","361858","0.0-4.0-2.92","8","High_HMMActual","null","","","","Images/BlackBeadChoiceWrong.png","null"
"image-keyboard-response","299","362861","0.0-4.0-0.93","8","High_HMMActual","1002.1850000011618","","","","Images/NewTrialWC.png","37"
"image-keyboard-response","300","363263","0.0-4.0-1.93","8","High_HMMActual","null","","","","Images/BlackBeadChoice.png","null"
"image-keyboard-response","301","363965","0.0-4.0-2.93","8","High_HMMActual","null","","","","Images/BlackBeadChoiceCorrect.png","null"
"image-keyboard-response","302","364389","0.0-4.0-0.94","8","High_HMMActual","422.9200000008568","","","","Images/NewTrialBC.png","39"
"image-keyboard-response","303","364804","0.0-4.0-1.94","8","High_HMMActual","null","","","","Images/WhiteBeadChoice.png","null"
"image-keyboard-response","304","365506","0.0-4.0-2.94","8","High_HMMActual","null","","","","Images/WhiteBeadChoiceCorrect.png","null"
"image-keyboard-response","305","365894","0.0-4.0-0.95","8","High_HMMActual","386.7600000012317","","","","Images/NewTrialWC.png","37"
"image-keyboard-response","306","366299","0.0-4.0-1.95","8","High_HMMActual","null","","","","Images/BlackBeadChoice.png","null"
"image-keyboard-response","307","367003","0.0-4.0-2.95","8","High_HMMActual","null","","","","Images/BlackBeadChoiceCorrect.png","null"
"image-keyboard-response","308","367430","0.0-4.0-0.96","8","High_HMMActual","425.3400000015972","","","","Images/NewTrialBC.png","39"
"image-keyboard-response","309","367839","0.0-4.0-1.96","8","High_HMMActual","null","","","","Images/WhiteBeadChoice.png","null"
"image-keyboard-response","310","368552","0.0-4.0-2.96","8","High_HMMActual","null","","","","Images/WhiteBeadChoiceCorrect.png","null"
"image-keyboard-response","311","368893","0.0-4.0-0.97","8","High_HMMActual","339.5299999974668","","","","Images/NewTrialWC.png","37"
"image-keyboard-response","312","369305","0.0-4.0-1.97","8","High_HMMActual","null","","","","Images/BlackBeadChoice.png","null"
"image-keyboard-response","313","370017","0.0-4.0-2.97","8","High_HMMActual","null","","","","Images/BlackBeadChoiceWrong.png","null"
"image-keyboard-response","314","370405","0.0-4.0-0.98","8","High_HMMActual","386.6699999998673","","","","Images/NewTrialWC.png","37"
"image-keyboard-response","315","370820","0.0-4.0-1.98","8","High_HMMActual","null","","","","Images/BlackBeadChoice.png","null"
"image-keyboard-response","316","371526","0.0-4.0-2.98","8","High_HMMActual","null","","","","Images/BlackBeadChoiceCorrect.png","null"
"image-keyboard-response","317","372150","0.0-4.0-0.99","8","High_HMMActual","622.7250000010827","","","","Images/NewTrialBC.png","39"
"image-keyboard-response","318","372556","0.0-4.0-1.99","8","High_HMMActual","null","","","","Images/WhiteBeadChoice.png","null"
"image-keyboard-response","319","373267","0.0-4.0-2.99","8","High_HMMActual","null","","","","Images/WhiteBeadChoiceCorrect.png","null"
"image-keyboard-response","320","373461","0.0-4.0-0.100","8","High_HMMActual","192.77000000147382","","","","Images/NewTrialWC.png","37"
"image-keyboard-response","321","373873","0.0-4.0-1.100","8","High_HMMActual","null","","","","Images/BlackBeadChoice.png","null"
"image-keyboard-response","322","374584","0.0-4.0-2.100","8","High_HMMActual","null","","","","Images/BlackBeadChoiceCorrect.png","null"
"image-keyboard-response","323","374973","0.0-4.0-0.101","8","High_HMMActual","387.9799999995157","","","","Images/NewTrialBC.png","39"
"image-keyboard-response","324","375387","0.0-4.0-1.101","8","High_HMMActual","null","","","","Images/WhiteBeadChoice.png","null"
"image-keyboard-response","325","376094","0.0-4.0-2.101","8","High_HMMActual","null","","","","Images/WhiteBeadChoiceWrong.png","null"
"image-keyboard-response","326","376597","0.0-4.0-0.102","8","High_HMMActual","501.7599999991944","","","","Images/NewTrialBC.png","37"
"image-keyboard-response","327","377006","0.0-4.0-1.102","8","High_HMMActual","null","","","","Images/BlackBeadChoice.png","null"
"image-keyboard-response","328","377714","0.0-4.0-2.102","8","High_HMMActual","478.5750000010012","","","","Images/BlackBeadChoiceWrong.png","37"
"image-keyboard-response","329","378717","0.0-4.0-0.103","8","High_HMMActual","1001.7900000020163","","","","Images/NewTrialWC.png","37"
"image-keyboard-response","330","379123","0.0-4.0-1.103","8","High_HMMActual","null","","","","Images/BlackBeadChoice.png","null"
"image-keyboard-response","331","379829","0.0-4.0-2.103","8","High_HMMActual","null","","","","Images/BlackBeadChoiceWrong.png","null"
"image-keyboard-response","332","379973","0.0-4.0-0.104","8","High_HMMActual","142.99000000028173","","","","Images/NewTrialWC.png","37"
"image-keyboard-response","333","380389","0.0-4.0-1.104","8","High_HMMActual","null","","","","Images/BlackBeadChoice.png","null"
"image-keyboard-response","334","381093","0.0-4.0-2.104","8","High_HMMActual","null","","","","Images/BlackBeadChoiceWrong.png","null"
"image-keyboard-response","335","381120","0.0-4.0-0.105","8","High_HMMActual","24.789999999513384","","","","Images/NewTrialWC.png","37"
"image-keyboard-response","336","381523","0.0-4.0-1.105","8","High_HMMActual","null","","","","Images/BlackBeadChoice.png","null"
"image-keyboard-response","337","382234","0.0-4.0-2.105","8","High_HMMActual","null","","","","Images/BlackBeadChoiceCorrect.png","null"
"image-keyboard-response","338","382485","0.0-4.0-0.106","8","High_HMMActual","249.71499999810476","","","","Images/NewTrialBC.png","37"
"image-keyboard-response","339","382889","0.0-4.0-1.106","8","High_HMMActual","null","","","","Images/BlackBeadChoice.png","null"
"image-keyboard-response","340","383601","0.0-4.0-2.106","8","High_HMMActual","null","","","","Images/BlackBeadChoiceWrong.png","null"
"image-keyboard-response","341","383757","0.0-4.0-0.107","8","High_HMMActual","155.30999999830965","","","","Images/NewTrialWC.png","37"
"image-keyboard-response","342","384171","0.0-4.0-1.107","8","High_HMMActual","null","","","","Images/BlackBeadChoice.png","null"
"image-keyboard-response","343","384887","0.0-4.0-2.107","8","High_HMMActual","577.5050000010524","","","","Images/BlackBeadChoiceCorrect.png","37"
"image-keyboard-response","344","385333","0.0-4.0-0.108","8","High_HMMActual","444.69499999831896","","","","Images/NewTrialBC.png","37"
"image-keyboard-response","345","385739","0.0-4.0-1.108","8","High_HMMActual","null","","","","Images/BlackBeadChoice.png","null"
"image-keyboard-response","346","386449","0.0-4.0-2.108","8","High_HMMActual","441.6400000008871","","","","Images/BlackBeadChoiceWrong.png","37"
"image-keyboard-response","347","386845","0.0-4.0-0.109","8","High_HMMActual","395.22000000218395","","","","Images/NewTrialWC.png","39"
"image-keyboard-response","348","387256","0.0-4.0-1.109","8","High_HMMActual","null","","","","Images/WhiteBeadChoice.png","null"
"image-keyboard-response","349","387973","0.0-4.0-2.109","8","High_HMMActual","364.71499999967637","","","","Images/WhiteBeadChoiceWrong.png","37"
"image-keyboard-response","350","388094","0.0-4.0-0.110","8","High_HMMActual","119.56999999895925","","","","Images/NewTrialBC.png","37"
"image-keyboard-response","351","388507","0.0-4.0-1.110","8","High_HMMActual","null","","","","Images/BlackBeadChoice.png","null"
"image-keyboard-response","352","389218","0.0-4.0-2.110","8","High_HMMActual","null","","","","Images/BlackBeadChoiceWrong.png","null"
"image-keyboard-response","353","389253","0.0-4.0-0.111","8","High_HMMActual","33.63000000169268","","","","Images/NewTrialWC.png","39"
"image-keyboard-response","354","389658","0.0-4.0-1.111","8","High_HMMActual","335.1550000006682","","","","Images/WhiteBeadChoice.png","39"
"image-keyboard-response","355","390362","0.0-4.0-2.111","8","High_HMMActual","322.11000000097556","","","","Images/WhiteBeadChoiceWrong.png","37"
"image-keyboard-response","356","390478","0.0-4.0-0.112","8","High_HMMActual","113.91500000166707","","","","Images/NewTrialBC.png","37"
"image-keyboard-response","357","390889","0.0-4.0-1.112","8","High_HMMActual","null","","","","Images/BlackBeadChoice.png","null"
"image-keyboard-response","358","391601","0.0-4.0-2.112","8","High_HMMActual","null","","","","Images/BlackBeadChoiceWrong.png","null"
"image-keyboard-response","359","391613","0.0-4.0-0.113","8","High_HMMActual","11.170000001555309","","","","Images/NewTrialWC.png","39"
"image-keyboard-response","360","392022","0.0-4.0-1.113","8","High_HMMActual","null","","","","Images/WhiteBeadChoice.png","null"
"image-keyboard-response","361","392735","0.0-4.0-2.113","8","High_HMMActual","294.3100000011618","","","","Images/WhiteBeadChoiceWrong.png","40"
"image-keyboard-response","362","393030","0.0-4.0-0.114","8","High_HMMActual","292.9600000025239","","","","Images/NewTrialBC.png","39"
"image-keyboard-response","363","393435","0.0-4.0-1.114","8","High_HMMActual","null","","","","Images/WhiteBeadChoice.png","null"
"image-keyboard-response","364","394152","0.0-4.0-2.114","8","High_HMMActual","null","","","","Images/WhiteBeadChoiceCorrect.png","null"
"image-keyboard-response","365","394509","0.0-4.0-0.115","8","High_HMMActual","356.18000000249594","","","","Images/NewTrialWC.png","37"
"image-keyboard-response","366","394922","0.0-4.0-1.115","8","High_HMMActual","null","","","","Images/BlackBeadChoice.png","null"
"image-keyboard-response","367","395634","0.0-4.0-2.115","8","High_HMMActual","null","","","","Images/BlackBeadChoiceCorrect.png","null"
"image-keyboard-response","368","396981","0.0-4.0-0.116","8","High_HMMActual","1346.125","","","","Images/NewTrialBC.png","39"
"image-keyboard-response","369","397397","0.0-4.0-1.116","8","High_HMMActual","null","","","","Images/WhiteBeadChoice.png","null"
"image-keyboard-response","370","398103","0.0-4.0-2.116","8","High_HMMActual","null","","","","Images/WhiteBeadChoiceCorrect.png","null"
"image-keyboard-response","371","399182","0.0-4.0-0.117","8","High_HMMActual","1077.4750000018394","","","","Images/NewTrialWC.png","39"
"image-keyboard-response","372","399591","0.0-4.0-1.117","8","High_HMMActual","null","","","","Images/WhiteBeadChoice.png","null"
"image-keyboard-response","373","400301","0.0-4.0-2.117","8","High_HMMActual","null","","","","Images/WhiteBeadChoiceWrong.png","null"
"image-keyboard-response","374","400821","0.0-4.0-0.118","8","High_HMMActual","519.3249999974505","","","","Images/NewTrialBC.png","37"
"image-keyboard-response","375","401237","0.0-4.0-1.118","8","High_HMMActual","null","","","","Images/BlackBeadChoice.png","null"
"image-keyboard-response","376","401953","0.0-4.0-2.118","8","High_HMMActual","null","","","","Images/BlackBeadChoiceWrong.png","null"
"image-keyboard-response","377","402845","0.0-4.0-0.119","8","High_HMMActual","891.02500000078","","","","Images/NewTrialWC.png","39"
"image-keyboard-response","378","403256","0.0-4.0-1.119","8","High_HMMActual","null","","","","Images/WhiteBeadChoice.png","null"
"image-keyboard-response","379","403966","0.0-4.0-2.119","8","High_HMMActual","508.3550000017858","","","","Images/WhiteBeadChoiceCorrect.png","37"
"image-keyboard-response","380","404453","0.0-4.0-0.120","8","High_HMMActual","485.4750000013155","","","","Images/NewTrialWC.png","37"
"image-keyboard-response","381","404870","0.0-4.0-1.120","8","High_HMMActual","null","","","","Images/BlackBeadChoice.png","null"
"image-keyboard-response","382","405573","0.0-4.0-2.120","8","High_HMMActual","null","","","","Images/BlackBeadChoiceWrong.png","null"
"image-keyboard-response","383","405989","0.0-4.0-0.121","8","High_HMMActual","415.0549999976647","","","","Images/NewTrialWC.png","39"
"image-keyboard-response","384","406392","0.0-4.0-1.121","8","High_HMMActual","null","","","","Images/WhiteBeadChoice.png","null"
"image-keyboard-response","385","407093","0.0-4.0-2.121","8","High_HMMActual","null","","","","Images/WhiteBeadChoiceWrong.png","null"
"image-keyboard-response","386","407725","0.0-4.0-0.122","8","High_HMMActual","630.5600000014529","","","","Images/NewTrialBC.png","37"
"image-keyboard-response","387","408139","0.0-4.0-1.122","8","High_HMMActual","null","","","","Images/BlackBeadChoice.png","null"
"image-keyboard-response","388","408851","0.0-4.0-2.122","8","High_HMMActual","null","","","","Images/BlackBeadChoiceWrong.png","null"
"image-keyboard-response","389","409045","0.0-4.0-0.123","8","High_HMMActual","193.24000000051456","","","","Images/NewTrialWC.png","37"
"image-keyboard-response","390","409452","0.0-4.0-1.123","8","High_HMMActual","null","","","","Images/BlackBeadChoice.png","null"
"image-keyboard-response","391","410168","0.0-4.0-2.123","8","High_HMMActual","null","","","","Images/BlackBeadChoiceCorrect.png","null"
"image-keyboard-response","392","410814","0.0-4.0-0.124","8","High_HMMActual","644.689999997383","","","","Images/NewTrialBC.png","39"
"image-keyboard-response","393","411222","0.0-4.0-1.124","8","High_HMMActual","null","","","","Images/WhiteBeadChoice.png","null"
"image-keyboard-response","394","411936","0.0-4.0-2.124","8","High_HMMActual","557.8549999991083","","","","Images/WhiteBeadChoiceCorrect.png","37"
"image-keyboard-response","395","412837","0.0-4.0-0.125","8","High_HMMActual","899.4600000005448","","","","Images/NewTrialWC.png","39"
"image-keyboard-response","396","413254","0.0-4.0-1.125","8","High_HMMActual","null","","","","Images/WhiteBeadChoice.png","null"
"image-keyboard-response","397","413963","0.0-4.0-2.125","8","High_HMMActual","206.3899999994319","","","","Images/WhiteBeadChoiceWrong.png","37"
"image-keyboard-response","398","414421","0.0-4.0-0.126","8","High_HMMActual","456.45999999757623","","","","Images/NewTrialBC.png","39"
"image-keyboard-response","399","414837","0.0-4.0-1.126","8","High_HMMActual","null","","","","Images/WhiteBeadChoice.png","null"
"image-keyboard-response","400","415550","0.0-4.0-2.126","8","High_HMMActual","null","","","","Images/WhiteBeadChoiceWrong.png","null"
"image-keyboard-response","401","415957","0.0-4.0-0.127","8","High_HMMActual","405.3199999980279","","","","Images/NewTrialBC.png","37"
"image-keyboard-response","402","416370","0.0-4.0-1.127","8","High_HMMActual","null","","","","Images/BlackBeadChoice.png","null"
"image-keyboard-response","403","417082","0.0-4.0-2.127","8","High_HMMActual","497.769999998156","","","","Images/BlackBeadChoiceCorrect.png","39"
"image-keyboard-response","404","417525","0.0-4.0-0.128","8","High_HMMActual","441.6500000007218","","","","Images/NewTrialBC.png","37"
"image-keyboard-response","405","417937","0.0-4.0-1.128","8","High_HMMActual","null","","","","Images/BlackBeadChoice.png","null"
"image-keyboard-response","406","418645","0.0-4.0-2.128","8","High_HMMActual","259.21500000188826","","","","Images/BlackBeadChoiceWrong.png","39"
"image-keyboard-response","407","419437","0.0-4.0-0.129","8","High_HMMActual","791.4950000013341","","","","Images/NewTrialWC.png","37"
"image-keyboard-response","408","419853","0.0-4.0-1.129","8","High_HMMActual","null","","","","Images/BlackBeadChoice.png","null"
"image-keyboard-response","409","420562","0.0-4.0-2.129","8","High_HMMActual","454.6200000004028","","","","Images/BlackBeadChoiceCorrect.png","39"
"image-keyboard-response","410","421134","0.0-4.0-0.130","8","High_HMMActual","570.4949999999371","","","","Images/NewTrialBC.png","37"
"image-keyboard-response","411","421546","0.0-4.0-1.130","8","High_HMMActual","null","","","","Images/BlackBeadChoice.png","null"
"image-keyboard-response","412","422252","0.0-4.0-2.130","8","High_HMMActual","null","","","","Images/BlackBeadChoiceCorrect.png","null"
"image-keyboard-response","413","422262","0.0-4.0-0.131","8","High_HMMActual","8.734999999403954","","","","Images/NewTrialBC.png","37"
"image-keyboard-response","414","422671","0.0-4.0-1.131","8","High_HMMActual","null","","","","Images/BlackBeadChoice.png","null"
"image-keyboard-response","415","423375","0.0-4.0-2.131","8","High_HMMActual","628.7249999986379","","","","Images/BlackBeadChoiceCorrect.png","37"
"image-keyboard-response","416","423909","0.0-4.0-0.132","8","High_HMMActual","533.080000001064","","","","Images/NewTrialBC.png","37"
"image-keyboard-response","417","424321","0.0-4.0-1.132","8","High_HMMActual","null","","","","Images/BlackBeadChoice.png","null"
"image-keyboard-response","418","425034","0.0-4.0-2.132","8","High_HMMActual","null","","","","Images/BlackBeadChoiceWrong.png","null"
"image-keyboard-response","419","425565","0.0-4.0-0.133","8","High_HMMActual","529.834999997518","","","","Images/NewTrialWC.png","37"
"image-keyboard-response","420","425972","0.0-4.0-1.133","8","High_HMMActual","null","","","","Images/BlackBeadChoice.png","null"
"image-keyboard-response","421","426684","0.0-4.0-2.133","8","High_HMMActual","null","","","","Images/BlackBeadChoiceCorrect.png","null"
"image-keyboard-response","422","427421","0.0-4.0-0.134","8","High_HMMActual","736.1600000003818","","","","Images/NewTrialBC.png","39"
"image-keyboard-response","423","427838","0.0-4.0-1.134","8","High_HMMActual","null","","","","Images/WhiteBeadChoice.png","null"
"image-keyboard-response","424","428550","0.0-4.0-2.134","8","High_HMMActual","null","","","","Images/WhiteBeadChoiceWrong.png","null"
"image-keyboard-response","425","429741","0.0-4.0-0.135","8","High_HMMActual","1189.4549999997253","","","","Images/NewTrialBC.png","39"
"image-keyboard-response","426","430156","0.0-4.0-1.135","8","High_HMMActual","null","","","","Images/WhiteBeadChoice.png","null"
"image-keyboard-response","427","430867","0.0-4.0-2.135","8","High_HMMActual","null","","","","Images/WhiteBeadChoiceCorrect.png","null"
"image-keyboard-response","428","430957","0.0-4.0-0.136","8","High_HMMActual","88.63500000012573","","","","Images/NewTrialWC.png","39"
"image-keyboard-response","429","431367","0.0-4.0-1.136","8","High_HMMActual","null","","","","Images/WhiteBeadChoice.png","null"
"image-keyboard-response","430","432069","0.0-4.0-2.136","8","High_HMMActual","null","","","","Images/WhiteBeadChoiceCorrect.png","null"
"image-keyboard-response","431","432494","0.0-4.0-0.137","8","High_HMMActual","422.78999999689404","","","","Images/NewTrialWC.png","37"
"image-keyboard-response","432","432905","0.0-4.0-1.137","8","High_HMMActual","null","","","","Images/BlackBeadChoice.png","null"
"image-keyboard-response","433","433617","0.0-4.0-2.137","8","High_HMMActual","null","","","","Images/BlackBeadChoiceCorrect.png","null"
"image-keyboard-response","434","436397","0.0-4.0-0.138","8","High_HMMActual","2778.764999999141","","","","Images/NewTrialBC.png","37"
"image-keyboard-response","435","436802","0.0-4.0-1.138","8","High_HMMActual","null","","","","Images/BlackBeadChoice.png","null"
"image-keyboard-response","436","437509","0.0-4.0-2.138","8","High_HMMActual","null","","","","Images/BlackBeadChoiceCorrect.png","null"
"image-keyboard-response","437","437653","0.0-4.0-0.139","8","High_HMMActual","142.32999999879394","","","","Images/NewTrialBC.png","37"
"image-keyboard-response","438","438055","0.0-4.0-1.139","8","High_HMMActual","null","","","","Images/BlackBeadChoice.png","null"
"image-keyboard-response","439","438765","0.0-4.0-2.139","8","High_HMMActual","493.0199999980978","","","","Images/BlackBeadChoiceCorrect.png","37"
"image-keyboard-response","440","439062","0.0-4.0-0.140","8","High_HMMActual","294.8949999990873","","","","Images/NewTrialBC.png","37"
"image-keyboard-response","441","439468","0.0-4.0-1.140","8","High_HMMActual","null","","","","Images/BlackBeadChoice.png","null"
"image-keyboard-response","442","440170","0.0-4.0-2.140","8","High_HMMActual","null","","","","Images/BlackBeadChoiceWrong.png","null"
"image-keyboard-response","443","440949","0.0-4.0-0.141","8","High_HMMActual","778.0649999986636","","","","Images/NewTrialWC.png","37"
"image-keyboard-response","444","441356","0.0-4.0-1.141","8","High_HMMActual","null","","","","Images/BlackBeadChoice.png","null"
"image-keyboard-response","445","442067","0.0-4.0-2.141","8","High_HMMActual","null","","","","Images/BlackBeadChoiceCorrect.png","null"
"image-keyboard-response","446","442718","0.0-4.0-0.142","8","High_HMMActual","648.7600000000675","","","","Images/NewTrialBC.png","39"
"image-keyboard-response","447","443122","0.0-4.0-1.142","8","High_HMMActual","null","","","","Images/WhiteBeadChoice.png","null"
"image-keyboard-response","448","443834","0.0-4.0-2.142","8","High_HMMActual","null","","","","Images/WhiteBeadChoiceCorrect.png","null"
"image-keyboard-response","449","445645","0.0-4.0-0.143","8","High_HMMActual","1809.9050000018906","","","","Images/NewTrialWC.png","39"
"image-keyboard-response","450","446056","0.0-4.0-1.143","8","High_HMMActual","null","","","","Images/WhiteBeadChoice.png","null"
"image-keyboard-response","451","446765","0.0-4.0-2.143","8","High_HMMActual","194.0100000028615","","","","Images/WhiteBeadChoiceWrong.png","37"
"image-keyboard-response","452","446989","0.0-4.0-0.144","8","High_HMMActual","222.7999999995227","","","","Images/NewTrialBC.png","37"
"image-keyboard-response","453","447396","0.0-4.0-1.144","8","High_HMMActual","null","","","","Images/BlackBeadChoice.png","null"
"image-keyboard-response","454","448102","0.0-4.0-2.144","8","High_HMMActual","null","","","","Images/BlackBeadChoiceWrong.png","null"
"image-keyboard-response","455","448133","0.0-4.0-0.145","8","High_HMMActual","29.61499999940861","","","","Images/NewTrialWC.png","37"
"image-keyboard-response","456","448538","0.0-4.0-1.145","8","High_HMMActual","null","","","","Images/BlackBeadChoice.png","null"
"image-keyboard-response","457","449251","0.0-4.0-2.145","8","High_HMMActual","null","","","","Images/BlackBeadChoiceWrong.png","null"
"image-keyboard-response","458","449613","0.0-4.0-0.146","8","High_HMMActual","360.9199999991688","","","","Images/NewTrialWC.png","37"
"image-keyboard-response","459","450023","0.0-4.0-1.146","8","High_HMMActual","null","","","","Images/BlackBeadChoice.png","null"
"image-keyboard-response","460","450728","0.0-4.0-2.146","8","High_HMMActual","null","","","","Images/BlackBeadChoiceWrong.png","null"
"image-keyboard-response","461","451149","0.0-4.0-0.147","8","High_HMMActual","419.78000000020256","","","","Images/NewTrialWC.png","39"
"image-keyboard-response","462","451559","0.0-4.0-1.147","8","High_HMMActual","null","","","","Images/WhiteBeadChoice.png","null"
"image-keyboard-response","463","452267","0.0-4.0-2.147","8","High_HMMActual","518.1300000003539","","","","Images/WhiteBeadChoiceWrong.png","37"
"image-keyboard-response","464","453862","0.0-4.0-0.148","8","High_HMMActual","1592.8150000000023","","","","Images/NewTrialBC.png","37"
"image-keyboard-response","465","454272","0.0-4.0-1.148","8","High_HMMActual","null","","","","Images/BlackBeadChoice.png","null"
"image-keyboard-response","466","454984","0.0-4.0-2.148","8","High_HMMActual","null","","","","Images/BlackBeadChoiceWrong.png","null"
"image-keyboard-response","467","455573","0.0-4.0-0.149","8","High_HMMActual","587.8849999972153","","","","Images/NewTrialWC.png","39"
"image-keyboard-response","468","455987","0.0-4.0-1.149","8","High_HMMActual","null","","","","Images/WhiteBeadChoice.png","null"
"image-keyboard-response","469","456701","0.0-4.0-2.149","8","High_HMMActual","null","","","","Images/WhiteBeadChoiceCorrect.png","null"
"image-keyboard-response","470","457070","0.0-4.0-0.150","8","High_HMMActual","367.28999999834923","","","","Images/NewTrialWC.png","37"
"image-keyboard-response","471","457472","0.0-4.0-1.150","8","High_HMMActual","null","","","","Images/BlackBeadChoice.png","null"
"image-keyboard-response","472","458184","0.0-4.0-2.150","8","High_HMMActual","604.2950000009732","","","","Images/BlackBeadChoiceCorrect.png","39"
"image-keyboard-response","473","459094","0.0-4.0-0.151","8","High_HMMActual","907.9500000006519","","","","Images/NewTrialBC.png","37"
"image-keyboard-response","474","459501","0.0-4.0-1.151","8","High_HMMActual","null","","","","Images/BlackBeadChoice.png","null"
"image-keyboard-response","475","460219","0.0-4.0-2.151","8","High_HMMActual","null","","","","Images/BlackBeadChoiceCorrect.png","null"
"image-keyboard-response","476","460837","0.0-4.0-0.152","8","High_HMMActual","617.3449999986915","","","","Images/NewTrialBC.png","37"
"image-keyboard-response","477","461254","0.0-4.0-1.152","8","High_HMMActual","null","","","","Images/BlackBeadChoice.png","null"
"image-keyboard-response","478","461967","0.0-4.0-2.152","8","High_HMMActual","null","","","","Images/BlackBeadChoiceCorrect.png","null"
"image-keyboard-response","479","462550","0.0-4.0-0.153","8","High_HMMActual","580.7400000012713","","","","Images/NewTrialBC.png","39"
"image-keyboard-response","480","462955","0.0-4.0-1.153","8","High_HMMActual","null","","","","Images/WhiteBeadChoice.png","null"
"image-keyboard-response","481","463667","0.0-4.0-2.153","8","High_HMMActual","null","","","","Images/WhiteBeadChoiceCorrect.png","null"
"image-keyboard-response","482","463878","0.0-4.0-0.154","8","High_HMMActual","209.0749999988475","","","","Images/NewTrialWC.png","39"
"image-keyboard-response","483","464290","0.0-4.0-1.154","8","High_HMMActual","null","","","","Images/WhiteBeadChoice.png","null"
"image-keyboard-response","484","464994","0.0-4.0-2.154","8","High_HMMActual","154.16000000183703","","","","Images/WhiteBeadChoiceCorrect.png","37"
"image-keyboard-response","485","466046","0.0-4.0-0.155","8","High_HMMActual","1050.5000000011642","","","","Images/NewTrialWC.png","37"
"image-keyboard-response","486","466456","0.0-4.0-1.155","8","High_HMMActual","null","","","","Images/BlackBeadChoice.png","null"
"image-keyboard-response","487","467162","0.0-4.0-2.155","8","High_HMMActual","null","","","","Images/BlackBeadChoiceCorrect.png","null"
"image-keyboard-response","488","467613","0.0-4.0-0.156","8","High_HMMActual","450.4349999988917","","","","Images/NewTrialBC.png","37"
"image-keyboard-response","489","468023","0.0-4.0-1.156","8","High_HMMActual","null","","","","Images/BlackBeadChoice.png","null"
"image-keyboard-response","490","468732","0.0-4.0-2.156","8","High_HMMActual","null","","","","Images/BlackBeadChoiceWrong.png","null"
"image-keyboard-response","491","470309","0.0-4.0-0.157","8","High_HMMActual","1575.9700000017183","","","","Images/NewTrialWC.png","39"
"image-keyboard-response","492","470714","0.0-4.0-1.157","8","High_HMMActual","null","","","","Images/WhiteBeadChoice.png","null"
"image-keyboard-response","493","471430","0.0-4.0-2.157","8","High_HMMActual","466.424999998766","","","","Images/WhiteBeadChoiceWrong.png","39"
"image-keyboard-response","494","471909","0.0-4.0-0.158","8","High_HMMActual","477.7350000003935","","","","Images/NewTrialBC.png","37"
"image-keyboard-response","495","472323","0.0-4.0-1.158","8","High_HMMActual","null","","","","Images/BlackBeadChoice.png","null"
"image-keyboard-response","496","473029","0.0-4.0-2.158","8","High_HMMActual","169.3249999989057","","","","Images/BlackBeadChoiceWrong.png","37"
"image-keyboard-response","497","473581","0.0-4.0-0.159","8","High_HMMActual","551.1250000017462","","","","Images/NewTrialWC.png","37"
"image-keyboard-response","498","473989","0.0-4.0-1.159","8","High_HMMActual","null","","","","Images/BlackBeadChoice.png","null"
"image-keyboard-response","499","474691","0.0-4.0-2.159","8","High_HMMActual","null","","","","Images/BlackBeadChoiceWrong.png","null"
"image-keyboard-response","500","475038","0.0-4.0-0.160","8","High_HMMActual","345.1200000017416","","","","Images/NewTrialWC.png","39"
"image-keyboard-response","501","475453","0.0-4.0-1.160","8","High_HMMActual","null","","","","Images/WhiteBeadChoice.png","null"
"image-keyboard-response","502","476168","0.0-4.0-2.160","8","High_HMMActual","null","","","","Images/WhiteBeadChoiceCorrect.png","null"
"image-keyboard-response","503","476853","0.0-4.0-0.161","8","High_HMMActual","683.7300000006217","","","","Images/NewTrialWC.png","37"
"image-keyboard-response","504","477255","0.0-4.0-1.161","8","High_HMMActual","null","","","","Images/BlackBeadChoice.png","null"
"image-keyboard-response","505","477968","0.0-4.0-2.161","8","High_HMMActual","null","","","","Images/BlackBeadChoiceCorrect.png","null"
"image-keyboard-response","506","478318","0.0-4.0-0.162","8","High_HMMActual","348.48500000225613","","","","Images/NewTrialBC.png","39"
"image-keyboard-response","507","478723","0.0-4.0-1.162","8","High_HMMActual","null","","","","Images/WhiteBeadChoice.png","null"
"image-keyboard-response","508","479437","0.0-4.0-2.162","8","High_HMMActual","585.3500000012573","","","","Images/WhiteBeadChoiceCorrect.png","37"
"image-keyboard-response","509","480837","0.0-4.0-0.163","8","High_HMMActual","1398.7699999997858","","","","Images/NewTrialWC.png","39"
"image-keyboard-response","510","481240","0.0-4.0-1.163","8","High_HMMActual","null","","","","Images/WhiteBeadChoice.png","null"
"image-keyboard-response","511","481952","0.0-4.0-2.163","8","High_HMMActual","null","","","","Images/WhiteBeadChoiceWrong.png","null"
"image-keyboard-response","512","483222","0.0-4.0-0.164","8","High_HMMActual","1268.435000001744","","","","Images/NewTrialBC.png","39"
"image-keyboard-response","513","483624","0.0-4.0-1.164","8","High_HMMActual","null","","","","Images/WhiteBeadChoice.png","null"
"image-keyboard-response","514","484337","0.0-4.0-2.164","8","High_HMMActual","null","","","","Images/WhiteBeadChoiceCorrect.png","null"
"image-keyboard-response","515","486982","0.0-4.0-0.165","8","High_HMMActual","2643.260000000708","","","","Images/NewTrialWC.png","37"
"image-keyboard-response","516","487388","0.0-4.0-1.165","8","High_HMMActual","null","","","","Images/BlackBeadChoice.png","null"
"image-keyboard-response","517","488101","0.0-4.0-2.165","8","High_HMMActual","null","","","","Images/BlackBeadChoiceCorrect.png","null"
"image-keyboard-response","518","488662","0.0-4.0-0.166","8","High_HMMActual","559.2900000010268","","","","Images/NewTrialBC.png","37"
"image-keyboard-response","519","489073","0.0-4.0-1.166","8","High_HMMActual","null","","","","Images/BlackBeadChoice.png","null"
"image-keyboard-response","520","489780","0.0-4.0-2.166","8","High_HMMActual","null","","","","Images/BlackBeadChoiceWrong.png","null"
"image-keyboard-response","521","491078","0.0-4.0-0.167","8","High_HMMActual","1296.56999999861","","","","Images/NewTrialWC.png","37"
"image-keyboard-response","522","491489","0.0-4.0-1.167","8","High_HMMActual","null","","","","Images/BlackBeadChoice.png","null"
"image-keyboard-response","523","492202","0.0-4.0-2.167","8","High_HMMActual","null","","","","Images/BlackBeadChoiceWrong.png","null"
"image-keyboard-response","524","492821","0.0-4.0-0.168","8","High_HMMActual","618.5750000004191","","","","Images/NewTrialWC.png","37"
"image-keyboard-response","525","493237","0.0-4.0-1.168","8","High_HMMActual","null","","","","Images/BlackBeadChoice.png","null"
"image-keyboard-response","526","493944","0.0-4.0-2.168","8","High_HMMActual","670.9950000003446","","","","Images/BlackBeadChoiceWrong.png","37"
"image-keyboard-response","527","495438","0.0-4.0-0.169","8","High_HMMActual","1492.435000000114","","","","Images/NewTrialWC.png","37"
"image-keyboard-response","528","495844","0.0-4.0-1.169","8","High_HMMActual","null","","","","Images/BlackBeadChoice.png","null"
"image-keyboard-response","529","496547","0.0-4.0-2.169","8","High_HMMActual","535.8749999977299","","","","Images/BlackBeadChoiceWrong.png","37"
"image-keyboard-response","530","497390","0.0-4.0-0.170","8","High_HMMActual","841.4899999988265","","","","Images/NewTrialWC.png","37"
"image-keyboard-response","531","497804","0.0-4.0-1.170","8","High_HMMActual","null","","","","Images/BlackBeadChoice.png","null"
"image-keyboard-response","532","498518","0.0-4.0-2.170","8","High_HMMActual","null","","","","Images/BlackBeadChoiceWrong.png","null"
"image-keyboard-response","533","498933","0.0-4.0-0.171","8","High_HMMActual","414.3800000019837","","","","Images/NewTrialWC.png","39"
"image-keyboard-response","534","499339","0.0-4.0-1.171","8","High_HMMActual","null","","","","Images/WhiteBeadChoice.png","null"
"image-keyboard-response","535","500051","0.0-4.0-2.171","8","High_HMMActual","null","","","","Images/WhiteBeadChoiceWrong.png","null"
"image-keyboard-response","536","500717","0.0-4.0-0.172","8","High_HMMActual","665.1549999987474","","","","Images/NewTrialBC.png","39"
"image-keyboard-response","537","501123","0.0-4.0-1.172","8","High_HMMActual","null","","","","Images/WhiteBeadChoice.png","null"
"image-keyboard-response","538","501828","0.0-4.0-2.172","8","High_HMMActual","null","","","","Images/WhiteBeadChoiceCorrect.png","null"
"image-keyboard-response","539","502622","0.0-4.0-0.173","8","High_HMMActual","792.5900000008987","","","","Images/NewTrialWC.png","39"
"image-keyboard-response","540","503037","0.0-4.0-1.173","8","High_HMMActual","null","","","","Images/WhiteBeadChoice.png","null"
"image-keyboard-response","541","503743","0.0-4.0-2.173","8","High_HMMActual","391.1100000004517","","","","Images/WhiteBeadChoiceWrong.png","37"
"image-keyboard-response","542","504509","0.0-4.0-0.174","8","High_HMMActual","765.5050000030315","","","","Images/NewTrialBC.png","37"
"image-keyboard-response","543","504921","0.0-4.0-1.174","8","High_HMMActual","null","","","","Images/BlackBeadChoice.png","null"
"image-keyboard-response","544","505623","0.0-4.0-2.174","8","High_HMMActual","603.2799999993294","","","","Images/BlackBeadChoiceCorrect.png","37"
"image-keyboard-response","545","506110","0.0-4.0-0.175","8","High_HMMActual","485.1250000028522","","","","Images/NewTrialBC.png","37"
"image-keyboard-response","546","506514","0.0-4.0-1.175","8","High_HMMActual","null","","","","Images/BlackBeadChoice.png","null"
"image-keyboard-response","547","507220","0.0-4.0-2.175","8","High_HMMActual","null","","","","Images/BlackBeadChoiceCorrect.png","null"
"image-keyboard-response","548","507342","0.0-4.0-0.176","8","High_HMMActual","120.45999999821652","","","","Images/NewTrialBC.png","37"
"image-keyboard-response","549","507754","0.0-4.0-1.176","8","High_HMMActual","null","","","","Images/BlackBeadChoice.png","null"
"image-keyboard-response","550","508464","0.0-4.0-2.176","8","High_HMMActual","427.0350000006147","","","","Images/BlackBeadChoiceWrong.png","39"
"image-keyboard-response","551","509198","0.0-4.0-0.177","8","High_HMMActual","732.6150000008056","","","","Images/NewTrialWC.png","37"
"image-keyboard-response","552","509607","0.0-4.0-1.177","8","High_HMMActual","null","","","","Images/BlackBeadChoice.png","null"
"image-keyboard-response","553","510324","0.0-4.0-2.177","8","High_HMMActual","549.55500000139","","","","Images/BlackBeadChoiceWrong.png","39"
"image-keyboard-response","554","511110","0.0-4.0-0.178","8","High_HMMActual","784.2100000016508","","","","Images/NewTrialWC.png","39"
"image-keyboard-response","555","511513","0.0-4.0-1.178","8","High_HMMActual","null","","","","Images/WhiteBeadChoice.png","null"
"image-keyboard-response","556","512220","0.0-4.0-2.178","8","High_HMMActual","null","","","","Images/WhiteBeadChoiceCorrect.png","null"
"image-keyboard-response","557","512493","0.0-4.0-0.179","8","High_HMMActual","272.0450000015553","","","","Images/NewTrialWC.png","37"
"image-keyboard-response","558","512905","0.0-4.0-1.179","8","High_HMMActual","null","","","","Images/BlackBeadChoice.png","null"
"image-keyboard-response","559","513617","0.0-4.0-2.179","8","High_HMMActual","null","","","","Images/BlackBeadChoiceCorrect.png","null"
"image-keyboard-response","560","514350","0.0-4.0-0.180","8","High_HMMActual","730.9150000000955","","","","Images/NewTrialBC.png","39"
"image-keyboard-response","561","514756","0.0-4.0-1.180","8","High_HMMActual","null","","","","Images/WhiteBeadChoice.png","null"
"image-keyboard-response","562","515468","0.0-4.0-2.180","8","High_HMMActual","520.440000000177","","","","Images/WhiteBeadChoiceCorrect.png","39"
"image-keyboard-response","563","516389","0.0-4.0-0.181","8","High_HMMActual","920.1699999975972","","","","Images/NewTrialWC.png","39"
"image-keyboard-response","564","516804","0.0-4.0-1.181","8","High_HMMActual","null","","","","Images/WhiteBeadChoice.png","null"
"image-keyboard-response","565","517514","0.0-4.0-2.181","8","High_HMMActual","456.14500000007683","","","","Images/WhiteBeadChoiceWrong.png","37"
"image-keyboard-response","566","518789","0.0-4.0-0.182","8","High_HMMActual","1274.405000000028","","","","Images/NewTrialBC.png","39"
"image-keyboard-response","567","519191","0.0-4.0-1.182","8","High_HMMActual","null","","","","Images/WhiteBeadChoice.png","null"
"image-keyboard-response","568","519894","0.0-4.0-2.182","8","High_HMMActual","661.2699999968754","","","","Images/WhiteBeadChoiceCorrect.png","39"
"image-keyboard-response","569","520622","0.0-4.0-0.183","8","High_HMMActual","726.2149999986868","","","","Images/NewTrialWC.png","37"
"image-keyboard-response","570","521038","0.0-4.0-1.183","8","High_HMMActual","null","","","","Images/BlackBeadChoice.png","null"
"image-keyboard-response","571","521743","0.0-4.0-2.183","8","High_HMMActual","646.7200000005541","","","","Images/BlackBeadChoiceWrong.png","39"
"image-keyboard-response","572","522846","0.0-4.0-0.184","8","High_HMMActual","1101.715000000666","","","","Images/NewTrialWC.png","37"
"image-keyboard-response","573","523256","0.0-4.0-1.184","8","High_HMMActual","null","","","","Images/BlackBeadChoice.png","null"
"image-keyboard-response","574","523967","0.0-4.0-2.184","8","High_HMMActual","null","","","","Images/BlackBeadChoiceWrong.png","null"
"image-keyboard-response","575","524118","0.0-4.0-0.185","8","High_HMMActual","149.53500000049826","","","","Images/NewTrialWC.png","39"
"image-keyboard-response","576","524522","0.0-4.0-1.185","8","High_HMMActual","null","","","","Images/WhiteBeadChoice.png","null"
"image-keyboard-response","577","525234","0.0-4.0-2.185","8","High_HMMActual","null","","","","Images/WhiteBeadChoiceWrong.png","null"
"image-keyboard-response","578","526190","0.0-4.0-0.186","8","High_HMMActual","954.1250000002328","","","","Images/NewTrialBC.png","37"
"image-keyboard-response","579","526603","0.0-4.0-1.186","8","High_HMMActual","null","","","","Images/BlackBeadChoice.png","null"
"image-keyboard-response","580","527309","0.0-4.0-2.186","8","High_HMMActual","401.6800000027288","","","","Images/BlackBeadChoiceWrong.png","39"
"image-keyboard-response","581","527806","0.0-4.0-0.187","8","High_HMMActual","495.0349999999162","","","","Images/NewTrialWC.png","37"
"image-keyboard-response","582","528221","0.0-4.0-1.187","8","High_HMMActual","null","","","","Images/BlackBeadChoice.png","null"
"image-keyboard-response","583","528934","0.0-4.0-2.187","8","High_HMMActual","null","","","","Images/BlackBeadChoiceCorrect.png","null"
"image-keyboard-response","584","529526","0.0-4.0-0.188","8","High_HMMActual","590.4100000006147","","","","Images/NewTrialBC.png","37"
"image-keyboard-response","585","529929","0.0-4.0-1.188","8","High_HMMActual","null","","","","Images/BlackBeadChoice.png","null"
"image-keyboard-response","586","530634","0.0-4.0-2.188","8","High_HMMActual","null","","","","Images/BlackBeadChoiceWrong.png","null"
"image-keyboard-response","587","530662","0.0-4.0-0.189","8","High_HMMActual","26.224999997764826","","","","Images/NewTrialWC.png","39"
"image-keyboard-response","588","531072","0.0-4.0-1.189","8","High_HMMActual","null","","","","Images/WhiteBeadChoice.png","null"
"image-keyboard-response","589","531774","0.0-4.0-2.189","8","High_HMMActual","699.9600000018254","","","","Images/WhiteBeadChoiceWrong.png","37"
"image-keyboard-response","590","532830","0.0-4.0-0.190","8","High_HMMActual","1054.6599999979371","","","","Images/NewTrialBC.png","37"
"image-keyboard-response","591","533239","0.0-4.0-1.190","8","High_HMMActual","null","","","","Images/BlackBeadChoice.png","null"
"image-keyboard-response","592","533951","0.0-4.0-2.190","8","High_HMMActual","null","","","","Images/BlackBeadChoiceWrong.png","null"
"image-keyboard-response","593","534078","0.0-4.0-0.191","8","High_HMMActual","125.20999999833293","","","","Images/NewTrialWC.png","39"
"image-keyboard-response","594","534488","0.0-4.0-1.191","8","High_HMMActual","null","","","","Images/WhiteBeadChoice.png","null"
"image-keyboard-response","595","535201","0.0-4.0-2.191","8","High_HMMActual","null","","","","Images/WhiteBeadChoiceWrong.png","null"
"image-keyboard-response","596","535941","0.0-4.0-0.192","8","High_HMMActual","738.9199999998091","","","","Images/NewTrialBC.png","37"
"image-keyboard-response","597","536354","0.0-4.0-1.192","8","High_HMMActual","null","","","","Images/BlackBeadChoice.png","null"
"image-keyboard-response","598","537059","0.0-4.0-2.192","8","High_HMMActual","402.4200000021374","","","","Images/BlackBeadChoiceWrong.png","39"
"image-keyboard-response","599","538814","0.0-4.0-0.193","8","High_HMMActual","1752.8000000020256","","","","Images/NewTrialWC.png","37"
"image-keyboard-response","600","539222","0.0-4.0-1.193","8","High_HMMActual","null","","","","Images/BlackBeadChoice.png","null"
"image-keyboard-response","601","539934","0.0-4.0-2.193","8","High_HMMActual","null","","","","Images/BlackBeadChoiceWrong.png","null"
"image-keyboard-response","602","540206","0.0-4.0-0.194","8","High_HMMActual","270.5200000018813","","","","Images/NewTrialWC.png","39"
"image-keyboard-response","603","540608","0.0-4.0-1.194","8","High_HMMActual","null","","","","Images/WhiteBeadChoice.png","null"
"image-keyboard-response","604","541318","0.0-4.0-2.194","8","High_HMMActual","null","","","","Images/WhiteBeadChoiceCorrect.png","null"
"image-keyboard-response","605","541574","0.0-4.0-0.195","8","High_HMMActual","254.5250000002561","","","","Images/NewTrialWC.png","39"
"image-keyboard-response","606","541987","0.0-4.0-1.195","8","High_HMMActual","null","","","","Images/WhiteBeadChoice.png","null"
"image-keyboard-response","607","542701","0.0-4.0-2.195","8","High_HMMActual","null","","","","Images/WhiteBeadChoiceWrong.png","null"
"image-keyboard-response","608","543622","0.0-4.0-0.196","8","High_HMMActual","919.5599999985425","","","","Images/NewTrialBC.png","39"
"image-keyboard-response","609","544037","0.0-4.0-1.196","8","High_HMMActual","null","","","","Images/WhiteBeadChoice.png","null"
"image-keyboard-response","610","544750","0.0-4.0-2.196","8","High_HMMActual","519.0100000000093","","","","Images/WhiteBeadChoiceCorrect.png","37"
"image-keyboard-response","611","546678","0.0-4.0-0.197","8","High_HMMActual","1926.2200000011362","","","","Images/NewTrialWC.png","39"
"image-keyboard-response","612","547090","0.0-4.0-1.197","8","High_HMMActual","null","","","","Images/WhiteBeadChoice.png","null"
"image-keyboard-response","613","547794","0.0-4.0-2.197","8","High_HMMActual","417.9199999999255","","","","Images/WhiteBeadChoiceWrong.png","37"
"image-keyboard-response","614","549742","0.0-4.0-0.198","8","High_HMMActual","1946.3849999993108","","","","Images/NewTrialBC.png","39"
"image-keyboard-response","615","550156","0.0-4.0-1.198","8","High_HMMActual","null","","","","Images/WhiteBeadChoice.png","null"
"image-keyboard-response","616","550860","0.0-4.0-2.198","8","High_HMMActual","null","","","","Images/WhiteBeadChoiceCorrect.png","null"
"image-keyboard-response","617","551126","0.0-4.0-0.199","8","High_HMMActual","264.62499999976717","","","","Images/NewTrialWC.png","37"
"image-keyboard-response","618","551528","0.0-4.0-1.199","8","High_HMMActual","null","","","","Images/BlackBeadChoice.png","null"
"image-keyboard-response","619","552237","0.0-4.0-2.199","8","High_HMMActual","null","","","","Images/BlackBeadChoiceCorrect.png","null"
"image-keyboard-response","620","552669","0.0-4.0-0.200","8","High_HMMActual","431.45000000006985","","","","Images/NewTrialBC.png","39"
"image-keyboard-response","621","553072","0.0-4.0-1.200","8","High_HMMActual","null","","","","Images/WhiteBeadChoice.png","null"
"image-keyboard-response","622","553776","0.0-4.0-2.200","8","High_HMMActual","620.2449999982491","","","","Images/WhiteBeadChoiceWrong.png","37"
"image-keyboard-response","623","554502","0.0-4.0-0.201","8","High_HMMActual","724.5949999996228","","","","Images/NewTrialBC.png","39"
"image-keyboard-response","624","554905","0.0-4.0-1.201","8","High_HMMActual","null","","","","Images/WhiteBeadChoice.png","null"
"image-keyboard-response","625","555610","0.0-4.0-2.201","8","High_HMMActual","null","","","","Images/WhiteBeadChoiceCorrect.png","null"
"image-keyboard-response","626","556414","0.0-4.0-0.202","8","High_HMMActual","802.3749999993015","","","","Images/NewTrialWC.png","37"
"image-keyboard-response","627","556817","0.0-4.0-1.202","8","High_HMMActual","null","","","","Images/BlackBeadChoice.png","null"
"image-keyboard-response","628","557520","0.0-4.0-2.202","8","High_HMMActual","null","","","","Images/BlackBeadChoiceWrong.png","null"
"image-keyboard-response","629","557557","0.0-4.0-0.203","8","High_HMMActual","36.28499999840278","","","","Images/NewTrialWC.png","39"
"image-keyboard-response","630","557970","0.0-4.0-1.203","8","High_HMMActual","null","","","","Images/WhiteBeadChoice.png","null"
"image-keyboard-response","631","558678","0.0-4.0-2.203","8","High_HMMActual","434.5499999981839","","","","Images/WhiteBeadChoiceWrong.png","37"
"image-keyboard-response","632","559494","0.0-4.0-0.204","8","High_HMMActual","814.0500000008615","","","","Images/NewTrialBC.png","37"
"image-keyboard-response","633","559905","0.0-4.0-1.204","8","High_HMMActual","null","","","","Images/BlackBeadChoice.png","null"
"image-keyboard-response","634","560614","0.0-4.0-2.204","8","High_HMMActual","602.9899999994086","","","","Images/BlackBeadChoiceWrong.png","39"
"image-keyboard-response","635","561574","0.0-4.0-0.205","8","High_HMMActual","958.3600000005681","","","","Images/NewTrialWC.png","39"
"image-keyboard-response","636","561987","0.0-4.0-1.205","8","High_HMMActual","null","","","","Images/WhiteBeadChoice.png","null"
"image-keyboard-response","637","562703","0.0-4.0-2.205","8","High_HMMActual","null","","","","Images/WhiteBeadChoiceWrong.png","null"
"image-keyboard-response","638","563102","0.0-4.0-0.206","8","High_HMMActual","396.80999999842606","","","","Images/NewTrialBC.png","39"
"image-keyboard-response","639","563505","0.0-4.0-1.206","8","High_HMMActual","null","","","","Images/WhiteBeadChoice.png","null"
"image-keyboard-response","640","564218","0.0-4.0-2.206","8","High_HMMActual","null","","","","Images/WhiteBeadChoiceCorrect.png","null"
"image-keyboard-response","641","564646","0.0-4.0-0.207","8","High_HMMActual","426.3299999984447","","","","Images/NewTrialWC.png","37"
"image-keyboard-response","642","565056","0.0-4.0-1.207","8","High_HMMActual","null","","","","Images/BlackBeadChoice.png","null"
"image-keyboard-response","643","565767","0.0-4.0-2.207","8","High_HMMActual","null","","","","Images/BlackBeadChoiceCorrect.png","null"
"image-keyboard-response","644","565838","0.0-4.0-0.208","8","High_HMMActual","68.86999999918044","","","","Images/NewTrialBC.png","39"
"image-keyboard-response","645","566254","0.0-4.0-1.208","8","High_HMMActual","null","","","","Images/WhiteBeadChoice.png","null"
"image-keyboard-response","646","566969","0.0-4.0-2.208","8","High_HMMActual","542.0849999972852","","","","Images/WhiteBeadChoiceCorrect.png","37"
"image-keyboard-response","647","568046","0.0-4.0-0.209","8","High_HMMActual","1075.5699999972712","","","","Images/NewTrialWC.png","37"
"image-keyboard-response","648","568452","0.0-4.0-1.209","8","High_HMMActual","null","","","","Images/BlackBeadChoice.png","null"
"image-keyboard-response","649","569154","0.0-4.0-2.209","8","High_HMMActual","696.70500000217","","","","Images/BlackBeadChoiceWrong.png","39"
"image-keyboard-response","650","570142","0.0-4.0-0.210","8","High_HMMActual","986.609999999986","","","","Images/NewTrialWC.png","37"
"image-keyboard-response","651","570549","0.0-4.0-1.210","8","High_HMMActual","null","","","","Images/BlackBeadChoice.png","null"
"image-keyboard-response","652","571253","0.0-4.0-2.210","8","High_HMMActual","null","","","","Images/BlackBeadChoiceWrong.png","null"
"image-keyboard-response","653","571301","0.0-4.0-0.211","8","High_HMMActual","47.435000000405125","","","","Images/NewTrialWC.png","37"
"image-keyboard-response","654","571707","0.0-4.0-1.211","8","High_HMMActual","null","","","","Images/BlackBeadChoice.png","null"
"image-keyboard-response","655","572415","0.0-4.0-2.211","8","High_HMMActual","null","","","","Images/BlackBeadChoiceWrong.png","null"
"image-keyboard-response","656","572734","0.0-4.0-0.212","8","High_HMMActual","317.89000000199303","","","","Images/NewTrialWC.png","39"
"image-keyboard-response","657","573139","0.0-4.0-1.212","8","High_HMMActual","null","","","","Images/WhiteBeadChoice.png","null"
"image-keyboard-response","658","573854","0.0-4.0-2.212","8","High_HMMActual","576.9000000000233","","","","Images/WhiteBeadChoiceCorrect.png","39"
"image-keyboard-response","659","574285","0.0-4.0-0.213","8","High_HMMActual","430.21999999834225","","","","Images/NewTrialWC.png","39"
"image-keyboard-response","660","574689","0.0-4.0-1.213","8","High_HMMActual","null","","","","Images/WhiteBeadChoice.png","null"
"image-keyboard-response","661","575401","0.0-4.0-2.213","8","High_HMMActual","null","","","","Images/WhiteBeadChoiceWrong.png","null"
"image-keyboard-response","662","575701","0.0-4.0-0.214","8","High_HMMActual","299.2450000019744","","","","Images/NewTrialBC.png","37"
"image-keyboard-response","663","576105","0.0-4.0-1.214","8","High_HMMActual","null","","","","Images/BlackBeadChoice.png","null"
"image-keyboard-response","664","576819","0.0-4.0-2.214","8","High_HMMActual","null","","","","Images/BlackBeadChoiceCorrect.png","null"
"image-keyboard-response","665","577182","0.0-4.0-0.215","8","High_HMMActual","361.45500000193715","","","","Images/NewTrialBC.png","37"
"image-keyboard-response","666","577592","0.0-4.0-1.215","8","High_HMMActual","null","","","","Images/BlackBeadChoice.png","null"
"image-keyboard-response","667","578295","0.0-4.0-2.215","8","High_HMMActual","419.7150000000838","","","","Images/BlackBeadChoiceCorrect.png","37"
"image-keyboard-response","668","578573","0.0-4.0-0.216","8","High_HMMActual","277.4649999992689","","","","Images/NewTrialBC.png","37"
"image-keyboard-response","669","578987","0.0-4.0-1.216","8","High_HMMActual","null","","","","Images/BlackBeadChoice.png","null"
"image-keyboard-response","670","579701","0.0-4.0-2.216","8","High_HMMActual","null","","","","Images/BlackBeadChoiceWrong.png","null"
"image-keyboard-response","671","580278","0.0-4.0-0.217","8","High_HMMActual","575.3650000005728","","","","Images/NewTrialWC.png","37"
"image-keyboard-response","672","580688","0.0-4.0-1.217","8","High_HMMActual","null","","","","Images/BlackBeadChoice.png","null"
"image-keyboard-response","673","581401","0.0-4.0-2.217","8","High_HMMActual","null","","","","Images/BlackBeadChoiceCorrect.png","null"
"image-keyboard-response","674","581589","0.0-4.0-0.218","8","High_HMMActual","186.99499999999534","","","","Images/NewTrialBC.png","39"
"image-keyboard-response","675","582004","0.0-4.0-1.218","8","High_HMMActual","null","","","","Images/WhiteBeadChoice.png","null"
"image-keyboard-response","676","582719","0.0-4.0-2.218","8","High_HMMActual","null","","","","Images/WhiteBeadChoiceCorrect.png","null"
"image-keyboard-response","677","582870","0.0-4.0-0.219","8","High_HMMActual","149.2099999994971","","","","Images/NewTrialWC.png","37"
"image-keyboard-response","678","583271","0.0-4.0-1.219","8","High_HMMActual","null","","","","Images/BlackBeadChoice.png","null"
"image-keyboard-response","679","583984","0.0-4.0-2.219","8","High_HMMActual","null","","","","Images/BlackBeadChoiceCorrect.png","null"
"image-keyboard-response","680","584070","0.0-4.0-0.220","8","High_HMMActual","84.31500000017695","","","","Images/NewTrialBC.png","39"
"image-keyboard-response","681","584484","0.0-4.0-1.220","8","High_HMMActual","null","","","","Images/WhiteBeadChoice.png","null"
"image-keyboard-response","682","585199","0.0-4.0-2.220","8","High_HMMActual","480.2750000017695","","","","Images/WhiteBeadChoiceWrong.png","37"
"image-keyboard-response","683","586158","0.0-4.0-0.221","8","High_HMMActual","957.5699999986682","","","","Images/NewTrialBC.png","39"
"image-keyboard-response","684","586571","0.0-4.0-1.221","8","High_HMMActual","null","","","","Images/WhiteBeadChoice.png","null"
"image-keyboard-response","685","587273","0.0-4.0-2.221","8","High_HMMActual","689.6200000010431","","","","Images/WhiteBeadChoiceWrong.png","39"
"image-keyboard-response","686","588013","0.0-4.0-0.222","8","High_HMMActual","739.4300000014482","","","","Images/NewTrialBC.png","39"
"image-keyboard-response","687","588423","0.0-4.0-1.222","8","High_HMMActual","null","","","","Images/WhiteBeadChoice.png","null"
"image-keyboard-response","688","589129","0.0-4.0-2.222","8","High_HMMActual","437.4099999986356","","","","Images/WhiteBeadChoiceWrong.png","37"
"image-keyboard-response","689","589389","0.0-4.0-0.223","8","High_HMMActual","258.574999999837","","","","Images/NewTrialBC.png","37"
"image-keyboard-response","690","589804","0.0-4.0-1.223","8","High_HMMActual","null","","","","Images/BlackBeadChoice.png","null"
"image-keyboard-response","691","590517","0.0-4.0-2.223","8","High_HMMActual","null","","","","Images/BlackBeadChoiceCorrect.png","null"
"image-keyboard-response","692","590565","0.0-4.0-0.224","8","High_HMMActual","46.60499999951571","","","","Images/NewTrialBC.png","37"
"image-keyboard-response","693","590971","0.0-4.0-1.224","8","High_HMMActual","null","","","","Images/BlackBeadChoice.png","null"
"image-keyboard-response","694","591684","0.0-4.0-2.224","8","High_HMMActual","null","","","","Images/BlackBeadChoiceCorrect.png","null"
"image-keyboard-response","695","592637","0.0-4.0-0.225","8","High_HMMActual","951.7950000008568","","","","Images/NewTrialBC.png","39"
"image-keyboard-response","696","593054","0.0-4.0-1.225","8","High_HMMActual","null","","","","Images/WhiteBeadChoice.png","null"
"image-keyboard-response","697","593770","0.0-4.0-2.225","8","High_HMMActual","566.7150000008987","","","","Images/WhiteBeadChoiceCorrect.png","39"
"image-keyboard-response","698","594285","0.0-4.0-0.226","8","High_HMMActual","514.3950000019977","","","","Images/NewTrialWC.png","39"
"image-keyboard-response","699","594690","0.0-4.0-1.226","8","High_HMMActual","null","","","","Images/WhiteBeadChoice.png","null"
"image-keyboard-response","700","595403","0.0-4.0-2.226","8","High_HMMActual","546.0550000026124","","","","Images/WhiteBeadChoiceWrong.png","39"
"image-keyboard-response","701","596142","0.0-4.0-0.227","8","High_HMMActual","737.2350000005681","","","","Images/NewTrialBC.png","39"
"image-keyboard-response","702","596545","0.0-4.0-1.227","8","High_HMMActual","null","","","","Images/WhiteBeadChoice.png","null"
"image-keyboard-response","703","597249","0.0-4.0-2.227","8","High_HMMActual","242.6899999991292","","","","Images/WhiteBeadChoiceWrong.png","37"
"image-keyboard-response","704","598262","0.0-4.0-0.228","8","High_HMMActual","1011.3849999980303","","","","Images/NewTrialBC.png","39"
"image-keyboard-response","705","598673","0.0-4.0-1.228","8","High_HMMActual","null","","","","Images/WhiteBeadChoice.png","null"
"image-keyboard-response","706","599384","0.0-4.0-2.228","8","High_HMMActual","null","","","","Images/WhiteBeadChoiceCorrect.png","null"
"image-keyboard-response","707","600038","0.0-4.0-0.229","8","High_HMMActual","651.9350000016857","","","","Images/NewTrialWC.png","37"
"image-keyboard-response","708","600454","0.0-4.0-1.229","8","High_HMMActual","null","","","","Images/BlackBeadChoice.png","null"
"image-keyboard-response","709","601168","0.0-4.0-2.229","8","High_HMMActual","null","","","","Images/BlackBeadChoiceCorrect.png","null"
"image-keyboard-response","710","601749","0.0-4.0-0.230","8","High_HMMActual","580.3249999990221","","","","Images/NewTrialBC.png","39"
"image-keyboard-response","711","602156","0.0-4.0-1.230","8","High_HMMActual","null","","","","Images/WhiteBeadChoice.png","null"
"image-keyboard-response","712","602871","0.0-4.0-2.230","8","High_HMMActual","null","","","","Images/WhiteBeadChoiceCorrect.png","null"
"image-keyboard-response","713","602997","0.0-4.0-0.231","8","High_HMMActual","124.64499999990221","","","","Images/NewTrialWC.png","39"
"image-keyboard-response","714","603410","0.0-4.0-1.231","8","High_HMMActual","null","","","","Images/WhiteBeadChoice.png","null"
"image-keyboard-response","715","604121","0.0-4.0-2.231","8","High_HMMActual","null","","","","Images/WhiteBeadChoiceWrong.png","null"
