"trial_type","trial_index","time_elapsed","internal_node_id","Script_Picker","Block_Type","rt","url","responses","question_order","stimulus","key_press"
"pavlovia","0","2","0.0-0.0","11","High_HMMActual","","","","","",""
"external-html","1","3336429","0.0-1.0-0.0","11","High_HMMActual","3336222.6300000004","consent.html","","","",""
"survey-multi-choice","2","3348481","0.0-1.0-1.0","11","High_HMMActual","12050.309999998659","","{""Q0"":""Male"",""Q1"":""White""}","[0,1]","",""
"survey-text","3","3351291","0.0-1.0-2.0","11","High_HMMActual","2807.4849999975413","","{""Q0"":""22""}","","",""
"survey-text","4","3359041","0.0-1.0-3.0","11","High_HMMActual","7647.570000000764","","{""Q0"":""5e4810c074edcc2b4f31ab83""}","","",""
"html-keyboard-response","5","3384019","0.0-2.0-0.0","11","High_HMMActual","24874.35499999998","","","","<div class=""container"" style=""height:800px;width:800px;display:flex;flex-direction:column;justify-content:center;align-items:center;text-align:center;font-weight:normal;font-family:Arial;font-size:20px""><p>In this task you will see black or white beads being pulled from jars. <br><br>On each trial, a bead will be pulled from one of two jars. Once you see this bead, your goal is to predict the color of NEXT bead that will be pulled. <br> <br>Every time you correctly guess the color of the NEXT bead, you will get a point. <br><br>Press the SPACEBAR to continue.</p><div>","32"
"html-keyboard-response","6","3403302","0.0-2.0-1.0","11","High_HMMActual","19283.17499999702","","","","<div class=""container"" style=""height:800px;width:800px;display:flex;flex-direction:column;justify-content:center;align-items:center;text-align:center;font-weight:normal;font-family:Arial;font-size:20px""><p>Jars are filled with 80% white or black beads and 20% of the opposite color mixed in.<br><br>Press the SPACEBAR to continue. </p><div>","32"
"image-keyboard-response","7","3410011","0.0-2.0-2.0","11","High_HMMActual","6707.875","","","","resources/WhiteJar_HMM.png","32"
"image-keyboard-response","8","3412118","0.0-2.0-3.0","11","High_HMMActual","2106.3549999999814","","","","resources/BlackJar_HMM.png","32"
"html-keyboard-response","9","3422945","0.0-2.0-4.0","11","High_HMMActual","10826.629999999888","","","","<div class=""container"" style=""height:800px;width:800px;display:flex;flex-direction:column;justify-content:center;align-items:center;text-align:center;font-weight:normal;font-family:Arial;font-size:20px""><p>There will be two blocks of trials. Each block will contain 500 trials. <br><br>Here are examples of what you will see on each trial.<br><br>Press the SPACEBAR to continue. </p><div>","32"
"image-keyboard-response","10","3426190","0.0-2.0-5.0","11","High_HMMActual","3244.255000001285","","","","Images/NoChoice.png","32"
"html-keyboard-response","11","3434592","0.0-2.0-6.0","11","High_HMMActual","8401.054999998305","","","","<div class=""container"" style=""height:800px;width:800px;display:flex;flex-direction:column;justify-content:center;align-items:center;text-align:center;font-weight:normal;font-family:Arial;font-size:20px""><p> The jar the beads are pulled from is NOT choosen at random on each trial.<br><br>After each prediction, there will be a chance that the jars will switch, and that the next bead will be pulled from the opposite jar as the previous trial.<br><br>In each block, the chance that a jar will switch will either be LOW (the jars will not switch very often), or HIGH (the jars will switch almost all the time).<br><br>At the start of each block, you will be told the probability that the jars will switch on each trial. This switch probability will stay constant throughout the block.<br><br>We will now show you some examples of beads being drawn from jars. The bead will appear in the middle of the screen, and the jar the bead was pulled from will be indicated with a black rectangle.<br><br>Press the SPACEBAR to continue. </p><div>","32"
"image-keyboard-response","12","3446152","0.0-2.0-7.0","11","High_HMMActual","11560.2249999973","","","","Images/TutorialWhiteJarDrawHMMC.png","32"
"image-keyboard-response","13","3448368","0.0-2.0-8.0","11","High_HMMActual","2215.30999999959","","","","Images/TutorialBlackJarDrawHMMC.png","32"
"image-keyboard-response","14","3449796","0.0-2.0-9.0","11","High_HMMActual","1427.549999996554","","","","Images/TutorialBlackJarDrawHMMI.png","32"
"html-keyboard-response","15","3465479","0.0-2.0-10.0","11","High_HMMActual","15682.524999999907","","","","<div class=""container"" style=""height:800px;width:800px;display:flex;flex-direction:column;justify-content:center;align-items:center;text-align:center;font-weight:normal;font-family:Arial;font-size:20px""><p> As you observed, a white bead was pulled from a 80% white jar, the jars switched and a black bead was pulled from the 80% black jar, but then a low-probability white bead was pulled from the 80% black jar. <br><br>This means that the color of the bead will not always match to the color of the jar it was pulled from.<br><br>Press SPACEBAR to conitnue.</p><div>","32"
"html-keyboard-response","16","3469439","0.0-2.0-11.0","11","High_HMMActual","3959.1550000002608","","","","<div class=""container"" style=""height:800px;width:800px;display:flex;flex-direction:column;justify-content:center;align-items:center;text-align:center;font-weight:normal;font-family:Arial;font-size:20px""><p> You will now be given a 2 question quiz to make sure you understand the task. </p><div>","32"
"image-keyboard-response","17","3501216","0.0-2.0-12.0","11","High_HMMActual","31774.70499999961","","","","Images/TutorialQuestion1.png","39"
"image-keyboard-response","18","3522875","0.0-2.0-13.0","11","High_HMMActual","19465.544999998994","","","","Images/TutorialQuestion2.png","38"
"html-keyboard-response","19","3541331","0.0-3.0","11","High_HMMActual","15761.709999999031","","","","<div class=""container"" style=""height:800px;width:800px;display:flex;flex-direction:column;justify-content:center;align-items:center;text-align:center;font-weight:normal;font-family:Arial;font-size:20px""><p>Loading episode&hellip;</p><div>","32"
"image-keyboard-response","20","3552211","0.0-4.0-0.0","11","High_HMMActual","10878.290000000503","","","","Images/NoChoice.png","39"
"image-keyboard-response","21","3552612","0.0-4.0-1.0","11","High_HMMActual","null","","","","Images/WhiteBeadChoice.png","null"
"image-keyboard-response","22","3553314","0.0-4.0-2.0","11","High_HMMActual","null","","","","Images/WhiteBeadChoiceWrong.png","null"
"image-keyboard-response","23","3559062","0.0-4.0-0.1","11","High_HMMActual","5747.425000001676","","","","Images/NewTrialBC.png","37"
"image-keyboard-response","24","3559463","0.0-4.0-1.1","11","High_HMMActual","null","","","","Images/BlackBeadChoice.png","null"
"image-keyboard-response","25","3560165","0.0-4.0-2.1","11","High_HMMActual","null","","","","Images/BlackBeadChoiceWrong.png","null"
"image-keyboard-response","26","3566239","0.0-4.0-0.2","11","High_HMMActual","6073.64999999851","","","","Images/NewTrialWC.png","37"
"image-keyboard-response","27","3566641","0.0-4.0-1.2","11","High_HMMActual","null","","","","Images/BlackBeadChoice.png","null"
"image-keyboard-response","28","3567343","0.0-4.0-2.2","11","High_HMMActual","null","","","","Images/BlackBeadChoiceWrong.png","null"
"image-keyboard-response","29","3569099","0.0-4.0-0.3","11","High_HMMActual","1756.2800000016578","","","","Images/NewTrialWC.png","39"
"image-keyboard-response","30","3569501","0.0-4.0-1.3","11","High_HMMActual","null","","","","Images/WhiteBeadChoice.png","null"
"image-keyboard-response","31","3570202","0.0-4.0-2.3","11","High_HMMActual","null","","","","Images/WhiteBeadChoiceCorrect.png","null"
"image-keyboard-response","32","3574248","0.0-4.0-0.4","11","High_HMMActual","4045.2750000003725","","","","Images/NewTrialWC.png","39"
"image-keyboard-response","33","3574649","0.0-4.0-1.4","11","High_HMMActual","null","","","","Images/WhiteBeadChoice.png","null"
"image-keyboard-response","34","3575351","0.0-4.0-2.4","11","High_HMMActual","null","","","","Images/WhiteBeadChoiceCorrect.png","null"
"image-keyboard-response","35","3576634","0.0-4.0-0.5","11","High_HMMActual","1281.8650000006892","","","","Images/NewTrialWC.png","39"
"image-keyboard-response","36","3577034","0.0-4.0-1.5","11","High_HMMActual","null","","","","Images/WhiteBeadChoice.png","null"
"image-keyboard-response","37","3577735","0.0-4.0-2.5","11","High_HMMActual","null","","","","Images/WhiteBeadChoiceCorrect.png","null"
"image-keyboard-response","38","3578873","0.0-4.0-0.6","11","High_HMMActual","1136.9550000014715","","","","Images/NewTrialWC.png","39"
"image-keyboard-response","39","3579274","0.0-4.0-1.6","11","High_HMMActual","null","","","","Images/WhiteBeadChoice.png","null"
"image-keyboard-response","40","3579975","0.0-4.0-2.6","11","High_HMMActual","null","","","","Images/WhiteBeadChoiceWrong.png","null"
"image-keyboard-response","41","3581639","0.0-4.0-0.7","11","High_HMMActual","1663.0949999997392","","","","Images/NewTrialBC.png","39"
"image-keyboard-response","42","3582040","0.0-4.0-1.7","11","High_HMMActual","null","","","","Images/WhiteBeadChoice.png","null"
"image-keyboard-response","43","3582741","0.0-4.0-2.7","11","High_HMMActual","null","","","","Images/WhiteBeadChoiceWrong.png","null"
"image-keyboard-response","44","3583861","0.0-4.0-0.8","11","High_HMMActual","1119.195000003092","","","","Images/NewTrialBC.png","37"
"image-keyboard-response","45","3584262","0.0-4.0-1.8","11","High_HMMActual","null","","","","Images/BlackBeadChoice.png","null"
"image-keyboard-response","46","3584962","0.0-4.0-2.8","11","High_HMMActual","null","","","","Images/BlackBeadChoiceCorrect.png","null"
"image-keyboard-response","47","3586346","0.0-4.0-0.9","11","High_HMMActual","1383.0899999993853","","","","Images/NewTrialBC.png","37"
"image-keyboard-response","48","3586747","0.0-4.0-1.9","11","High_HMMActual","null","","","","Images/BlackBeadChoice.png","null"
"image-keyboard-response","49","3587449","0.0-4.0-2.9","11","High_HMMActual","null","","","","Images/BlackBeadChoiceWrong.png","null"
"image-keyboard-response","50","3588864","0.0-4.0-0.10","11","High_HMMActual","1414.9600000018254","","","","Images/NewTrialWC.png","39"
"image-keyboard-response","51","3589266","0.0-4.0-1.10","11","High_HMMActual","null","","","","Images/WhiteBeadChoice.png","null"
"image-keyboard-response","52","3589968","0.0-4.0-2.10","11","High_HMMActual","null","","","","Images/WhiteBeadChoiceWrong.png","null"
"image-keyboard-response","53","3590667","0.0-4.0-0.11","11","High_HMMActual","698.7999999984168","","","","Images/NewTrialBC.png","37"
"image-keyboard-response","54","3591069","0.0-4.0-1.11","11","High_HMMActual","null","","","","Images/BlackBeadChoice.png","null"
"image-keyboard-response","55","3591771","0.0-4.0-2.11","11","High_HMMActual","null","","","","Images/BlackBeadChoiceCorrect.png","null"
"image-keyboard-response","56","3592551","0.0-4.0-0.12","11","High_HMMActual","779.9599999999627","","","","Images/NewTrialBC.png","37"
"image-keyboard-response","57","3592953","0.0-4.0-1.12","11","High_HMMActual","null","","","","Images/BlackBeadChoice.png","null"
"image-keyboard-response","58","3593654","0.0-4.0-2.12","11","High_HMMActual","null","","","","Images/BlackBeadChoiceCorrect.png","null"
"image-keyboard-response","59","3594230","0.0-4.0-0.13","11","High_HMMActual","575.2299999985844","","","","Images/NewTrialBC.png","37"
"image-keyboard-response","60","3594632","0.0-4.0-1.13","11","High_HMMActual","null","","","","Images/BlackBeadChoice.png","null"
"image-keyboard-response","61","3595334","0.0-4.0-2.13","11","High_HMMActual","null","","","","Images/BlackBeadChoiceWrong.png","null"
"image-keyboard-response","62","3596538","0.0-4.0-0.14","11","High_HMMActual","1203.6799999987707","","","","Images/NewTrialWC.png","39"
"image-keyboard-response","63","3596939","0.0-4.0-1.14","11","High_HMMActual","null","","","","Images/WhiteBeadChoice.png","null"
"image-keyboard-response","64","3597640","0.0-4.0-2.14","11","High_HMMActual","null","","","","Images/WhiteBeadChoiceWrong.png","null"
"image-keyboard-response","65","3598167","0.0-4.0-0.15","11","High_HMMActual","525.9399999994785","","","","Images/NewTrialBC.png","37"
"image-keyboard-response","66","3598568","0.0-4.0-1.15","11","High_HMMActual","null","","","","Images/BlackBeadChoice.png","null"
"image-keyboard-response","67","3599269","0.0-4.0-2.15","11","High_HMMActual","null","","","","Images/BlackBeadChoiceWrong.png","null"
"image-keyboard-response","68","3599995","0.0-4.0-0.16","11","High_HMMActual","725.3250000029802","","","","Images/NewTrialWC.png","37"
"image-keyboard-response","69","3600397","0.0-4.0-1.16","11","High_HMMActual","null","","","","Images/BlackBeadChoice.png","null"
"image-keyboard-response","70","3601098","0.0-4.0-2.16","11","High_HMMActual","null","","","","Images/BlackBeadChoiceCorrect.png","null"
"image-keyboard-response","71","3601642","0.0-4.0-0.17","11","High_HMMActual","543.4399999976158","","","","Images/NewTrialBC.png","37"
"image-keyboard-response","72","3602043","0.0-4.0-1.17","11","High_HMMActual","null","","","","Images/BlackBeadChoice.png","null"
"image-keyboard-response","73","3602744","0.0-4.0-2.17","11","High_HMMActual","null","","","","Images/BlackBeadChoiceWrong.png","null"
"image-keyboard-response","74","3603129","0.0-4.0-0.18","11","High_HMMActual","383.60499999905005","","","","Images/NewTrialWC.png","39"
"image-keyboard-response","75","3603531","0.0-4.0-1.18","11","High_HMMActual","null","","","","Images/WhiteBeadChoice.png","null"
"image-keyboard-response","76","3604232","0.0-4.0-2.18","11","High_HMMActual","null","","","","Images/WhiteBeadChoiceWrong.png","null"
"image-keyboard-response","77","3604795","0.0-4.0-0.19","11","High_HMMActual","562.0699999998324","","","","Images/NewTrialBC.png","39"
"image-keyboard-response","78","3605197","0.0-4.0-1.19","11","High_HMMActual","null","","","","Images/WhiteBeadChoice.png","null"
"image-keyboard-response","79","3605898","0.0-4.0-2.19","11","High_HMMActual","null","","","","Images/WhiteBeadChoiceWrong.png","null"
"image-keyboard-response","80","3606787","0.0-4.0-0.20","11","High_HMMActual","889.1949999998324","","","","Images/NewTrialBC.png","37"
"image-keyboard-response","81","3607188","0.0-4.0-1.20","11","High_HMMActual","null","","","","Images/BlackBeadChoice.png","null"
"image-keyboard-response","82","3607890","0.0-4.0-2.20","11","High_HMMActual","null","","","","Images/BlackBeadChoiceCorrect.png","null"
"image-keyboard-response","83","3608650","0.0-4.0-0.21","11","High_HMMActual","759.5100000002421","","","","Images/NewTrialBC.png","37"
"image-keyboard-response","84","3609052","0.0-4.0-1.21","11","High_HMMActual","null","","","","Images/BlackBeadChoice.png","null"
"image-keyboard-response","85","3609754","0.0-4.0-2.21","11","High_HMMActual","null","","","","Images/BlackBeadChoiceWrong.png","null"
"image-keyboard-response","86","3610238","0.0-4.0-0.22","11","High_HMMActual","483.7200000002049","","","","Images/NewTrialWC.png","37"
"image-keyboard-response","87","3610639","0.0-4.0-1.22","11","High_HMMActual","null","","","","Images/BlackBeadChoice.png","null"
"image-keyboard-response","88","3611340","0.0-4.0-2.22","11","High_HMMActual","null","","","","Images/BlackBeadChoiceCorrect.png","null"
"image-keyboard-response","89","3611799","0.0-4.0-0.23","11","High_HMMActual","458.5200000000186","","","","Images/NewTrialBC.png","37"
"image-keyboard-response","90","3612200","0.0-4.0-1.23","11","High_HMMActual","null","","","","Images/BlackBeadChoice.png","null"
"image-keyboard-response","91","3612902","0.0-4.0-2.23","11","High_HMMActual","null","","","","Images/BlackBeadChoiceWrong.png","null"
"image-keyboard-response","92","3613370","0.0-4.0-0.24","11","High_HMMActual","467.1100000012666","","","","Images/NewTrialWC.png","37"
"image-keyboard-response","93","3613771","0.0-4.0-1.24","11","High_HMMActual","null","","","","Images/BlackBeadChoice.png","null"
"image-keyboard-response","94","3614472","0.0-4.0-2.24","11","High_HMMActual","null","","","","Images/BlackBeadChoiceCorrect.png","null"
"image-keyboard-response","95","3615006","0.0-4.0-0.25","11","High_HMMActual","532.394999998156","","","","Images/NewTrialBC.png","37"
"image-keyboard-response","96","3615407","0.0-4.0-1.25","11","High_HMMActual","null","","","","Images/BlackBeadChoice.png","null"
"image-keyboard-response","97","3616108","0.0-4.0-2.25","11","High_HMMActual","null","","","","Images/BlackBeadChoiceWrong.png","null"
"image-keyboard-response","98","3616500","0.0-4.0-0.26","11","High_HMMActual","391.6049999971874","","","","Images/NewTrialWC.png","37"
"image-keyboard-response","99","3616901","0.0-4.0-1.26","11","High_HMMActual","null","","","","Images/BlackBeadChoice.png","null"
"image-keyboard-response","100","3617602","0.0-4.0-2.26","11","High_HMMActual","null","","","","Images/BlackBeadChoiceCorrect.png","null"
"image-keyboard-response","101","3618044","0.0-4.0-0.27","11","High_HMMActual","441.33999999798834","","","","Images/NewTrialBC.png","37"
"image-keyboard-response","102","3618447","0.0-4.0-1.27","11","High_HMMActual","null","","","","Images/BlackBeadChoice.png","null"
"image-keyboard-response","103","3619148","0.0-4.0-2.27","11","High_HMMActual","null","","","","Images/BlackBeadChoiceWrong.png","null"
"image-keyboard-response","104","3619601","0.0-4.0-0.28","11","High_HMMActual","452.0749999973923","","","","Images/NewTrialWC.png","37"
"image-keyboard-response","105","3620003","0.0-4.0-1.28","11","High_HMMActual","null","","","","Images/BlackBeadChoice.png","null"
"image-keyboard-response","106","3620704","0.0-4.0-2.28","11","High_HMMActual","null","","","","Images/BlackBeadChoiceWrong.png","null"
"image-keyboard-response","107","3621244","0.0-4.0-0.29","11","High_HMMActual","539.0599999991246","","","","Images/NewTrialWC.png","39"
"image-keyboard-response","108","3621645","0.0-4.0-1.29","11","High_HMMActual","null","","","","Images/WhiteBeadChoice.png","null"
"image-keyboard-response","109","3622347","0.0-4.0-2.29","11","High_HMMActual","null","","","","Images/WhiteBeadChoiceCorrect.png","null"
"image-keyboard-response","110","3622812","0.0-4.0-0.30","11","High_HMMActual","464.83000000054017","","","","Images/NewTrialWC.png","39"
"image-keyboard-response","111","3623213","0.0-4.0-1.30","11","High_HMMActual","null","","","","Images/WhiteBeadChoice.png","null"
"image-keyboard-response","112","3623915","0.0-4.0-2.30","11","High_HMMActual","null","","","","Images/WhiteBeadChoiceWrong.png","null"
"image-keyboard-response","113","3624368","0.0-4.0-0.31","11","High_HMMActual","452.3499999991618","","","","Images/NewTrialBC.png","37"
"image-keyboard-response","114","3624769","0.0-4.0-1.31","11","High_HMMActual","null","","","","Images/BlackBeadChoice.png","null"
"image-keyboard-response","115","3625471","0.0-4.0-2.31","11","High_HMMActual","null","","","","Images/BlackBeadChoiceWrong.png","null"
"image-keyboard-response","116","3625592","0.0-4.0-0.32","11","High_HMMActual","120.71500000078231","","","","Images/NewTrialWC.png","39"
"image-keyboard-response","117","3625993","0.0-4.0-1.32","11","High_HMMActual","null","","","","Images/WhiteBeadChoice.png","null"
"image-keyboard-response","118","3626694","0.0-4.0-2.32","11","High_HMMActual","null","","","","Images/WhiteBeadChoiceWrong.png","null"
"image-keyboard-response","119","3626918","0.0-4.0-0.33","11","High_HMMActual","223.25000000279397","","","","Images/NewTrialBC.png","39"
"image-keyboard-response","120","3627319","0.0-4.0-1.33","11","High_HMMActual","null","","","","Images/WhiteBeadChoice.png","null"
"image-keyboard-response","121","3628020","0.0-4.0-2.33","11","High_HMMActual","null","","","","Images/WhiteBeadChoiceCorrect.png","null"
"image-keyboard-response","122","3628706","0.0-4.0-0.34","11","High_HMMActual","685.2599999983795","","","","Images/NewTrialWC.png","39"
"image-keyboard-response","123","3629107","0.0-4.0-1.34","11","High_HMMActual","null","","","","Images/WhiteBeadChoice.png","null"
"image-keyboard-response","124","3629808","0.0-4.0-2.34","11","High_HMMActual","null","","","","Images/WhiteBeadChoiceWrong.png","null"
"image-keyboard-response","125","3629980","0.0-4.0-0.35","11","High_HMMActual","171.19000000087544","","","","Images/NewTrialBC.png","39"
"image-keyboard-response","126","3630381","0.0-4.0-1.35","11","High_HMMActual","null","","","","Images/WhiteBeadChoice.png","null"
"image-keyboard-response","127","3631084","0.0-4.0-2.35","11","High_HMMActual","null","","","","Images/WhiteBeadChoiceCorrect.png","null"
"image-keyboard-response","128","3631200","0.0-4.0-0.36","11","High_HMMActual","115.39500000094995","","","","Images/NewTrialWC.png","39"
"image-keyboard-response","129","3631601","0.0-4.0-1.36","11","High_HMMActual","null","","","","Images/WhiteBeadChoice.png","null"
"image-keyboard-response","130","3632302","0.0-4.0-2.36","11","High_HMMActual","null","","","","Images/WhiteBeadChoiceWrong.png","null"
"image-keyboard-response","131","3632627","0.0-4.0-0.37","11","High_HMMActual","324.2399999983609","","","","Images/NewTrialBC.png","37"
"image-keyboard-response","132","3633028","0.0-4.0-1.37","11","High_HMMActual","null","","","","Images/BlackBeadChoice.png","null"
"image-keyboard-response","133","3633730","0.0-4.0-2.37","11","High_HMMActual","null","","","","Images/BlackBeadChoiceWrong.png","null"
"image-keyboard-response","134","3633867","0.0-4.0-0.38","11","High_HMMActual","136.10999999940395","","","","Images/NewTrialWC.png","39"
"image-keyboard-response","135","3634267","0.0-4.0-1.38","11","High_HMMActual","null","","","","Images/WhiteBeadChoice.png","null"
"image-keyboard-response","136","3634969","0.0-4.0-2.38","11","High_HMMActual","null","","","","Images/WhiteBeadChoiceCorrect.png","null"
"image-keyboard-response","137","3635249","0.0-4.0-0.39","11","High_HMMActual","279.5299999997951","","","","Images/NewTrialWC.png","39"
"image-keyboard-response","138","3635650","0.0-4.0-1.39","11","High_HMMActual","null","","","","Images/WhiteBeadChoice.png","null"
"image-keyboard-response","139","3636352","0.0-4.0-2.39","11","High_HMMActual","null","","","","Images/WhiteBeadChoiceWrong.png","null"
"image-keyboard-response","140","3636996","0.0-4.0-0.40","11","High_HMMActual","642.0550000001676","","","","Images/NewTrialBC.png","37"
"image-keyboard-response","141","3637398","0.0-4.0-1.40","11","High_HMMActual","null","","","","Images/BlackBeadChoice.png","null"
"image-keyboard-response","142","3638099","0.0-4.0-2.40","11","High_HMMActual","null","","","","Images/BlackBeadChoiceCorrect.png","null"
"image-keyboard-response","143","3638225","0.0-4.0-0.41","11","High_HMMActual","125.75500000081956","","","","Images/NewTrialBC.png","37"
"image-keyboard-response","144","3638627","0.0-4.0-1.41","11","High_HMMActual","null","","","","Images/BlackBeadChoice.png","null"
"image-keyboard-response","145","3639328","0.0-4.0-2.41","11","High_HMMActual","null","","","","Images/BlackBeadChoiceWrong.png","null"
"image-keyboard-response","146","3639585","0.0-4.0-0.42","11","High_HMMActual","257.0450000022538","","","","Images/NewTrialWC.png","39"
"image-keyboard-response","147","3639986","0.0-4.0-1.42","11","High_HMMActual","null","","","","Images/WhiteBeadChoice.png","null"
"image-keyboard-response","148","3640688","0.0-4.0-2.42","11","High_HMMActual","null","","","","Images/WhiteBeadChoiceWrong.png","null"
"image-keyboard-response","149","3640971","0.0-4.0-0.43","11","High_HMMActual","282.9700000002049","","","","Images/NewTrialBC.png","39"
"image-keyboard-response","150","3641373","0.0-4.0-1.43","11","High_HMMActual","null","","","","Images/WhiteBeadChoice.png","null"
"image-keyboard-response","151","3642074","0.0-4.0-2.43","11","High_HMMActual","null","","","","Images/WhiteBeadChoiceCorrect.png","null"
"image-keyboard-response","152","3646681","0.0-4.0-0.44","11","High_HMMActual","4606.6899999966845","","","","Images/NewTrialWC.png","37"
"image-keyboard-response","153","3647084","0.0-4.0-1.44","11","High_HMMActual","null","","","","Images/BlackBeadChoice.png","null"
"image-keyboard-response","154","3647786","0.0-4.0-2.44","11","High_HMMActual","null","","","","Images/BlackBeadChoiceCorrect.png","null"
"image-keyboard-response","155","3649166","0.0-4.0-0.45","11","High_HMMActual","1379.5950000020675","","","","Images/NewTrialBC.png","39"
"image-keyboard-response","156","3649568","0.0-4.0-1.45","11","High_HMMActual","null","","","","Images/WhiteBeadChoice.png","null"
"image-keyboard-response","157","3650271","0.0-4.0-2.45","11","High_HMMActual","null","","","","Images/WhiteBeadChoiceCorrect.png","null"
"image-keyboard-response","158","3651040","0.0-4.0-0.46","11","High_HMMActual","768.2800000002608","","","","Images/NewTrialWC.png","37"
"image-keyboard-response","159","3651440","0.0-4.0-1.46","11","High_HMMActual","null","","","","Images/BlackBeadChoice.png","null"
"image-keyboard-response","160","3652142","0.0-4.0-2.46","11","High_HMMActual","null","","","","Images/BlackBeadChoiceCorrect.png","null"
"image-keyboard-response","161","3652711","0.0-4.0-0.47","11","High_HMMActual","567.8250000015832","","","","Images/NewTrialBC.png","39"
"image-keyboard-response","162","3653112","0.0-4.0-1.47","11","High_HMMActual","null","","","","Images/WhiteBeadChoice.png","null"
"image-keyboard-response","163","3653813","0.0-4.0-2.47","11","High_HMMActual","null","","","","Images/WhiteBeadChoiceCorrect.png","null"
"image-keyboard-response","164","3654155","0.0-4.0-0.48","11","High_HMMActual","341.15000000037253","","","","Images/NewTrialWC.png","37"
"image-keyboard-response","165","3654556","0.0-4.0-1.48","11","High_HMMActual","null","","","","Images/BlackBeadChoice.png","null"
"image-keyboard-response","166","3655259","0.0-4.0-2.48","11","High_HMMActual","null","","","","Images/BlackBeadChoiceWrong.png","null"
"image-keyboard-response","167","3659911","0.0-4.0-0.49","11","High_HMMActual","4651.8299999986775","","","","Images/NewTrialWC.png","39"
"image-keyboard-response","168","3660314","0.0-4.0-1.49","11","High_HMMActual","null","","","","Images/WhiteBeadChoice.png","null"
"image-keyboard-response","169","3661015","0.0-4.0-2.49","11","High_HMMActual","null","","","","Images/WhiteBeadChoiceCorrect.png","null"
"image-keyboard-response","170","3661842","0.0-4.0-0.50","11","High_HMMActual","826.5100000025705","","","","Images/NewTrialWC.png","37"
"image-keyboard-response","171","3662244","0.0-4.0-1.50","11","High_HMMActual","null","","","","Images/BlackBeadChoice.png","null"
"image-keyboard-response","172","3662945","0.0-4.0-2.50","11","High_HMMActual","null","","","","Images/BlackBeadChoiceCorrect.png","null"
"image-keyboard-response","173","3663597","0.0-4.0-0.51","11","High_HMMActual","651.5949999992736","","","","Images/NewTrialBC.png","39"
"image-keyboard-response","174","3663997","0.0-4.0-1.51","11","High_HMMActual","null","","","","Images/WhiteBeadChoice.png","null"
"image-keyboard-response","175","3664698","0.0-4.0-2.51","11","High_HMMActual","null","","","","Images/WhiteBeadChoiceCorrect.png","null"
"image-keyboard-response","176","3665136","0.0-4.0-0.52","11","High_HMMActual","437.19999999692664","","","","Images/NewTrialWC.png","37"
"image-keyboard-response","177","3665537","0.0-4.0-1.52","11","High_HMMActual","null","","","","Images/BlackBeadChoice.png","null"
"image-keyboard-response","178","3666238","0.0-4.0-2.52","11","High_HMMActual","null","","","","Images/BlackBeadChoiceCorrect.png","null"
"image-keyboard-response","179","3666945","0.0-4.0-0.53","11","High_HMMActual","706.5149999982677","","","","Images/NewTrialBC.png","39"
"image-keyboard-response","180","3667346","0.0-4.0-1.53","11","High_HMMActual","null","","","","Images/WhiteBeadChoice.png","null"
"image-keyboard-response","181","3668048","0.0-4.0-2.53","11","High_HMMActual","null","","","","Images/WhiteBeadChoiceCorrect.png","null"
"image-keyboard-response","182","3668533","0.0-4.0-0.54","11","High_HMMActual","484.35000000242144","","","","Images/NewTrialWC.png","37"
"image-keyboard-response","183","3668936","0.0-4.0-1.54","11","High_HMMActual","null","","","","Images/BlackBeadChoice.png","null"
"image-keyboard-response","184","3669638","0.0-4.0-2.54","11","High_HMMActual","null","","","","Images/BlackBeadChoiceCorrect.png","null"
"image-keyboard-response","185","3670079","0.0-4.0-0.55","11","High_HMMActual","439.7299999985844","","","","Images/NewTrialBC.png","39"
"image-keyboard-response","186","3670480","0.0-4.0-1.55","11","High_HMMActual","null","","","","Images/WhiteBeadChoice.png","null"
"image-keyboard-response","187","3671182","0.0-4.0-2.55","11","High_HMMActual","null","","","","Images/WhiteBeadChoiceCorrect.png","null"
"image-keyboard-response","188","3671471","0.0-4.0-0.56","11","High_HMMActual","288.06500000087544","","","","Images/NewTrialWC.png","37"
"image-keyboard-response","189","3671873","0.0-4.0-1.56","11","High_HMMActual","null","","","","Images/BlackBeadChoice.png","null"
"image-keyboard-response","190","3672574","0.0-4.0-2.56","11","High_HMMActual","null","","","","Images/BlackBeadChoiceCorrect.png","null"
"image-keyboard-response","191","3672955","0.0-4.0-0.57","11","High_HMMActual","380.554999999702","","","","Images/NewTrialBC.png","39"
"image-keyboard-response","192","3673356","0.0-4.0-1.57","11","High_HMMActual","null","","","","Images/WhiteBeadChoice.png","null"
"image-keyboard-response","193","3674057","0.0-4.0-2.57","11","High_HMMActual","null","","","","Images/WhiteBeadChoiceCorrect.png","null"
"image-keyboard-response","194","3674569","0.0-4.0-0.58","11","High_HMMActual","511.6850000009872","","","","Images/NewTrialWC.png","37"
"image-keyboard-response","195","3674970","0.0-4.0-1.58","11","High_HMMActual","null","","","","Images/BlackBeadChoice.png","null"
"image-keyboard-response","196","3675672","0.0-4.0-2.58","11","High_HMMActual","null","","","","Images/BlackBeadChoiceCorrect.png","null"
"image-keyboard-response","197","3675934","0.0-4.0-0.59","11","High_HMMActual","261.2850000006147","","","","Images/NewTrialBC.png","39"
"image-keyboard-response","198","3676336","0.0-4.0-1.59","11","High_HMMActual","null","","","","Images/WhiteBeadChoice.png","null"
"image-keyboard-response","199","3677037","0.0-4.0-2.59","11","High_HMMActual","null","","","","Images/WhiteBeadChoiceWrong.png","null"
"image-keyboard-response","200","3678272","0.0-4.0-0.60","11","High_HMMActual","1234.2049999968149","","","","Images/NewTrialBC.png","37"
"image-keyboard-response","201","3678673","0.0-4.0-1.60","11","High_HMMActual","null","","","","Images/BlackBeadChoice.png","null"
"image-keyboard-response","202","3679374","0.0-4.0-2.60","11","High_HMMActual","null","","","","Images/BlackBeadChoiceCorrect.png","null"
"image-keyboard-response","203","3679969","0.0-4.0-0.61","11","High_HMMActual","593.7599999997765","","","","Images/NewTrialBC.png","39"
"image-keyboard-response","204","3680369","0.0-4.0-1.61","11","High_HMMActual","null","","","","Images/WhiteBeadChoice.png","null"
"image-keyboard-response","205","3681071","0.0-4.0-2.61","11","High_HMMActual","null","","","","Images/WhiteBeadChoiceCorrect.png","null"
"image-keyboard-response","206","3681323","0.0-4.0-0.62","11","High_HMMActual","251.14999999990687","","","","Images/NewTrialWC.png","37"
"image-keyboard-response","207","3681724","0.0-4.0-1.62","11","High_HMMActual","null","","","","Images/BlackBeadChoice.png","null"
"image-keyboard-response","208","3682425","0.0-4.0-2.62","11","High_HMMActual","null","","","","Images/BlackBeadChoiceWrong.png","null"
"image-keyboard-response","209","3682814","0.0-4.0-0.63","11","High_HMMActual","388.0599999977276","","","","Images/NewTrialWC.png","39"
"image-keyboard-response","210","3683214","0.0-4.0-1.63","11","High_HMMActual","null","","","","Images/WhiteBeadChoice.png","null"
"image-keyboard-response","211","3683917","0.0-4.0-2.63","11","High_HMMActual","null","","","","Images/WhiteBeadChoiceWrong.png","null"
"image-keyboard-response","212","3684185","0.0-4.0-0.64","11","High_HMMActual","267.7800000021234","","","","Images/NewTrialBC.png","37"
"image-keyboard-response","213","3684586","0.0-4.0-1.64","11","High_HMMActual","null","","","","Images/BlackBeadChoice.png","null"
"image-keyboard-response","214","3685287","0.0-4.0-2.64","11","High_HMMActual","null","","","","Images/BlackBeadChoiceCorrect.png","null"
"image-keyboard-response","215","3685637","0.0-4.0-0.65","11","High_HMMActual","348.7549999989569","","","","Images/NewTrialBC.png","39"
"image-keyboard-response","216","3686037","0.0-4.0-1.65","11","High_HMMActual","null","","","","Images/WhiteBeadChoice.png","null"
"image-keyboard-response","217","3686739","0.0-4.0-2.65","11","High_HMMActual","null","","","","Images/WhiteBeadChoiceCorrect.png","null"
"image-keyboard-response","218","3686996","0.0-4.0-0.66","11","High_HMMActual","256.6699999985285","","","","Images/NewTrialWC.png","37"
"image-keyboard-response","219","3687398","0.0-4.0-1.66","11","High_HMMActual","null","","","","Images/BlackBeadChoice.png","null"
"image-keyboard-response","220","3688099","0.0-4.0-2.66","11","High_HMMActual","null","","","","Images/BlackBeadChoiceCorrect.png","null"
"image-keyboard-response","221","3688346","0.0-4.0-0.67","11","High_HMMActual","245.94000000040978","","","","Images/NewTrialBC.png","39"
"image-keyboard-response","222","3688747","0.0-4.0-1.67","11","High_HMMActual","null","","","","Images/WhiteBeadChoice.png","null"
"image-keyboard-response","223","3689449","0.0-4.0-2.67","11","High_HMMActual","null","","","","Images/WhiteBeadChoiceCorrect.png","null"
"image-keyboard-response","224","3689733","0.0-4.0-0.68","11","High_HMMActual","283.33499999996275","","","","Images/NewTrialWC.png","37"
"image-keyboard-response","225","3690135","0.0-4.0-1.68","11","High_HMMActual","null","","","","Images/BlackBeadChoice.png","null"
"image-keyboard-response","226","3690837","0.0-4.0-2.68","11","High_HMMActual","648.2649999996647","","","","Images/BlackBeadChoiceCorrect.png","39"
"image-keyboard-response","227","3691420","0.0-4.0-0.69","11","High_HMMActual","582.4749999991618","","","","Images/NewTrialBC.png","39"
"image-keyboard-response","228","3691821","0.0-4.0-1.69","11","High_HMMActual","null","","","","Images/WhiteBeadChoice.png","null"
"image-keyboard-response","229","3692522","0.0-4.0-2.69","11","High_HMMActual","null","","","","Images/WhiteBeadChoiceCorrect.png","null"
"image-keyboard-response","230","3692948","0.0-4.0-0.70","11","High_HMMActual","425.67499999841675","","","","Images/NewTrialWC.png","37"
"image-keyboard-response","231","3693351","0.0-4.0-1.70","11","High_HMMActual","null","","","","Images/BlackBeadChoice.png","null"
"image-keyboard-response","232","3694052","0.0-4.0-2.70","11","High_HMMActual","null","","","","Images/BlackBeadChoiceCorrect.png","null"
"image-keyboard-response","233","3694332","0.0-4.0-0.71","11","High_HMMActual","279.4250000002794","","","","Images/NewTrialBC.png","39"
"image-keyboard-response","234","3694733","0.0-4.0-1.71","11","High_HMMActual","null","","","","Images/WhiteBeadChoice.png","null"
"image-keyboard-response","235","3695434","0.0-4.0-2.71","11","High_HMMActual","null","","","","Images/WhiteBeadChoiceCorrect.png","null"
"image-keyboard-response","236","3695657","0.0-4.0-0.72","11","High_HMMActual","222.50999999931082","","","","Images/NewTrialWC.png","37"
"image-keyboard-response","237","3696059","0.0-4.0-1.72","11","High_HMMActual","null","","","","Images/BlackBeadChoice.png","null"
"image-keyboard-response","238","3696760","0.0-4.0-2.72","11","High_HMMActual","null","","","","Images/BlackBeadChoiceWrong.png","null"
"image-keyboard-response","239","3696988","0.0-4.0-0.73","11","High_HMMActual","227.18499999959022","","","","Images/NewTrialWC.png","39"
"image-keyboard-response","240","3697389","0.0-4.0-1.73","11","High_HMMActual","null","","","","Images/WhiteBeadChoice.png","null"
"image-keyboard-response","241","3698090","0.0-4.0-2.73","11","High_HMMActual","null","","","","Images/WhiteBeadChoiceCorrect.png","null"
"image-keyboard-response","242","3698340","0.0-4.0-0.74","11","High_HMMActual","248.93000000156462","","","","Images/NewTrialWC.png","37"
"image-keyboard-response","243","3698741","0.0-4.0-1.74","11","High_HMMActual","null","","","","Images/BlackBeadChoice.png","null"
"image-keyboard-response","244","3699442","0.0-4.0-2.74","11","High_HMMActual","null","","","","Images/BlackBeadChoiceCorrect.png","null"
"image-keyboard-response","245","3699668","0.0-4.0-0.75","11","High_HMMActual","224.20000000018626","","","","Images/NewTrialBC.png","39"
"image-keyboard-response","246","3700070","0.0-4.0-1.75","11","High_HMMActual","null","","","","Images/WhiteBeadChoice.png","null"
"image-keyboard-response","247","3700771","0.0-4.0-2.75","11","High_HMMActual","null","","","","Images/WhiteBeadChoiceCorrect.png","null"
"image-keyboard-response","248","3701010","0.0-4.0-0.76","11","High_HMMActual","238.0699999993667","","","","Images/NewTrialWC.png","37"
"image-keyboard-response","249","3701412","0.0-4.0-1.76","11","High_HMMActual","null","","","","Images/BlackBeadChoice.png","null"
"image-keyboard-response","250","3702113","0.0-4.0-2.76","11","High_HMMActual","null","","","","Images/BlackBeadChoiceWrong.png","null"
"image-keyboard-response","251","3702196","0.0-4.0-0.77","11","High_HMMActual","82.33499999903142","","","","Images/NewTrialWC.png","39"
"image-keyboard-response","252","3702597","0.0-4.0-1.77","11","High_HMMActual","null","","","","Images/WhiteBeadChoice.png","null"
"image-keyboard-response","253","3703298","0.0-4.0-2.77","11","High_HMMActual","null","","","","Images/WhiteBeadChoiceCorrect.png","null"
"image-keyboard-response","254","3703319","0.0-4.0-0.78","11","High_HMMActual","20.81499999994412","","","","Images/NewTrialWC.png","37"
"image-keyboard-response","255","3703721","0.0-4.0-1.78","11","High_HMMActual","null","","","","Images/BlackBeadChoice.png","null"
"image-keyboard-response","256","3704423","0.0-4.0-2.78","11","High_HMMActual","null","","","","Images/BlackBeadChoiceWrong.png","null"
"image-keyboard-response","257","3704621","0.0-4.0-0.79","11","High_HMMActual","196.84000000031665","","","","Images/NewTrialWC.png","39"
"image-keyboard-response","258","3705022","0.0-4.0-1.79","11","High_HMMActual","null","","","","Images/WhiteBeadChoice.png","null"
"image-keyboard-response","259","3705725","0.0-4.0-2.79","11","High_HMMActual","null","","","","Images/WhiteBeadChoiceCorrect.png","null"
"image-keyboard-response","260","3705905","0.0-4.0-0.80","11","High_HMMActual","179.589999999851","","","","Images/NewTrialWC.png","37"
"image-keyboard-response","261","3706306","0.0-4.0-1.80","11","High_HMMActual","null","","","","Images/BlackBeadChoice.png","null"
"image-keyboard-response","262","3707008","0.0-4.0-2.80","11","High_HMMActual","null","","","","Images/BlackBeadChoiceCorrect.png","null"
"image-keyboard-response","263","3707099","0.0-4.0-0.81","11","High_HMMActual","91.20999999856576","","","","Images/NewTrialBC.png","39"
"image-keyboard-response","264","3707502","0.0-4.0-1.81","11","High_HMMActual","null","","","","Images/WhiteBeadChoice.png","null"
"image-keyboard-response","265","3708204","0.0-4.0-2.81","11","High_HMMActual","null","","","","Images/WhiteBeadChoiceCorrect.png","null"
"image-keyboard-response","266","3708412","0.0-4.0-0.82","11","High_HMMActual","206.91500000236556","","","","Images/NewTrialWC.png","37"
"image-keyboard-response","267","3708814","0.0-4.0-1.82","11","High_HMMActual","null","","","","Images/BlackBeadChoice.png","null"
"image-keyboard-response","268","3709515","0.0-4.0-2.82","11","High_HMMActual","null","","","","Images/BlackBeadChoiceCorrect.png","null"
"image-keyboard-response","269","3709582","0.0-4.0-0.83","11","High_HMMActual","65.99999999906868","","","","Images/NewTrialBC.png","39"
"image-keyboard-response","270","3709982","0.0-4.0-1.83","11","High_HMMActual","null","","","","Images/WhiteBeadChoice.png","null"
"image-keyboard-response","271","3710684","0.0-4.0-2.83","11","High_HMMActual","null","","","","Images/WhiteBeadChoiceWrong.png","null"
"image-keyboard-response","272","3710851","0.0-4.0-0.84","11","High_HMMActual","166.7550000017509","","","","Images/NewTrialBC.png","37"
"image-keyboard-response","273","3711253","0.0-4.0-1.84","11","High_HMMActual","null","","","","Images/BlackBeadChoice.png","null"
"image-keyboard-response","274","3711953","0.0-4.0-2.84","11","High_HMMActual","null","","","","Images/BlackBeadChoiceWrong.png","null"
"image-keyboard-response","275","3712117","0.0-4.0-0.85","11","High_HMMActual","163.46999999973923","","","","Images/NewTrialWC.png","39"
"image-keyboard-response","276","3712519","0.0-4.0-1.85","11","High_HMMActual","null","","","","Images/WhiteBeadChoice.png","null"
"image-keyboard-response","277","3713219","0.0-4.0-2.85","11","High_HMMActual","null","","","","Images/WhiteBeadChoiceCorrect.png","null"
"image-keyboard-response","278","3713376","0.0-4.0-0.86","11","High_HMMActual","155.9049999997951","","","","Images/NewTrialWC.png","37"
"image-keyboard-response","279","3713777","0.0-4.0-1.86","11","High_HMMActual","null","","","","Images/BlackBeadChoice.png","null"
"image-keyboard-response","280","3714478","0.0-4.0-2.86","11","High_HMMActual","null","","","","Images/BlackBeadChoiceCorrect.png","null"
"image-keyboard-response","281","3714531","0.0-4.0-0.87","11","High_HMMActual","52.56999999983236","","","","Images/NewTrialBC.png","39"
"image-keyboard-response","282","3714933","0.0-4.0-1.87","11","High_HMMActual","null","","","","Images/WhiteBeadChoice.png","null"
"image-keyboard-response","283","3715635","0.0-4.0-2.87","11","High_HMMActual","null","","","","Images/WhiteBeadChoiceCorrect.png","null"
"image-keyboard-response","284","3715812","0.0-4.0-0.88","11","High_HMMActual","177.00499999755993","","","","Images/NewTrialWC.png","37"
"image-keyboard-response","285","3716213","0.0-4.0-1.88","11","High_HMMActual","null","","","","Images/BlackBeadChoice.png","null"
"image-keyboard-response","286","3716914","0.0-4.0-2.88","11","High_HMMActual","null","","","","Images/BlackBeadChoiceCorrect.png","null"
"image-keyboard-response","287","3717009","0.0-4.0-0.89","11","High_HMMActual","94.44499999890104","","","","Images/NewTrialBC.png","39"
"image-keyboard-response","288","3717410","0.0-4.0-1.89","11","High_HMMActual","null","","","","Images/WhiteBeadChoice.png","null"
"image-keyboard-response","289","3718111","0.0-4.0-2.89","11","High_HMMActual","699.8899999996647","","","","Images/WhiteBeadChoiceCorrect.png","37"
"image-keyboard-response","290","3718583","0.0-4.0-0.90","11","High_HMMActual","470.8549999995157","","","","Images/NewTrialWC.png","37"
"image-keyboard-response","291","3718983","0.0-4.0-1.90","11","High_HMMActual","null","","","","Images/BlackBeadChoice.png","null"
"image-keyboard-response","292","3719685","0.0-4.0-2.90","11","High_HMMActual","null","","","","Images/BlackBeadChoiceCorrect.png","null"
"image-keyboard-response","293","3719941","0.0-4.0-0.91","11","High_HMMActual","255.50999999884516","","","","Images/NewTrialBC.png","39"
"image-keyboard-response","294","3720343","0.0-4.0-1.91","11","High_HMMActual","null","","","","Images/WhiteBeadChoice.png","null"
"image-keyboard-response","295","3721045","0.0-4.0-2.91","11","High_HMMActual","null","","","","Images/WhiteBeadChoiceCorrect.png","null"
"image-keyboard-response","296","3721157","0.0-4.0-0.92","11","High_HMMActual","111.18999999994412","","","","Images/NewTrialWC.png","37"
"image-keyboard-response","297","3721558","0.0-4.0-1.92","11","High_HMMActual","null","","","","Images/BlackBeadChoice.png","null"
"image-keyboard-response","298","3722260","0.0-4.0-2.92","11","High_HMMActual","null","","","","Images/BlackBeadChoiceCorrect.png","null"
"image-keyboard-response","299","3722450","0.0-4.0-0.93","11","High_HMMActual","189.38999999919906","","","","Images/NewTrialBC.png","39"
"image-keyboard-response","300","3722850","0.0-4.0-1.93","11","High_HMMActual","null","","","","Images/WhiteBeadChoice.png","null"
"image-keyboard-response","301","3723552","0.0-4.0-2.93","11","High_HMMActual","null","","","","Images/WhiteBeadChoiceCorrect.png","null"
"image-keyboard-response","302","3723784","0.0-4.0-0.94","11","High_HMMActual","230.95499999914318","","","","Images/NewTrialWC.png","37"
"image-keyboard-response","303","3724186","0.0-4.0-1.94","11","High_HMMActual","null","","","","Images/BlackBeadChoice.png","null"
"image-keyboard-response","304","3724888","0.0-4.0-2.94","11","High_HMMActual","null","","","","Images/BlackBeadChoiceCorrect.png","null"
"image-keyboard-response","305","3725135","0.0-4.0-0.95","11","High_HMMActual","246.32999999821186","","","","Images/NewTrialBC.png","39"
"image-keyboard-response","306","3725538","0.0-4.0-1.95","11","High_HMMActual","null","","","","Images/WhiteBeadChoice.png","null"
"image-keyboard-response","307","3726239","0.0-4.0-2.95","11","High_HMMActual","null","","","","Images/WhiteBeadChoiceCorrect.png","null"
"image-keyboard-response","308","3726522","0.0-4.0-0.96","11","High_HMMActual","282.13999999919906","","","","Images/NewTrialWC.png","37"
"image-keyboard-response","309","3726924","0.0-4.0-1.96","11","High_HMMActual","null","","","","Images/BlackBeadChoice.png","null"
"image-keyboard-response","310","3727627","0.0-4.0-2.96","11","High_HMMActual","null","","","","Images/BlackBeadChoiceCorrect.png","null"
"image-keyboard-response","311","3727727","0.0-4.0-0.97","11","High_HMMActual","99.40500000072643","","","","Images/NewTrialBC.png","39"
"image-keyboard-response","312","3728128","0.0-4.0-1.97","11","High_HMMActual","null","","","","Images/WhiteBeadChoice.png","null"
"image-keyboard-response","313","3728829","0.0-4.0-2.97","11","High_HMMActual","null","","","","Images/WhiteBeadChoiceCorrect.png","null"
"image-keyboard-response","314","3729043","0.0-4.0-0.98","11","High_HMMActual","213.18500000052154","","","","Images/NewTrialWC.png","37"
"image-keyboard-response","315","3729445","0.0-4.0-1.98","11","High_HMMActual","null","","","","Images/BlackBeadChoice.png","null"
"image-keyboard-response","316","3730146","0.0-4.0-2.98","11","High_HMMActual","null","","","","Images/BlackBeadChoiceWrong.png","null"
"image-keyboard-response","317","3730413","0.0-4.0-0.99","11","High_HMMActual","265.99500000150874","","","","Images/NewTrialWC.png","39"
"image-keyboard-response","318","3730815","0.0-4.0-1.99","11","High_HMMActual","null","","","","Images/WhiteBeadChoice.png","null"
"image-keyboard-response","319","3731516","0.0-4.0-2.99","11","High_HMMActual","null","","","","Images/WhiteBeadChoiceCorrect.png","null"
"image-keyboard-response","320","3731703","0.0-4.0-0.100","11","High_HMMActual","185.75000000046566","","","","Images/NewTrialWC.png","37"
"image-keyboard-response","321","3732104","0.0-4.0-1.100","11","High_HMMActual","null","","","","Images/BlackBeadChoice.png","null"
"image-keyboard-response","322","3732804","0.0-4.0-2.100","11","High_HMMActual","null","","","","Images/BlackBeadChoiceCorrect.png","null"
"image-keyboard-response","323","3733019","0.0-4.0-0.101","11","High_HMMActual","213.70000000018626","","","","Images/NewTrialBC.png","39"
"image-keyboard-response","324","3733421","0.0-4.0-1.101","11","High_HMMActual","null","","","","Images/WhiteBeadChoice.png","null"
"image-keyboard-response","325","3734122","0.0-4.0-2.101","11","High_HMMActual","null","","","","Images/WhiteBeadChoiceCorrect.png","null"
"image-keyboard-response","326","3734313","0.0-4.0-0.102","11","High_HMMActual","190.5100000007078","","","","Images/NewTrialWC.png","37"
"image-keyboard-response","327","3734715","0.0-4.0-1.102","11","High_HMMActual","null","","","","Images/BlackBeadChoice.png","null"
"image-keyboard-response","328","3735416","0.0-4.0-2.102","11","High_HMMActual","null","","","","Images/BlackBeadChoiceWrong.png","null"
"image-keyboard-response","329","3735678","0.0-4.0-0.103","11","High_HMMActual","261.144999996759","","","","Images/NewTrialWC.png","39"
"image-keyboard-response","330","3736080","0.0-4.0-1.103","11","High_HMMActual","null","","","","Images/WhiteBeadChoice.png","null"
"image-keyboard-response","331","3736782","0.0-4.0-2.103","11","High_HMMActual","null","","","","Images/WhiteBeadChoiceWrong.png","null"
"image-keyboard-response","332","3737086","0.0-4.0-0.104","11","High_HMMActual","304.1349999983795","","","","Images/NewTrialBC.png","37"
"image-keyboard-response","333","3737488","0.0-4.0-1.104","11","High_HMMActual","null","","","","Images/BlackBeadChoice.png","null"
"image-keyboard-response","334","3738188","0.0-4.0-2.104","11","High_HMMActual","null","","","","Images/BlackBeadChoiceCorrect.png","null"
"image-keyboard-response","335","3738533","0.0-4.0-0.105","11","High_HMMActual","344.42999999737367","","","","Images/NewTrialBC.png","39"
"image-keyboard-response","336","3738936","0.0-4.0-1.105","11","High_HMMActual","null","","","","Images/WhiteBeadChoice.png","null"
"image-keyboard-response","337","3739636","0.0-4.0-2.105","11","High_HMMActual","null","","","","Images/WhiteBeadChoiceCorrect.png","null"
"image-keyboard-response","338","3739907","0.0-4.0-0.106","11","High_HMMActual","269.43999999621883","","","","Images/NewTrialWC.png","37"
"image-keyboard-response","339","3740308","0.0-4.0-1.106","11","High_HMMActual","null","","","","Images/BlackBeadChoice.png","null"
"image-keyboard-response","340","3741009","0.0-4.0-2.106","11","High_HMMActual","null","","","","Images/BlackBeadChoiceCorrect.png","null"
"image-keyboard-response","341","3741305","0.0-4.0-0.107","11","High_HMMActual","294.84499999694526","","","","Images/NewTrialBC.png","39"
"image-keyboard-response","342","3741706","0.0-4.0-1.107","11","High_HMMActual","null","","","","Images/WhiteBeadChoice.png","null"
"image-keyboard-response","343","3742408","0.0-4.0-2.107","11","High_HMMActual","null","","","","Images/WhiteBeadChoiceCorrect.png","null"
"image-keyboard-response","344","3742676","0.0-4.0-0.108","11","High_HMMActual","267.58499999763444","","","","Images/NewTrialWC.png","37"
"image-keyboard-response","345","3743078","0.0-4.0-1.108","11","High_HMMActual","null","","","","Images/BlackBeadChoice.png","null"
"image-keyboard-response","346","3743778","0.0-4.0-2.108","11","High_HMMActual","null","","","","Images/BlackBeadChoiceCorrect.png","null"
"image-keyboard-response","347","3744024","0.0-4.0-0.109","11","High_HMMActual","245.22000000067055","","","","Images/NewTrialBC.png","39"
"image-keyboard-response","348","3744425","0.0-4.0-1.109","11","High_HMMActual","null","","","","Images/WhiteBeadChoice.png","null"
"image-keyboard-response","349","3745127","0.0-4.0-2.109","11","High_HMMActual","null","","","","Images/WhiteBeadChoiceCorrect.png","null"
"image-keyboard-response","350","3745413","0.0-4.0-0.110","11","High_HMMActual","286.2549999989569","","","","Images/NewTrialWC.png","37"
"image-keyboard-response","351","3745814","0.0-4.0-1.110","11","High_HMMActual","null","","","","Images/BlackBeadChoice.png","null"
"image-keyboard-response","352","3746516","0.0-4.0-2.110","11","High_HMMActual","null","","","","Images/BlackBeadChoiceCorrect.png","null"
"image-keyboard-response","353","3746776","0.0-4.0-0.111","11","High_HMMActual","259.5749999997206","","","","Images/NewTrialBC.png","39"
"image-keyboard-response","354","3747178","0.0-4.0-1.111","11","High_HMMActual","null","","","","Images/WhiteBeadChoice.png","null"
"image-keyboard-response","355","3747880","0.0-4.0-2.111","11","High_HMMActual","null","","","","Images/WhiteBeadChoiceCorrect.png","null"
"image-keyboard-response","356","3748137","0.0-4.0-0.112","11","High_HMMActual","256.62000000011176","","","","Images/NewTrialWC.png","37"
"image-keyboard-response","357","3748538","0.0-4.0-1.112","11","High_HMMActual","null","","","","Images/BlackBeadChoice.png","null"
"image-keyboard-response","358","3749240","0.0-4.0-2.112","11","High_HMMActual","null","","","","Images/BlackBeadChoiceWrong.png","null"
"image-keyboard-response","359","3749362","0.0-4.0-0.113","11","High_HMMActual","121.33999999752268","","","","Images/NewTrialWC.png","39"
"image-keyboard-response","360","3749764","0.0-4.0-1.113","11","High_HMMActual","null","","","","Images/WhiteBeadChoice.png","null"
"image-keyboard-response","361","3750466","0.0-4.0-2.113","11","High_HMMActual","null","","","","Images/WhiteBeadChoiceCorrect.png","null"
"image-keyboard-response","362","3750752","0.0-4.0-0.114","11","High_HMMActual","285.2600000007078","","","","Images/NewTrialWC.png","37"
"image-keyboard-response","363","3751154","0.0-4.0-1.114","11","High_HMMActual","null","","","","Images/BlackBeadChoice.png","null"
"image-keyboard-response","364","3751856","0.0-4.0-2.114","11","High_HMMActual","null","","","","Images/BlackBeadChoiceCorrect.png","null"
"image-keyboard-response","365","3752063","0.0-4.0-0.115","11","High_HMMActual","207.04000000096858","","","","Images/NewTrialBC.png","39"
"image-keyboard-response","366","3752464","0.0-4.0-1.115","11","High_HMMActual","null","","","","Images/WhiteBeadChoice.png","null"
"image-keyboard-response","367","3753166","0.0-4.0-2.115","11","High_HMMActual","null","","","","Images/WhiteBeadChoiceCorrect.png","null"
"image-keyboard-response","368","3753494","0.0-4.0-0.116","11","High_HMMActual","327.21999999927357","","","","Images/NewTrialWC.png","37"
"image-keyboard-response","369","3753895","0.0-4.0-1.116","11","High_HMMActual","null","","","","Images/BlackBeadChoice.png","null"
"image-keyboard-response","370","3754596","0.0-4.0-2.116","11","High_HMMActual","null","","","","Images/BlackBeadChoiceCorrect.png","null"
"image-keyboard-response","371","3754930","0.0-4.0-0.117","11","High_HMMActual","333.1499999985099","","","","Images/NewTrialBC.png","39"
"image-keyboard-response","372","3755332","0.0-4.0-1.117","11","High_HMMActual","null","","","","Images/WhiteBeadChoice.png","null"
"image-keyboard-response","373","3756035","0.0-4.0-2.117","11","High_HMMActual","null","","","","Images/WhiteBeadChoiceCorrect.png","null"
"image-keyboard-response","374","3756360","0.0-4.0-0.118","11","High_HMMActual","325.15000000037253","","","","Images/NewTrialWC.png","37"
"image-keyboard-response","375","3756762","0.0-4.0-1.118","11","High_HMMActual","null","","","","Images/BlackBeadChoice.png","null"
"image-keyboard-response","376","3757463","0.0-4.0-2.118","11","High_HMMActual","null","","","","Images/BlackBeadChoiceWrong.png","null"
"image-keyboard-response","377","3757779","0.0-4.0-0.119","11","High_HMMActual","315.18500000284985","","","","Images/NewTrialWC.png","39"
"image-keyboard-response","378","3758181","0.0-4.0-1.119","11","High_HMMActual","null","","","","Images/WhiteBeadChoice.png","null"
"image-keyboard-response","379","3758883","0.0-4.0-2.119","11","High_HMMActual","null","","","","Images/WhiteBeadChoiceCorrect.png","null"
"image-keyboard-response","380","3759190","0.0-4.0-0.120","11","High_HMMActual","306.4349999986589","","","","Images/NewTrialWC.png","37"
"image-keyboard-response","381","3759591","0.0-4.0-1.120","11","High_HMMActual","null","","","","Images/BlackBeadChoice.png","null"
"image-keyboard-response","382","3760292","0.0-4.0-2.120","11","High_HMMActual","null","","","","Images/BlackBeadChoiceWrong.png","null"
"image-keyboard-response","383","3760458","0.0-4.0-0.121","11","High_HMMActual","165.3500000028871","","","","Images/NewTrialWC.png","39"
"image-keyboard-response","384","3760859","0.0-4.0-1.121","11","High_HMMActual","null","","","","Images/WhiteBeadChoice.png","null"
"image-keyboard-response","385","3761559","0.0-4.0-2.121","11","High_HMMActual","null","","","","Images/WhiteBeadChoiceWrong.png","null"
"image-keyboard-response","386","3761899","0.0-4.0-0.122","11","High_HMMActual","339.3149999976158","","","","Images/NewTrialBC.png","37"
"image-keyboard-response","387","3762300","0.0-4.0-1.122","11","High_HMMActual","null","","","","Images/BlackBeadChoice.png","null"
"image-keyboard-response","388","3763002","0.0-4.0-2.122","11","High_HMMActual","null","","","","Images/BlackBeadChoiceCorrect.png","null"
"image-keyboard-response","389","3763314","0.0-4.0-0.123","11","High_HMMActual","310.5150000010617","","","","Images/NewTrialBC.png","39"
"image-keyboard-response","390","3763715","0.0-4.0-1.123","11","High_HMMActual","null","","","","Images/WhiteBeadChoice.png","null"
"image-keyboard-response","391","3764417","0.0-4.0-2.123","11","High_HMMActual","null","","","","Images/WhiteBeadChoiceCorrect.png","null"
"image-keyboard-response","392","3764722","0.0-4.0-0.124","11","High_HMMActual","304.5149999996647","","","","Images/NewTrialWC.png","37"
"image-keyboard-response","393","3765124","0.0-4.0-1.124","11","High_HMMActual","null","","","","Images/BlackBeadChoice.png","null"
"image-keyboard-response","394","3765826","0.0-4.0-2.124","11","High_HMMActual","null","","","","Images/BlackBeadChoiceCorrect.png","null"
"image-keyboard-response","395","3785890","0.0-4.0-0.125","11","High_HMMActual","20064.06000000052","","","","Images/NewTrialBC.png","39"
"image-keyboard-response","396","3786292","0.0-4.0-1.125","11","High_HMMActual","null","","","","Images/WhiteBeadChoice.png","null"
"image-keyboard-response","397","3786993","0.0-4.0-2.125","11","High_HMMActual","null","","","","Images/WhiteBeadChoiceCorrect.png","null"
"image-keyboard-response","398","3787092","0.0-4.0-0.126","11","High_HMMActual","97.98000000230968","","","","Images/NewTrialWC.png","37"
"image-keyboard-response","399","3787493","0.0-4.0-1.126","11","High_HMMActual","null","","","","Images/BlackBeadChoice.png","null"
"image-keyboard-response","400","3788194","0.0-4.0-2.126","11","High_HMMActual","null","","","","Images/BlackBeadChoiceWrong.png","null"
"image-keyboard-response","401","3788387","0.0-4.0-0.127","11","High_HMMActual","192.20499999914318","","","","Images/NewTrialWC.png","39"
"image-keyboard-response","402","3788789","0.0-4.0-1.127","11","High_HMMActual","null","","","","Images/WhiteBeadChoice.png","null"
"image-keyboard-response","403","3789492","0.0-4.0-2.127","11","High_HMMActual","null","","","","Images/WhiteBeadChoiceCorrect.png","null"
"image-keyboard-response","404","3789728","0.0-4.0-0.128","11","High_HMMActual","235.81499999994412","","","","Images/NewTrialWC.png","37"
"image-keyboard-response","405","3790130","0.0-4.0-1.128","11","High_HMMActual","null","","","","Images/BlackBeadChoice.png","null"
"image-keyboard-response","406","3790831","0.0-4.0-2.128","11","High_HMMActual","null","","","","Images/BlackBeadChoiceCorrect.png","null"
"image-keyboard-response","407","3790985","0.0-4.0-0.129","11","High_HMMActual","153.72000000206754","","","","Images/NewTrialBC.png","39"
"image-keyboard-response","408","3791387","0.0-4.0-1.129","11","High_HMMActual","null","","","","Images/WhiteBeadChoice.png","null"
"image-keyboard-response","409","3792088","0.0-4.0-2.129","11","High_HMMActual","null","","","","Images/WhiteBeadChoiceCorrect.png","null"
"image-keyboard-response","410","3792333","0.0-4.0-0.130","11","High_HMMActual","244.75499999942258","","","","Images/NewTrialWC.png","37"
"image-keyboard-response","411","3792735","0.0-4.0-1.130","11","High_HMMActual","null","","","","Images/BlackBeadChoice.png","null"
"image-keyboard-response","412","3793436","0.0-4.0-2.130","11","High_HMMActual","null","","","","Images/BlackBeadChoiceWrong.png","null"
"image-keyboard-response","413","3793755","0.0-4.0-0.131","11","High_HMMActual","318.4199999999255","","","","Images/NewTrialWC.png","39"
"image-keyboard-response","414","3794156","0.0-4.0-1.131","11","High_HMMActual","null","","","","Images/WhiteBeadChoice.png","null"
"image-keyboard-response","415","3794857","0.0-4.0-2.131","11","High_HMMActual","null","","","","Images/WhiteBeadChoiceCorrect.png","null"
"image-keyboard-response","416","3795042","0.0-4.0-0.132","11","High_HMMActual","184.3850000007078","","","","Images/NewTrialWC.png","37"
"image-keyboard-response","417","3795444","0.0-4.0-1.132","11","High_HMMActual","null","","","","Images/BlackBeadChoice.png","null"
"image-keyboard-response","418","3796144","0.0-4.0-2.132","11","High_HMMActual","null","","","","Images/BlackBeadChoiceWrong.png","null"
"image-keyboard-response","419","3796411","0.0-4.0-0.133","11","High_HMMActual","266.26000000024214","","","","Images/NewTrialWC.png","39"
"image-keyboard-response","420","3796813","0.0-4.0-1.133","11","High_HMMActual","null","","","","Images/WhiteBeadChoice.png","null"
"image-keyboard-response","421","3797514","0.0-4.0-2.133","11","High_HMMActual","null","","","","Images/WhiteBeadChoiceCorrect.png","null"
"image-keyboard-response","422","3797816","0.0-4.0-0.134","11","High_HMMActual","300.91500000003725","","","","Images/NewTrialWC.png","37"
"image-keyboard-response","423","3798217","0.0-4.0-1.134","11","High_HMMActual","null","","","","Images/BlackBeadChoice.png","null"
"image-keyboard-response","424","3798920","0.0-4.0-2.134","11","High_HMMActual","null","","","","Images/BlackBeadChoiceCorrect.png","null"
"image-keyboard-response","425","3799177","0.0-4.0-0.135","11","High_HMMActual","257.1849999986589","","","","Images/NewTrialBC.png","39"
"image-keyboard-response","426","3799578","0.0-4.0-1.135","11","High_HMMActual","null","","","","Images/WhiteBeadChoice.png","null"
"image-keyboard-response","427","3800280","0.0-4.0-2.135","11","High_HMMActual","null","","","","Images/WhiteBeadChoiceWrong.png","null"
"image-keyboard-response","428","3800526","0.0-4.0-0.136","11","High_HMMActual","245.1999999973923","","","","Images/NewTrialBC.png","37"
"image-keyboard-response","429","3800927","0.0-4.0-1.136","11","High_HMMActual","null","","","","Images/BlackBeadChoice.png","null"
"image-keyboard-response","430","3801628","0.0-4.0-2.136","11","High_HMMActual","null","","","","Images/BlackBeadChoiceWrong.png","null"
"image-keyboard-response","431","3801727","0.0-4.0-0.137","11","High_HMMActual","98.06500000180677","","","","Images/NewTrialWC.png","39"
"image-keyboard-response","432","3802130","0.0-4.0-1.137","11","High_HMMActual","null","","","","Images/WhiteBeadChoice.png","null"
"image-keyboard-response","433","3802831","0.0-4.0-2.137","11","High_HMMActual","null","","","","Images/WhiteBeadChoiceCorrect.png","null"
"image-keyboard-response","434","3803017","0.0-4.0-0.138","11","High_HMMActual","185.5749999997206","","","","Images/NewTrialWC.png","37"
"image-keyboard-response","435","3803418","0.0-4.0-1.138","11","High_HMMActual","null","","","","Images/BlackBeadChoice.png","null"
"image-keyboard-response","436","3804120","0.0-4.0-2.138","11","High_HMMActual","null","","","","Images/BlackBeadChoiceCorrect.png","null"
"image-keyboard-response","437","3804226","0.0-4.0-0.139","11","High_HMMActual","105.35499999951571","","","","Images/NewTrialBC.png","39"
"image-keyboard-response","438","3804626","0.0-4.0-1.139","11","High_HMMActual","null","","","","Images/WhiteBeadChoice.png","null"
"image-keyboard-response","439","3805328","0.0-4.0-2.139","11","High_HMMActual","null","","","","Images/WhiteBeadChoiceCorrect.png","null"
"image-keyboard-response","440","3805563","0.0-4.0-0.140","11","High_HMMActual","234.05999999912456","","","","Images/NewTrialWC.png","37"
"image-keyboard-response","441","3805965","0.0-4.0-1.140","11","High_HMMActual","null","","","","Images/BlackBeadChoice.png","null"
"image-keyboard-response","442","3806666","0.0-4.0-2.140","11","High_HMMActual","null","","","","Images/BlackBeadChoiceCorrect.png","null"
"image-keyboard-response","443","3809869","0.0-4.0-0.141","11","High_HMMActual","3202.2300000023097","","","","Images/NewTrialBC.png","39"
"image-keyboard-response","444","3810271","0.0-4.0-1.141","11","High_HMMActual","null","","","","Images/WhiteBeadChoice.png","null"
"image-keyboard-response","445","3810973","0.0-4.0-2.141","11","High_HMMActual","null","","","","Images/WhiteBeadChoiceCorrect.png","null"
"image-keyboard-response","446","3811052","0.0-4.0-0.142","11","High_HMMActual","78.16000000061467","","","","Images/NewTrialWC.png","37"
"image-keyboard-response","447","3811453","0.0-4.0-1.142","11","High_HMMActual","null","","","","Images/BlackBeadChoice.png","null"
"image-keyboard-response","448","3812154","0.0-4.0-2.142","11","High_HMMActual","null","","","","Images/BlackBeadChoiceCorrect.png","null"
"image-keyboard-response","449","3812377","0.0-4.0-0.143","11","High_HMMActual","221.99500000011176","","","","Images/NewTrialBC.png","39"
"image-keyboard-response","450","3812779","0.0-4.0-1.143","11","High_HMMActual","null","","","","Images/WhiteBeadChoice.png","null"
"image-keyboard-response","451","3813481","0.0-4.0-2.143","11","High_HMMActual","null","","","","Images/WhiteBeadChoiceCorrect.png","null"
"image-keyboard-response","452","3813634","0.0-4.0-0.144","11","High_HMMActual","152.11999999871477","","","","Images/NewTrialWC.png","37"
"image-keyboard-response","453","3814035","0.0-4.0-1.144","11","High_HMMActual","null","","","","Images/BlackBeadChoice.png","null"
"image-keyboard-response","454","3814735","0.0-4.0-2.144","11","High_HMMActual","680.7750000008382","","","","Images/BlackBeadChoiceCorrect.png","39"
"image-keyboard-response","455","3815595","0.0-4.0-0.145","11","High_HMMActual","859.1550000016578","","","","Images/NewTrialBC.png","39"
"image-keyboard-response","456","3815998","0.0-4.0-1.145","11","High_HMMActual","null","","","","Images/WhiteBeadChoice.png","null"
"image-keyboard-response","457","3816700","0.0-4.0-2.145","11","High_HMMActual","null","","","","Images/WhiteBeadChoiceCorrect.png","null"
"image-keyboard-response","458","3816896","0.0-4.0-0.146","11","High_HMMActual","194.90999999828637","","","","Images/NewTrialWC.png","37"
"image-keyboard-response","459","3817298","0.0-4.0-1.146","11","High_HMMActual","null","","","","Images/BlackBeadChoice.png","null"
"image-keyboard-response","460","3817999","0.0-4.0-2.146","11","High_HMMActual","null","","","","Images/BlackBeadChoiceWrong.png","null"
"image-keyboard-response","461","3818205","0.0-4.0-0.147","11","High_HMMActual","204.98999999836087","","","","Images/NewTrialWC.png","39"
"image-keyboard-response","462","3818606","0.0-4.0-1.147","11","High_HMMActual","null","","","","Images/WhiteBeadChoice.png","null"
"image-keyboard-response","463","3819307","0.0-4.0-2.147","11","High_HMMActual","null","","","","Images/WhiteBeadChoiceWrong.png","null"
"image-keyboard-response","464","3819397","0.0-4.0-0.148","11","High_HMMActual","89.68000000109896","","","","Images/NewTrialBC.png","37"
"image-keyboard-response","465","3819799","0.0-4.0-1.148","11","High_HMMActual","null","","","","Images/BlackBeadChoice.png","null"
"image-keyboard-response","466","3820500","0.0-4.0-2.148","11","High_HMMActual","null","","","","Images/BlackBeadChoiceWrong.png","null"
"image-keyboard-response","467","3820575","0.0-4.0-0.149","11","High_HMMActual","75.09999999823049","","","","Images/NewTrialWC.png","39"
"image-keyboard-response","468","3820977","0.0-4.0-1.149","11","High_HMMActual","null","","","","Images/WhiteBeadChoice.png","null"
"image-keyboard-response","469","3821679","0.0-4.0-2.149","11","High_HMMActual","null","","","","Images/WhiteBeadChoiceWrong.png","null"
"image-keyboard-response","470","3822016","0.0-4.0-0.150","11","High_HMMActual","336.6349999993108","","","","Images/NewTrialBC.png","39"
"image-keyboard-response","471","3822417","0.0-4.0-1.150","11","High_HMMActual","null","","","","Images/WhiteBeadChoice.png","null"
"image-keyboard-response","472","3823119","0.0-4.0-2.150","11","High_HMMActual","null","","","","Images/WhiteBeadChoiceCorrect.png","null"
"image-keyboard-response","473","3823224","0.0-4.0-0.151","11","High_HMMActual","104.05499999970198","","","","Images/NewTrialWC.png","37"
"image-keyboard-response","474","3823624","0.0-4.0-1.151","11","High_HMMActual","null","","","","Images/BlackBeadChoice.png","null"
"image-keyboard-response","475","3824326","0.0-4.0-2.151","11","High_HMMActual","null","","","","Images/BlackBeadChoiceWrong.png","null"
"image-keyboard-response","476","3824548","0.0-4.0-0.152","11","High_HMMActual","221.15999999735504","","","","Images/NewTrialWC.png","39"
"image-keyboard-response","477","3824949","0.0-4.0-1.152","11","High_HMMActual","null","","","","Images/WhiteBeadChoice.png","null"
"image-keyboard-response","478","3825650","0.0-4.0-2.152","11","High_HMMActual","null","","","","Images/WhiteBeadChoiceCorrect.png","null"
"image-keyboard-response","479","3825777","0.0-4.0-0.153","11","High_HMMActual","124.66500000329688","","","","Images/NewTrialWC.png","37"
"image-keyboard-response","480","3826178","0.0-4.0-1.153","11","High_HMMActual","null","","","","Images/BlackBeadChoice.png","null"
"image-keyboard-response","481","3826878","0.0-4.0-2.153","11","High_HMMActual","null","","","","Images/BlackBeadChoiceWrong.png","null"
"image-keyboard-response","482","3827097","0.0-4.0-0.154","11","High_HMMActual","218.14000000059605","","","","Images/NewTrialWC.png","39"
"image-keyboard-response","483","3827499","0.0-4.0-1.154","11","High_HMMActual","null","","","","Images/WhiteBeadChoice.png","null"
"image-keyboard-response","484","3828202","0.0-4.0-2.154","11","High_HMMActual","null","","","","Images/WhiteBeadChoiceWrong.png","null"
"image-keyboard-response","485","3828477","0.0-4.0-0.155","11","High_HMMActual","274.9199999999255","","","","Images/NewTrialBC.png","37"
"image-keyboard-response","486","3828878","0.0-4.0-1.155","11","High_HMMActual","null","","","","Images/BlackBeadChoice.png","null"
"image-keyboard-response","487","3829580","0.0-4.0-2.155","11","High_HMMActual","null","","","","Images/BlackBeadChoiceCorrect.png","null"
"image-keyboard-response","488","3829828","0.0-4.0-0.156","11","High_HMMActual","247.60000000242144","","","","Images/NewTrialBC.png","39"
"image-keyboard-response","489","3830229","0.0-4.0-1.156","11","High_HMMActual","null","","","","Images/WhiteBeadChoice.png","null"
"image-keyboard-response","490","3830931","0.0-4.0-2.156","11","High_HMMActual","null","","","","Images/WhiteBeadChoiceWrong.png","null"
"image-keyboard-response","491","3831235","0.0-4.0-0.157","11","High_HMMActual","303.76499999687076","","","","Images/NewTrialBC.png","37"
"image-keyboard-response","492","3831636","0.0-4.0-1.157","11","High_HMMActual","null","","","","Images/BlackBeadChoice.png","null"
"image-keyboard-response","493","3832338","0.0-4.0-2.157","11","High_HMMActual","null","","","","Images/BlackBeadChoiceWrong.png","null"
"image-keyboard-response","494","3833054","0.0-4.0-0.158","11","High_HMMActual","714.8799999998882","","","","Images/NewTrialWC.png","37"
"image-keyboard-response","495","3833456","0.0-4.0-1.158","11","High_HMMActual","null","","","","Images/BlackBeadChoice.png","null"
"image-keyboard-response","496","3834156","0.0-4.0-2.158","11","High_HMMActual","null","","","","Images/BlackBeadChoiceCorrect.png","null"
"image-keyboard-response","497","3834377","0.0-4.0-0.159","11","High_HMMActual","219.57000000076368","","","","Images/NewTrialBC.png","39"
"image-keyboard-response","498","3834779","0.0-4.0-1.159","11","High_HMMActual","null","","","","Images/WhiteBeadChoice.png","null"
"image-keyboard-response","499","3835480","0.0-4.0-2.159","11","High_HMMActual","null","","","","Images/WhiteBeadChoiceCorrect.png","null"
"image-keyboard-response","500","3835767","0.0-4.0-0.160","11","High_HMMActual","286.2649999987334","","","","Images/NewTrialWC.png","37"
"image-keyboard-response","501","3836168","0.0-4.0-1.160","11","High_HMMActual","null","","","","Images/BlackBeadChoice.png","null"
"image-keyboard-response","502","3836869","0.0-4.0-2.160","11","High_HMMActual","null","","","","Images/BlackBeadChoiceCorrect.png","null"
"image-keyboard-response","503","3837140","0.0-4.0-0.161","11","High_HMMActual","269.9250000002794","","","","Images/NewTrialBC.png","39"
"image-keyboard-response","504","3837541","0.0-4.0-1.161","11","High_HMMActual","null","","","","Images/WhiteBeadChoice.png","null"
"image-keyboard-response","505","3838242","0.0-4.0-2.161","11","High_HMMActual","null","","","","Images/WhiteBeadChoiceCorrect.png","null"
"image-keyboard-response","506","3838475","0.0-4.0-0.162","11","High_HMMActual","230.90000000223517","","","","Images/NewTrialWC.png","37"
"image-keyboard-response","507","3838876","0.0-4.0-1.162","11","High_HMMActual","null","","","","Images/BlackBeadChoice.png","null"
"image-keyboard-response","508","3839576","0.0-4.0-2.162","11","High_HMMActual","null","","","","Images/BlackBeadChoiceCorrect.png","null"
"image-keyboard-response","509","3839864","0.0-4.0-0.163","11","High_HMMActual","286.6650000028312","","","","Images/NewTrialBC.png","39"
"image-keyboard-response","510","3840266","0.0-4.0-1.163","11","High_HMMActual","null","","","","Images/WhiteBeadChoice.png","null"
"image-keyboard-response","511","3840968","0.0-4.0-2.163","11","High_HMMActual","null","","","","Images/WhiteBeadChoiceCorrect.png","null"
"image-keyboard-response","512","3841260","0.0-4.0-0.164","11","High_HMMActual","291.0150000024587","","","","Images/NewTrialWC.png","37"
"image-keyboard-response","513","3841662","0.0-4.0-1.164","11","High_HMMActual","null","","","","Images/BlackBeadChoice.png","null"
"image-keyboard-response","514","3842363","0.0-4.0-2.164","11","High_HMMActual","null","","","","Images/BlackBeadChoiceCorrect.png","null"
"image-keyboard-response","515","3842658","0.0-4.0-0.165","11","High_HMMActual","294.02499999897555","","","","Images/NewTrialBC.png","39"
"image-keyboard-response","516","3843060","0.0-4.0-1.165","11","High_HMMActual","null","","","","Images/WhiteBeadChoice.png","null"
"image-keyboard-response","517","3843762","0.0-4.0-2.165","11","High_HMMActual","null","","","","Images/WhiteBeadChoiceCorrect.png","null"
"image-keyboard-response","518","3843975","0.0-4.0-0.166","11","High_HMMActual","212.38500000257045","","","","Images/NewTrialWC.png","37"
"image-keyboard-response","519","3844377","0.0-4.0-1.166","11","High_HMMActual","null","","","","Images/BlackBeadChoice.png","null"
"image-keyboard-response","520","3845078","0.0-4.0-2.166","11","High_HMMActual","null","","","","Images/BlackBeadChoiceCorrect.png","null"
"image-keyboard-response","521","3845373","0.0-4.0-0.167","11","High_HMMActual","294.034999998752","","","","Images/NewTrialBC.png","39"
"image-keyboard-response","522","3845774","0.0-4.0-1.167","11","High_HMMActual","null","","","","Images/WhiteBeadChoice.png","null"
"image-keyboard-response","523","3846476","0.0-4.0-2.167","11","High_HMMActual","null","","","","Images/WhiteBeadChoiceCorrect.png","null"
"image-keyboard-response","524","3846707","0.0-4.0-0.168","11","High_HMMActual","229.410000000149","","","","Images/NewTrialWC.png","37"
"image-keyboard-response","525","3847108","0.0-4.0-1.168","11","High_HMMActual","null","","","","Images/BlackBeadChoice.png","null"
"image-keyboard-response","526","3847809","0.0-4.0-2.168","11","High_HMMActual","null","","","","Images/BlackBeadChoiceCorrect.png","null"
"image-keyboard-response","527","3848031","0.0-4.0-0.169","11","High_HMMActual","221.49499999778345","","","","Images/NewTrialBC.png","39"
"image-keyboard-response","528","3848433","0.0-4.0-1.169","11","High_HMMActual","null","","","","Images/WhiteBeadChoice.png","null"
"image-keyboard-response","529","3849136","0.0-4.0-2.169","11","High_HMMActual","null","","","","Images/WhiteBeadChoiceCorrect.png","null"
"image-keyboard-response","530","3849370","0.0-4.0-0.170","11","High_HMMActual","233.9950000019744","","","","Images/NewTrialWC.png","37"
"image-keyboard-response","531","3849772","0.0-4.0-1.170","11","High_HMMActual","null","","","","Images/BlackBeadChoice.png","null"
"image-keyboard-response","532","3850475","0.0-4.0-2.170","11","High_HMMActual","null","","","","Images/BlackBeadChoiceCorrect.png","null"
"image-keyboard-response","533","3850764","0.0-4.0-0.171","11","High_HMMActual","287.644999996759","","","","Images/NewTrialBC.png","39"
"image-keyboard-response","534","3851165","0.0-4.0-1.171","11","High_HMMActual","null","","","","Images/WhiteBeadChoice.png","null"
"image-keyboard-response","535","3851866","0.0-4.0-2.171","11","High_HMMActual","null","","","","Images/WhiteBeadChoiceCorrect.png","null"
"image-keyboard-response","536","3851961","0.0-4.0-0.172","11","High_HMMActual","93.39000000199303","","","","Images/NewTrialWC.png","37"
"image-keyboard-response","537","3852362","0.0-4.0-1.172","11","High_HMMActual","null","","","","Images/BlackBeadChoice.png","null"
"image-keyboard-response","538","3853063","0.0-4.0-2.172","11","High_HMMActual","null","","","","Images/BlackBeadChoiceCorrect.png","null"
"image-keyboard-response","539","3853300","0.0-4.0-0.173","11","High_HMMActual","235.89499999769032","","","","Images/NewTrialBC.png","39"
"image-keyboard-response","540","3853700","0.0-4.0-1.173","11","High_HMMActual","null","","","","Images/WhiteBeadChoice.png","null"
"image-keyboard-response","541","3854402","0.0-4.0-2.173","11","High_HMMActual","null","","","","Images/WhiteBeadChoiceWrong.png","null"
"image-keyboard-response","542","3854521","0.0-4.0-0.174","11","High_HMMActual","117.91000000061467","","","","Images/NewTrialBC.png","37"
"image-keyboard-response","543","3854922","0.0-4.0-1.174","11","High_HMMActual","null","","","","Images/BlackBeadChoice.png","null"
"image-keyboard-response","544","3855624","0.0-4.0-2.174","11","High_HMMActual","null","","","","Images/BlackBeadChoiceCorrect.png","null"
"image-keyboard-response","545","3855856","0.0-4.0-0.175","11","High_HMMActual","231.58999999938533","","","","Images/NewTrialBC.png","39"
"image-keyboard-response","546","3856258","0.0-4.0-1.175","11","High_HMMActual","null","","","","Images/WhiteBeadChoice.png","null"
"image-keyboard-response","547","3856959","0.0-4.0-2.175","11","High_HMMActual","null","","","","Images/WhiteBeadChoiceCorrect.png","null"
"image-keyboard-response","548","3857066","0.0-4.0-0.176","11","High_HMMActual","105.69500000216067","","","","Images/NewTrialWC.png","37"
"image-keyboard-response","549","3857467","0.0-4.0-1.176","11","High_HMMActual","null","","","","Images/BlackBeadChoice.png","null"
"image-keyboard-response","550","3858168","0.0-4.0-2.176","11","High_HMMActual","null","","","","Images/BlackBeadChoiceCorrect.png","null"
"image-keyboard-response","551","3858369","0.0-4.0-0.177","11","High_HMMActual","200.7200000011362","","","","Images/NewTrialBC.png","39"
"image-keyboard-response","552","3858770","0.0-4.0-1.177","11","High_HMMActual","null","","","","Images/WhiteBeadChoice.png","null"
"image-keyboard-response","553","3859471","0.0-4.0-2.177","11","High_HMMActual","null","","","","Images/WhiteBeadChoiceCorrect.png","null"
"image-keyboard-response","554","3859722","0.0-4.0-0.178","11","High_HMMActual","249.92999999783933","","","","Images/NewTrialWC.png","37"
"image-keyboard-response","555","3860123","0.0-4.0-1.178","11","High_HMMActual","null","","","","Images/BlackBeadChoice.png","null"
"image-keyboard-response","556","3860824","0.0-4.0-2.178","11","High_HMMActual","null","","","","Images/BlackBeadChoiceWrong.png","null"
"image-keyboard-response","557","3860887","0.0-4.0-0.179","11","High_HMMActual","62.35499999811873","","","","Images/NewTrialWC.png","39"
"image-keyboard-response","558","3861288","0.0-4.0-1.179","11","High_HMMActual","null","","","","Images/WhiteBeadChoice.png","null"
"image-keyboard-response","559","3861989","0.0-4.0-2.179","11","High_HMMActual","null","","","","Images/WhiteBeadChoiceCorrect.png","null"
"image-keyboard-response","560","3862088","0.0-4.0-0.180","11","High_HMMActual","97.98500000033528","","","","Images/NewTrialWC.png","37"
"image-keyboard-response","561","3862490","0.0-4.0-1.180","11","High_HMMActual","null","","","","Images/BlackBeadChoice.png","null"
"image-keyboard-response","562","3863191","0.0-4.0-2.180","11","High_HMMActual","null","","","","Images/BlackBeadChoiceWrong.png","null"
"image-keyboard-response","563","3863421","0.0-4.0-0.181","11","High_HMMActual","229.15500000072643","","","","Images/NewTrialWC.png","39"
"image-keyboard-response","564","3863823","0.0-4.0-1.181","11","High_HMMActual","null","","","","Images/WhiteBeadChoice.png","null"
"image-keyboard-response","565","3864524","0.0-4.0-2.181","11","High_HMMActual","null","","","","Images/WhiteBeadChoiceCorrect.png","null"
"image-keyboard-response","566","3864648","0.0-4.0-0.182","11","High_HMMActual","123.8149999990128","","","","Images/NewTrialWC.png","37"
"image-keyboard-response","567","3865049","0.0-4.0-1.182","11","High_HMMActual","null","","","","Images/BlackBeadChoice.png","null"
"image-keyboard-response","568","3865751","0.0-4.0-2.182","11","High_HMMActual","null","","","","Images/BlackBeadChoiceCorrect.png","null"
"image-keyboard-response","569","3865910","0.0-4.0-0.183","11","High_HMMActual","158.47500000009313","","","","Images/NewTrialBC.png","39"
"image-keyboard-response","570","3866311","0.0-4.0-1.183","11","High_HMMActual","null","","","","Images/WhiteBeadChoice.png","null"
"image-keyboard-response","571","3867013","0.0-4.0-2.183","11","High_HMMActual","null","","","","Images/WhiteBeadChoiceCorrect.png","null"
"image-keyboard-response","572","3867111","0.0-4.0-0.184","11","High_HMMActual","97.58499999949709","","","","Images/NewTrialWC.png","37"
"image-keyboard-response","573","3867513","0.0-4.0-1.184","11","High_HMMActual","null","","","","Images/BlackBeadChoice.png","null"
"image-keyboard-response","574","3868215","0.0-4.0-2.184","11","High_HMMActual","null","","","","Images/BlackBeadChoiceWrong.png","null"
"image-keyboard-response","575","3868394","0.0-4.0-0.185","11","High_HMMActual","178.2700000004843","","","","Images/NewTrialWC.png","39"
"image-keyboard-response","576","3868796","0.0-4.0-1.185","11","High_HMMActual","null","","","","Images/WhiteBeadChoice.png","null"
"image-keyboard-response","577","3869497","0.0-4.0-2.185","11","High_HMMActual","null","","","","Images/WhiteBeadChoiceCorrect.png","null"
"image-keyboard-response","578","3869689","0.0-4.0-0.186","11","High_HMMActual","191.19499999983236","","","","Images/NewTrialWC.png","37"
"image-keyboard-response","579","3870090","0.0-4.0-1.186","11","High_HMMActual","null","","","","Images/BlackBeadChoice.png","null"
"image-keyboard-response","580","3870791","0.0-4.0-2.186","11","High_HMMActual","null","","","","Images/BlackBeadChoiceCorrect.png","null"
"image-keyboard-response","581","3870961","0.0-4.0-0.187","11","High_HMMActual","169.14000000199303","","","","Images/NewTrialBC.png","39"
"image-keyboard-response","582","3871362","0.0-4.0-1.187","11","High_HMMActual","null","","","","Images/WhiteBeadChoice.png","null"
"image-keyboard-response","583","3872064","0.0-4.0-2.187","11","High_HMMActual","619.9500000001863","","","","Images/WhiteBeadChoiceCorrect.png","37"
"image-keyboard-response","584","3873054","0.0-4.0-0.188","11","High_HMMActual","989.9499999992549","","","","Images/NewTrialWC.png","37"
"image-keyboard-response","585","3873455","0.0-4.0-1.188","11","High_HMMActual","null","","","","Images/BlackBeadChoice.png","null"
"image-keyboard-response","586","3874157","0.0-4.0-2.188","11","High_HMMActual","null","","","","Images/BlackBeadChoiceWrong.png","null"
"image-keyboard-response","587","3874258","0.0-4.0-0.189","11","High_HMMActual","100.68500000145286","","","","Images/NewTrialWC.png","39"
"image-keyboard-response","588","3874660","0.0-4.0-1.189","11","High_HMMActual","null","","","","Images/WhiteBeadChoice.png","null"
"image-keyboard-response","589","3875362","0.0-4.0-2.189","11","High_HMMActual","null","","","","Images/WhiteBeadChoiceCorrect.png","null"
"image-keyboard-response","590","3875489","0.0-4.0-0.190","11","High_HMMActual","125.64500000048429","","","","Images/NewTrialWC.png","37"
"image-keyboard-response","591","3875889","0.0-4.0-1.190","11","High_HMMActual","null","","","","Images/BlackBeadChoice.png","null"
"image-keyboard-response","592","3876591","0.0-4.0-2.190","11","High_HMMActual","null","","","","Images/BlackBeadChoiceCorrect.png","null"
"image-keyboard-response","593","3876832","0.0-4.0-0.191","11","High_HMMActual","240.4950000019744","","","","Images/NewTrialBC.png","39"
"image-keyboard-response","594","3877233","0.0-4.0-1.191","11","High_HMMActual","null","","","","Images/WhiteBeadChoice.png","null"
"image-keyboard-response","595","3877936","0.0-4.0-2.191","11","High_HMMActual","null","","","","Images/WhiteBeadChoiceCorrect.png","null"
"image-keyboard-response","596","3877988","0.0-4.0-0.192","11","High_HMMActual","50.91500000003725","","","","Images/NewTrialWC.png","37"
"image-keyboard-response","597","3878388","0.0-4.0-1.192","11","High_HMMActual","null","","","","Images/BlackBeadChoice.png","null"
"image-keyboard-response","598","3879090","0.0-4.0-2.192","11","High_HMMActual","null","","","","Images/BlackBeadChoiceCorrect.png","null"
"image-keyboard-response","599","3879327","0.0-4.0-0.193","11","High_HMMActual","236.91999999945983","","","","Images/NewTrialBC.png","39"
"image-keyboard-response","600","3879728","0.0-4.0-1.193","11","High_HMMActual","null","","","","Images/WhiteBeadChoice.png","null"
"image-keyboard-response","601","3880430","0.0-4.0-2.193","11","High_HMMActual","null","","","","Images/WhiteBeadChoiceCorrect.png","null"
"image-keyboard-response","602","3880604","0.0-4.0-0.194","11","High_HMMActual","173.1150000016205","","","","Images/NewTrialWC.png","37"
"image-keyboard-response","603","3881005","0.0-4.0-1.194","11","High_HMMActual","null","","","","Images/BlackBeadChoice.png","null"
"image-keyboard-response","604","3881707","0.0-4.0-2.194","11","High_HMMActual","null","","","","Images/BlackBeadChoiceCorrect.png","null"
"image-keyboard-response","605","3881959","0.0-4.0-0.195","11","High_HMMActual","251.28499999875203","","","","Images/NewTrialBC.png","39"
"image-keyboard-response","606","3882360","0.0-4.0-1.195","11","High_HMMActual","null","","","","Images/WhiteBeadChoice.png","null"
"image-keyboard-response","607","3883061","0.0-4.0-2.195","11","High_HMMActual","null","","","","Images/WhiteBeadChoiceCorrect.png","null"
"image-keyboard-response","608","3883287","0.0-4.0-0.196","11","High_HMMActual","225.03499999968335","","","","Images/NewTrialWC.png","37"
"image-keyboard-response","609","3883687","0.0-4.0-1.196","11","High_HMMActual","null","","","","Images/BlackBeadChoice.png","null"
"image-keyboard-response","610","3884389","0.0-4.0-2.196","11","High_HMMActual","null","","","","Images/BlackBeadChoiceCorrect.png","null"
"image-keyboard-response","611","3884648","0.0-4.0-0.197","11","High_HMMActual","256.87500000279397","","","","Images/NewTrialBC.png","39"
"image-keyboard-response","612","3885049","0.0-4.0-1.197","11","High_HMMActual","null","","","","Images/WhiteBeadChoice.png","null"
"image-keyboard-response","613","3885750","0.0-4.0-2.197","11","High_HMMActual","null","","","","Images/WhiteBeadChoiceCorrect.png","null"
"image-keyboard-response","614","3886472","0.0-4.0-0.198","11","High_HMMActual","721.5550000001676","","","","Images/NewTrialWC.png","37"
"image-keyboard-response","615","3886873","0.0-4.0-1.198","11","High_HMMActual","null","","","","Images/BlackBeadChoice.png","null"
"image-keyboard-response","616","3887575","0.0-4.0-2.198","11","High_HMMActual","null","","","","Images/BlackBeadChoiceCorrect.png","null"
"image-keyboard-response","617","3887704","0.0-4.0-0.199","11","High_HMMActual","127.6350000007078","","","","Images/NewTrialBC.png","39"
"image-keyboard-response","618","3888105","0.0-4.0-1.199","11","High_HMMActual","null","","","","Images/WhiteBeadChoice.png","null"
"image-keyboard-response","619","3888806","0.0-4.0-2.199","11","High_HMMActual","null","","","","Images/WhiteBeadChoiceCorrect.png","null"
"image-keyboard-response","620","3888837","0.0-4.0-0.200","11","High_HMMActual","29.58500000042841","","","","Images/NewTrialWC.png","37"
"image-keyboard-response","621","3889239","0.0-4.0-1.200","11","High_HMMActual","null","","","","Images/BlackBeadChoice.png","null"
"image-keyboard-response","622","3889940","0.0-4.0-2.200","11","High_HMMActual","null","","","","Images/BlackBeadChoiceWrong.png","null"
"image-keyboard-response","623","3890124","0.0-4.0-0.201","11","High_HMMActual","182.91999999899417","","","","Images/NewTrialWC.png","39"
"image-keyboard-response","624","3890525","0.0-4.0-1.201","11","High_HMMActual","null","","","","Images/WhiteBeadChoice.png","null"
"image-keyboard-response","625","3891227","0.0-4.0-2.201","11","High_HMMActual","null","","","","Images/WhiteBeadChoiceCorrect.png","null"
"image-keyboard-response","626","3891398","0.0-4.0-0.202","11","High_HMMActual","170.09499999741092","","","","Images/NewTrialWC.png","37"
"image-keyboard-response","627","3891799","0.0-4.0-1.202","11","High_HMMActual","null","","","","Images/BlackBeadChoice.png","null"
"image-keyboard-response","628","3892501","0.0-4.0-2.202","11","High_HMMActual","null","","","","Images/BlackBeadChoiceCorrect.png","null"
"image-keyboard-response","629","3892607","0.0-4.0-0.203","11","High_HMMActual","105.53499999875203","","","","Images/NewTrialBC.png","39"
"image-keyboard-response","630","3893009","0.0-4.0-1.203","11","High_HMMActual","null","","","","Images/WhiteBeadChoice.png","null"
"image-keyboard-response","631","3893711","0.0-4.0-2.203","11","High_HMMActual","null","","","","Images/WhiteBeadChoiceCorrect.png","null"
"image-keyboard-response","632","3893753","0.0-4.0-0.204","11","High_HMMActual","41.32499999832362","","","","Images/NewTrialWC.png","37"
"image-keyboard-response","633","3894155","0.0-4.0-1.204","11","High_HMMActual","null","","","","Images/BlackBeadChoice.png","null"
"image-keyboard-response","634","3894856","0.0-4.0-2.204","11","High_HMMActual","null","","","","Images/BlackBeadChoiceCorrect.png","null"
"image-keyboard-response","635","3895124","0.0-4.0-0.205","11","High_HMMActual","267.5899999993853","","","","Images/NewTrialBC.png","39"
"image-keyboard-response","636","3895525","0.0-4.0-1.205","11","High_HMMActual","null","","","","Images/WhiteBeadChoice.png","null"
"image-keyboard-response","637","3896228","0.0-4.0-2.205","11","High_HMMActual","null","","","","Images/WhiteBeadChoiceCorrect.png","null"
"image-keyboard-response","638","3896443","0.0-4.0-0.206","11","High_HMMActual","214.6800000006333","","","","Images/NewTrialWC.png","37"
"image-keyboard-response","639","3896844","0.0-4.0-1.206","11","High_HMMActual","null","","","","Images/BlackBeadChoice.png","null"
"image-keyboard-response","640","3897547","0.0-4.0-2.206","11","High_HMMActual","null","","","","Images/BlackBeadChoiceCorrect.png","null"
"image-keyboard-response","641","3897776","0.0-4.0-0.207","11","High_HMMActual","228.10000000009313","","","","Images/NewTrialBC.png","39"
"image-keyboard-response","642","3898177","0.0-4.0-1.207","11","High_HMMActual","null","","","","Images/WhiteBeadChoice.png","null"
"image-keyboard-response","643","3898878","0.0-4.0-2.207","11","High_HMMActual","null","","","","Images/WhiteBeadChoiceCorrect.png","null"
"image-keyboard-response","644","3899132","0.0-4.0-0.208","11","High_HMMActual","252.93999999808148","","","","Images/NewTrialWC.png","37"
"image-keyboard-response","645","3899533","0.0-4.0-1.208","11","High_HMMActual","null","","","","Images/BlackBeadChoice.png","null"
"image-keyboard-response","646","3900235","0.0-4.0-2.208","11","High_HMMActual","null","","","","Images/BlackBeadChoiceCorrect.png","null"
"image-keyboard-response","647","3900540","0.0-4.0-0.209","11","High_HMMActual","304.94499999983236","","","","Images/NewTrialBC.png","39"
"image-keyboard-response","648","3900941","0.0-4.0-1.209","11","High_HMMActual","null","","","","Images/WhiteBeadChoice.png","null"
"image-keyboard-response","649","3901642","0.0-4.0-2.209","11","High_HMMActual","null","","","","Images/WhiteBeadChoiceCorrect.png","null"
"image-keyboard-response","650","3901776","0.0-4.0-0.210","11","High_HMMActual","133.02499999897555","","","","Images/NewTrialWC.png","37"
"image-keyboard-response","651","3902176","0.0-4.0-1.210","11","High_HMMActual","null","","","","Images/BlackBeadChoice.png","null"
"image-keyboard-response","652","3902877","0.0-4.0-2.210","11","High_HMMActual","null","","","","Images/BlackBeadChoiceCorrect.png","null"
"image-keyboard-response","653","3903171","0.0-4.0-0.211","11","High_HMMActual","293.3799999989569","","","","Images/NewTrialBC.png","39"
"image-keyboard-response","654","3903573","0.0-4.0-1.211","11","High_HMMActual","null","","","","Images/WhiteBeadChoice.png","null"
"image-keyboard-response","655","3904275","0.0-4.0-2.211","11","High_HMMActual","null","","","","Images/WhiteBeadChoiceCorrect.png","null"
"image-keyboard-response","656","3904448","0.0-4.0-0.212","11","High_HMMActual","172.57999999867752","","","","Images/NewTrialWC.png","37"
"image-keyboard-response","657","3904849","0.0-4.0-1.212","11","High_HMMActual","null","","","","Images/BlackBeadChoice.png","null"
"image-keyboard-response","658","3905551","0.0-4.0-2.212","11","High_HMMActual","null","","","","Images/BlackBeadChoiceWrong.png","null"
"image-keyboard-response","659","3905887","0.0-4.0-0.213","11","High_HMMActual","335.13999999919906","","","","Images/NewTrialWC.png","39"
"image-keyboard-response","660","3906289","0.0-4.0-1.213","11","High_HMMActual","null","","","","Images/WhiteBeadChoice.png","null"
"image-keyboard-response","661","3906990","0.0-4.0-2.213","11","High_HMMActual","null","","","","Images/WhiteBeadChoiceWrong.png","null"
"image-keyboard-response","662","3907292","0.0-4.0-0.214","11","High_HMMActual","301.70999999996275","","","","Images/NewTrialBC.png","39"
"image-keyboard-response","663","3907694","0.0-4.0-1.214","11","High_HMMActual","null","","","","Images/WhiteBeadChoice.png","null"
"image-keyboard-response","664","3908395","0.0-4.0-2.214","11","High_HMMActual","null","","","","Images/WhiteBeadChoiceWrong.png","null"
"image-keyboard-response","665","3908634","0.0-4.0-0.215","11","High_HMMActual","237.58499999903142","","","","Images/NewTrialBC.png","37"
"image-keyboard-response","666","3909036","0.0-4.0-1.215","11","High_HMMActual","null","","","","Images/BlackBeadChoice.png","null"
"image-keyboard-response","667","3909737","0.0-4.0-2.215","11","High_HMMActual","null","","","","Images/BlackBeadChoiceWrong.png","null"
"image-keyboard-response","668","3909991","0.0-4.0-0.216","11","High_HMMActual","253.21000000229105","","","","Images/NewTrialWC.png","39"
"image-keyboard-response","669","3910392","0.0-4.0-1.216","11","High_HMMActual","null","","","","Images/WhiteBeadChoice.png","null"
"image-keyboard-response","670","3911094","0.0-4.0-2.216","11","High_HMMActual","null","","","","Images/WhiteBeadChoiceWrong.png","null"
"image-keyboard-response","671","3911361","0.0-4.0-0.217","11","High_HMMActual","266.31500000087544","","","","Images/NewTrialBC.png","39"
"image-keyboard-response","672","3911762","0.0-4.0-1.217","11","High_HMMActual","null","","","","Images/WhiteBeadChoice.png","null"
"image-keyboard-response","673","3912464","0.0-4.0-2.217","11","High_HMMActual","null","","","","Images/WhiteBeadChoiceCorrect.png","null"
"image-keyboard-response","674","3912695","0.0-4.0-0.218","11","High_HMMActual","229.83000000054017","","","","Images/NewTrialWC.png","37"
"image-keyboard-response","675","3913096","0.0-4.0-1.218","11","High_HMMActual","null","","","","Images/BlackBeadChoice.png","null"
"image-keyboard-response","676","3913799","0.0-4.0-2.218","11","High_HMMActual","null","","","","Images/BlackBeadChoiceCorrect.png","null"
"image-keyboard-response","677","3914012","0.0-4.0-0.219","11","High_HMMActual","212.40000000037253","","","","Images/NewTrialBC.png","39"
"image-keyboard-response","678","3914413","0.0-4.0-1.219","11","High_HMMActual","null","","","","Images/WhiteBeadChoice.png","null"
"image-keyboard-response","679","3915115","0.0-4.0-2.219","11","High_HMMActual","null","","","","Images/WhiteBeadChoiceCorrect.png","null"
"image-keyboard-response","680","3915386","0.0-4.0-0.220","11","High_HMMActual","270.8549999985844","","","","Images/NewTrialWC.png","37"
"image-keyboard-response","681","3915788","0.0-4.0-1.220","11","High_HMMActual","null","","","","Images/BlackBeadChoice.png","null"
"image-keyboard-response","682","3916490","0.0-4.0-2.220","11","High_HMMActual","null","","","","Images/BlackBeadChoiceCorrect.png","null"
"image-keyboard-response","683","3916787","0.0-4.0-0.221","11","High_HMMActual","296.37999999988824","","","","Images/NewTrialBC.png","39"
"image-keyboard-response","684","3917188","0.0-4.0-1.221","11","High_HMMActual","null","","","","Images/WhiteBeadChoice.png","null"
"image-keyboard-response","685","3917889","0.0-4.0-2.221","11","High_HMMActual","null","","","","Images/WhiteBeadChoiceWrong.png","null"
"image-keyboard-response","686","3918088","0.0-4.0-0.222","11","High_HMMActual","198.51500000013039","","","","Images/NewTrialBC.png","37"
"image-keyboard-response","687","3918490","0.0-4.0-1.222","11","High_HMMActual","null","","","","Images/BlackBeadChoice.png","null"
"image-keyboard-response","688","3919191","0.0-4.0-2.222","11","High_HMMActual","null","","","","Images/BlackBeadChoiceWrong.png","null"
"image-keyboard-response","689","3919242","0.0-4.0-0.223","11","High_HMMActual","50.405000002123415","","","","Images/NewTrialWC.png","39"
"image-keyboard-response","690","3919644","0.0-4.0-1.223","11","High_HMMActual","null","","","","Images/WhiteBeadChoice.png","null"
"image-keyboard-response","691","3920346","0.0-4.0-2.223","11","High_HMMActual","null","","","","Images/WhiteBeadChoiceWrong.png","null"
"image-keyboard-response","692","3920414","0.0-4.0-0.224","11","High_HMMActual","66.90000000130385","","","","Images/NewTrialBC.png","37"
"image-keyboard-response","693","3920815","0.0-4.0-1.224","11","High_HMMActual","null","","","","Images/BlackBeadChoice.png","null"
"image-keyboard-response","694","3921517","0.0-4.0-2.224","11","High_HMMActual","null","","","","Images/BlackBeadChoiceWrong.png","null"
"image-keyboard-response","695","3921651","0.0-4.0-0.225","11","High_HMMActual","133.5749999997206","","","","Images/NewTrialWC.png","39"
"image-keyboard-response","696","3922053","0.0-4.0-1.225","11","High_HMMActual","null","","","","Images/WhiteBeadChoice.png","null"
"image-keyboard-response","697","3922754","0.0-4.0-2.225","11","High_HMMActual","null","","","","Images/WhiteBeadChoiceWrong.png","null"
"image-keyboard-response","698","3923100","0.0-4.0-0.226","11","High_HMMActual","345.40500000026077","","","","Images/NewTrialBC.png","39"
"image-keyboard-response","699","3923502","0.0-4.0-1.226","11","High_HMMActual","null","","","","Images/WhiteBeadChoice.png","null"
"image-keyboard-response","700","3924204","0.0-4.0-2.226","11","High_HMMActual","null","","","","Images/WhiteBeadChoiceWrong.png","null"
"image-keyboard-response","701","3924556","0.0-4.0-0.227","11","High_HMMActual","350.6550000021234","","","","Images/NewTrialBC.png","37"
"image-keyboard-response","702","3924957","0.0-4.0-1.227","11","High_HMMActual","null","","","","Images/BlackBeadChoice.png","null"
"image-keyboard-response","703","3925658","0.0-4.0-2.227","11","High_HMMActual","null","","","","Images/BlackBeadChoiceWrong.png","null"
"image-keyboard-response","704","3925989","0.0-4.0-0.228","11","High_HMMActual","329.68999999854714","","","","Images/NewTrialWC.png","39"
"image-keyboard-response","705","3926391","0.0-4.0-1.228","11","High_HMMActual","null","","","","Images/WhiteBeadChoice.png","null"
"image-keyboard-response","706","3927092","0.0-4.0-2.228","11","High_HMMActual","null","","","","Images/WhiteBeadChoiceCorrect.png","null"
"image-keyboard-response","707","3927606","0.0-4.0-0.229","11","High_HMMActual","512.9899999988265","","","","Images/NewTrialWC.png","37"
"image-keyboard-response","708","3928008","0.0-4.0-1.229","11","High_HMMActual","null","","","","Images/BlackBeadChoice.png","null"
"image-keyboard-response","709","3928710","0.0-4.0-2.229","11","High_HMMActual","null","","","","Images/BlackBeadChoiceCorrect.png","null"
"image-keyboard-response","710","3929098","0.0-4.0-0.230","11","High_HMMActual","387.74500000011176","","","","Images/NewTrialBC.png","39"
