"trial_type","trial_index","time_elapsed","internal_node_id","Script_Picker","Block_Type","rt","url","responses","question_order","stimulus","key_press"
"pavlovia","0","5","0.0-0.0","9","Low_HMMActual","","","","","",""
"external-html","1","3244","0.0-1.0-0.0","9","Low_HMMActual","3152","consent.html","","","",""
"survey-multi-choice","2","13596","0.0-1.0-1.0","9","Low_HMMActual","10349","","{""Q0"":""Female"",""Q1"":""Other""}","[0,1]","",""
"survey-text","3","16977","0.0-1.0-2.0","9","Low_HMMActual","3377","","{""Q0"":""20""}","","",""
"survey-text","4","24601","0.0-1.0-3.0","9","Low_HMMActual","7520","","{""Q0"":""5e6a278fdd671c000b875637""}","","",""
"html-keyboard-response","5","44075","0.0-2.0-0.0","9","Low_HMMActual","19369","","","","<div class=""container"" style=""height:800px;width:800px;display:flex;flex-direction:column;justify-content:center;align-items:center;text-align:center;font-weight:normal;font-family:Arial;font-size:20px""><p>In this task you will see black or white beads being pulled from jars. <br><br>On each trial, a bead will be pulled from one of two jars. Once you see this bead, your goal is to predict the color of NEXT bead that will be pulled. <br> <br>Every time you correctly guess the color of the NEXT bead, you will get a point. <br><br>Press the SPACEBAR to continue.</p><div>","32"
"html-keyboard-response","6","49689","0.0-2.0-1.0","9","Low_HMMActual","5613","","","","<div class=""container"" style=""height:800px;width:800px;display:flex;flex-direction:column;justify-content:center;align-items:center;text-align:center;font-weight:normal;font-family:Arial;font-size:20px""><p>Jars are filled with 80% white or black beads and 20% of the opposite color mixed in.<br><br>Press the SPACEBAR to continue. </p><div>","32"
"image-keyboard-response","7","52336","0.0-2.0-2.0","9","Low_HMMActual","2647","","","","resources/WhiteJar_HMM.png","32"
"image-keyboard-response","8","54400","0.0-2.0-3.0","9","Low_HMMActual","2064","","","","resources/BlackJar_HMM.png","32"
"html-keyboard-response","9","57493","0.0-2.0-4.0","9","Low_HMMActual","3092","","","","<div class=""container"" style=""height:800px;width:800px;display:flex;flex-direction:column;justify-content:center;align-items:center;text-align:center;font-weight:normal;font-family:Arial;font-size:20px""><p>There will be two blocks of trials. Each block will contain 500 trials. <br><br>Here are examples of what you will see on each trial.<br><br>Press the SPACEBAR to continue. </p><div>","32"
"image-keyboard-response","10","61502","0.0-2.0-5.0","9","Low_HMMActual","4009","","","","Images/NoChoice.png","32"
"html-keyboard-response","11","70294","0.0-2.0-6.0","9","Low_HMMActual","8792","","","","<div class=""container"" style=""height:800px;width:800px;display:flex;flex-direction:column;justify-content:center;align-items:center;text-align:center;font-weight:normal;font-family:Arial;font-size:20px""><p> The jar the beads are pulled from is NOT choosen at random on each trial.<br><br>After each prediction, there will be a chance that the jars will switch, and that the next bead will be pulled from the opposite jar as the previous trial.<br><br>In each block, the chance that a jar will switch will either be LOW (the jars will not switch very often), or HIGH (the jars will switch almost all the time).<br><br>At the start of each block, you will be told the probability that the jars will switch on each trial. This switch probability will stay constant throughout the block.<br><br>We will now show you some examples of beads being drawn from jars. The bead will appear in the middle of the screen, and the jar the bead was pulled from will be indicated with a black rectangle.<br><br>Press the SPACEBAR to continue. </p><div>","32"
"image-keyboard-response","12","82464","0.0-2.0-7.0","9","Low_HMMActual","12169","","","","Images/TutorialWhiteJarDrawHMMC.png","32"
"image-keyboard-response","13","86025","0.0-2.0-8.0","9","Low_HMMActual","3560","","","","Images/TutorialBlackJarDrawHMMC.png","32"
"image-keyboard-response","14","89809","0.0-2.0-9.0","9","Low_HMMActual","3782","","","","Images/TutorialBlackJarDrawHMMI.png","32"
"html-keyboard-response","15","100500","0.0-2.0-10.0","9","Low_HMMActual","10690","","","","<div class=""container"" style=""height:800px;width:800px;display:flex;flex-direction:column;justify-content:center;align-items:center;text-align:center;font-weight:normal;font-family:Arial;font-size:20px""><p> As you observed, a white bead was pulled from a 80% white jar, the jars switched and a black bead was pulled from the 80% black jar, but then a low-probability white bead was pulled from the 80% black jar. <br><br>This means that the color of the bead will not always match to the color of the jar it was pulled from.<br><br>Press SPACEBAR to conitnue.</p><div>","32"
"html-keyboard-response","16","102499","0.0-2.0-11.0","9","Low_HMMActual","1998","","","","<div class=""container"" style=""height:800px;width:800px;display:flex;flex-direction:column;justify-content:center;align-items:center;text-align:center;font-weight:normal;font-family:Arial;font-size:20px""><p> You will now be given a 2 question quiz to make sure you understand the task. </p><div>","32"
"image-keyboard-response","17","118991","0.0-2.0-12.0","9","Low_HMMActual","16491","","","","Images/TutorialQuestion1.png","39"
"image-keyboard-response","18","129571","0.0-2.0-13.0","9","Low_HMMActual","7640","","","","Images/TutorialQuestion2.png","38"
"html-keyboard-response","19","134945","0.0-3.0","9","Low_HMMActual","3782","","","","<div class=""container"" style=""height:800px;width:800px;display:flex;flex-direction:column;justify-content:center;align-items:center;text-align:center;font-weight:normal;font-family:Arial;font-size:20px""><p>Loading episode&hellip;</p><div>","32"
"image-keyboard-response","20","140118","0.0-4.0-0.0","9","Low_HMMActual","5171","","","","Images/NoChoice.png","37"
"image-keyboard-response","21","140521","0.0-4.0-1.0","9","Low_HMMActual","null","","","","Images/BlackBeadChoice.png","null"
"image-keyboard-response","22","141223","0.0-4.0-2.0","9","Low_HMMActual","null","","","","Images/BlackBeadChoiceWrong.png","null"
"image-keyboard-response","23","143696","0.0-4.0-0.1","9","Low_HMMActual","2471","","","","Images/NewTrialWC.png","39"
"image-keyboard-response","24","144097","0.0-4.0-1.1","9","Low_HMMActual","null","","","","Images/WhiteBeadChoice.png","null"
"image-keyboard-response","25","144799","0.0-4.0-2.1","9","Low_HMMActual","null","","","","Images/WhiteBeadChoiceCorrect.png","null"
"image-keyboard-response","26","145214","0.0-4.0-0.2","9","Low_HMMActual","413","","","","Images/NewTrialWC.png","39"
"image-keyboard-response","27","145614","0.0-4.0-1.2","9","Low_HMMActual","null","","","","Images/WhiteBeadChoice.png","null"
"image-keyboard-response","28","146316","0.0-4.0-2.2","9","Low_HMMActual","null","","","","Images/WhiteBeadChoiceWrong.png","null"
"image-keyboard-response","29","147891","0.0-4.0-0.3","9","Low_HMMActual","1573","","","","Images/NewTrialBC.png","37"
"image-keyboard-response","30","148292","0.0-4.0-1.3","9","Low_HMMActual","null","","","","Images/BlackBeadChoice.png","null"
"image-keyboard-response","31","148994","0.0-4.0-2.3","9","Low_HMMActual","null","","","","Images/BlackBeadChoiceWrong.png","null"
"image-keyboard-response","32","150660","0.0-4.0-0.4","9","Low_HMMActual","1667","","","","Images/NewTrialWC.png","39"
"image-keyboard-response","33","151061","0.0-4.0-1.4","9","Low_HMMActual","null","","","","Images/WhiteBeadChoice.png","null"
"image-keyboard-response","34","151763","0.0-4.0-2.4","9","Low_HMMActual","null","","","","Images/WhiteBeadChoiceCorrect.png","null"
"image-keyboard-response","35","152488","0.0-4.0-0.5","9","Low_HMMActual","725","","","","Images/NewTrialWC.png","39"
"image-keyboard-response","36","152890","0.0-4.0-1.5","9","Low_HMMActual","null","","","","Images/WhiteBeadChoice.png","null"
"image-keyboard-response","37","153591","0.0-4.0-2.5","9","Low_HMMActual","null","","","","Images/WhiteBeadChoiceCorrect.png","null"
"image-keyboard-response","38","153807","0.0-4.0-0.6","9","Low_HMMActual","216","","","","Images/NewTrialWC.png","37"
"image-keyboard-response","39","154208","0.0-4.0-1.6","9","Low_HMMActual","null","","","","Images/BlackBeadChoice.png","null"
"image-keyboard-response","40","154910","0.0-4.0-2.6","9","Low_HMMActual","null","","","","Images/BlackBeadChoiceCorrect.png","null"
"image-keyboard-response","41","155312","0.0-4.0-0.7","9","Low_HMMActual","402","","","","Images/NewTrialBC.png","39"
"image-keyboard-response","42","155714","0.0-4.0-1.7","9","Low_HMMActual","null","","","","Images/WhiteBeadChoice.png","null"
"image-keyboard-response","43","156414","0.0-4.0-2.7","9","Low_HMMActual","null","","","","Images/WhiteBeadChoiceCorrect.png","null"
"image-keyboard-response","44","156856","0.0-4.0-0.8","9","Low_HMMActual","440","","","","Images/NewTrialWC.png","37"
"image-keyboard-response","45","157258","0.0-4.0-1.8","9","Low_HMMActual","null","","","","Images/BlackBeadChoice.png","null"
"image-keyboard-response","46","157959","0.0-4.0-2.8","9","Low_HMMActual","null","","","","Images/BlackBeadChoiceWrong.png","null"
"image-keyboard-response","47","158321","0.0-4.0-0.9","9","Low_HMMActual","361","","","","Images/NewTrialWC.png","37"
"image-keyboard-response","48","158721","0.0-4.0-1.9","9","Low_HMMActual","null","","","","Images/BlackBeadChoice.png","null"
"image-keyboard-response","49","159422","0.0-4.0-2.9","9","Low_HMMActual","null","","","","Images/BlackBeadChoiceWrong.png","null"
"image-keyboard-response","50","159650","0.0-4.0-0.10","9","Low_HMMActual","228","","","","Images/NewTrialWC.png","39"
"image-keyboard-response","51","160051","0.0-4.0-1.10","9","Low_HMMActual","null","","","","Images/WhiteBeadChoice.png","null"
"image-keyboard-response","52","160752","0.0-4.0-2.10","9","Low_HMMActual","null","","","","Images/WhiteBeadChoiceCorrect.png","null"
"image-keyboard-response","53","161120","0.0-4.0-0.11","9","Low_HMMActual","367","","","","Images/NewTrialWC.png","37"
"image-keyboard-response","54","161522","0.0-4.0-1.11","9","Low_HMMActual","null","","","","Images/BlackBeadChoice.png","null"
"image-keyboard-response","55","162223","0.0-4.0-2.11","9","Low_HMMActual","341","","","","Images/BlackBeadChoiceWrong.png","37"
"image-keyboard-response","56","162575","0.0-4.0-0.12","9","Low_HMMActual","351","","","","Images/NewTrialWC.png","39"
"image-keyboard-response","57","162975","0.0-4.0-1.12","9","Low_HMMActual","null","","","","Images/WhiteBeadChoice.png","null"
"image-keyboard-response","58","163676","0.0-4.0-2.12","9","Low_HMMActual","null","","","","Images/WhiteBeadChoiceCorrect.png","null"
"image-keyboard-response","59","179205","0.0-4.0-0.13","9","Low_HMMActual","15527","","","","Images/NewTrialWC.png","39"
"image-keyboard-response","60","179605","0.0-4.0-1.13","9","Low_HMMActual","null","","","","Images/WhiteBeadChoice.png","null"
"image-keyboard-response","61","180306","0.0-4.0-2.13","9","Low_HMMActual","null","","","","Images/WhiteBeadChoiceWrong.png","null"
"image-keyboard-response","62","180432","0.0-4.0-0.14","9","Low_HMMActual","127","","","","Images/NewTrialBC.png","39"
"image-keyboard-response","63","180834","0.0-4.0-1.14","9","Low_HMMActual","null","","","","Images/WhiteBeadChoice.png","null"
"image-keyboard-response","64","181536","0.0-4.0-2.14","9","Low_HMMActual","null","","","","Images/WhiteBeadChoiceCorrect.png","null"
"image-keyboard-response","65","181715","0.0-4.0-0.15","9","Low_HMMActual","178","","","","Images/NewTrialWC.png","37"
"image-keyboard-response","66","182115","0.0-4.0-1.15","9","Low_HMMActual","null","","","","Images/BlackBeadChoice.png","null"
"image-keyboard-response","67","182816","0.0-4.0-2.15","9","Low_HMMActual","null","","","","Images/BlackBeadChoiceCorrect.png","null"
"image-keyboard-response","68","182928","0.0-4.0-0.16","9","Low_HMMActual","111","","","","Images/NewTrialBC.png","37"
"image-keyboard-response","69","183328","0.0-4.0-1.16","9","Low_HMMActual","null","","","","Images/BlackBeadChoice.png","null"
"image-keyboard-response","70","184030","0.0-4.0-2.16","9","Low_HMMActual","null","","","","Images/BlackBeadChoiceWrong.png","null"
"image-keyboard-response","71","184716","0.0-4.0-0.17","9","Low_HMMActual","685","","","","Images/NewTrialWC.png","39"
"image-keyboard-response","72","185117","0.0-4.0-1.17","9","Low_HMMActual","null","","","","Images/WhiteBeadChoice.png","null"
"image-keyboard-response","73","185818","0.0-4.0-2.17","9","Low_HMMActual","670","","","","Images/WhiteBeadChoiceCorrect.png","37"
"image-keyboard-response","74","186281","0.0-4.0-0.18","9","Low_HMMActual","464","","","","Images/NewTrialWC.png","37"
"image-keyboard-response","75","186682","0.0-4.0-1.18","9","Low_HMMActual","null","","","","Images/BlackBeadChoice.png","null"
"image-keyboard-response","76","187383","0.0-4.0-2.18","9","Low_HMMActual","null","","","","Images/BlackBeadChoiceWrong.png","null"
"image-keyboard-response","77","187512","0.0-4.0-0.19","9","Low_HMMActual","128","","","","Images/NewTrialWC.png","37"
"image-keyboard-response","78","187913","0.0-4.0-1.19","9","Low_HMMActual","224","","","","Images/BlackBeadChoice.png","37"
"image-keyboard-response","79","188613","0.0-4.0-2.19","9","Low_HMMActual","null","","","","Images/BlackBeadChoiceWrong.png","null"
"image-keyboard-response","80","188944","0.0-4.0-0.20","9","Low_HMMActual","331","","","","Images/NewTrialWC.png","37"
"image-keyboard-response","81","189345","0.0-4.0-1.20","9","Low_HMMActual","null","","","","Images/BlackBeadChoice.png","null"
"image-keyboard-response","82","190046","0.0-4.0-2.20","9","Low_HMMActual","394","","","","Images/BlackBeadChoiceWrong.png","39"
"image-keyboard-response","83","190103","0.0-4.0-0.21","9","Low_HMMActual","55","","","","Images/NewTrialWC.png","39"
"image-keyboard-response","84","190503","0.0-4.0-1.21","9","Low_HMMActual","241","","","","Images/WhiteBeadChoice.png","39"
"image-keyboard-response","85","191205","0.0-4.0-2.21","9","Low_HMMActual","null","","","","Images/WhiteBeadChoiceCorrect.png","null"
"image-keyboard-response","86","191457","0.0-4.0-0.22","9","Low_HMMActual","251","","","","Images/NewTrialWC.png","39"
"image-keyboard-response","87","191857","0.0-4.0-1.22","9","Low_HMMActual","null","","","","Images/WhiteBeadChoice.png","null"
"image-keyboard-response","88","192558","0.0-4.0-2.22","9","Low_HMMActual","null","","","","Images/WhiteBeadChoiceCorrect.png","null"
"image-keyboard-response","89","192762","0.0-4.0-0.23","9","Low_HMMActual","203","","","","Images/NewTrialWC.png","39"
"image-keyboard-response","90","193163","0.0-4.0-1.23","9","Low_HMMActual","null","","","","Images/WhiteBeadChoice.png","null"
"image-keyboard-response","91","193864","0.0-4.0-2.23","9","Low_HMMActual","558","","","","Images/WhiteBeadChoiceWrong.png","40"
"image-keyboard-response","92","195836","0.0-4.0-0.24","9","Low_HMMActual","1970","","","","Images/NewTrialBC.png","37"
"image-keyboard-response","93","196236","0.0-4.0-1.24","9","Low_HMMActual","null","","","","Images/BlackBeadChoice.png","null"
"image-keyboard-response","94","196936","0.0-4.0-2.24","9","Low_HMMActual","null","","","","Images/BlackBeadChoiceWrong.png","null"
"image-keyboard-response","95","197197","0.0-4.0-0.25","9","Low_HMMActual","260","","","","Images/NewTrialWC.png","37"
"image-keyboard-response","96","197599","0.0-4.0-1.25","9","Low_HMMActual","null","","","","Images/BlackBeadChoice.png","null"
"image-keyboard-response","97","198300","0.0-4.0-2.25","9","Low_HMMActual","null","","","","Images/BlackBeadChoiceCorrect.png","null"
"image-keyboard-response","98","198654","0.0-4.0-0.26","9","Low_HMMActual","353","","","","Images/NewTrialBC.png","39"
"image-keyboard-response","99","199056","0.0-4.0-1.26","9","Low_HMMActual","null","","","","Images/WhiteBeadChoice.png","null"
"image-keyboard-response","100","199757","0.0-4.0-2.26","9","Low_HMMActual","null","","","","Images/WhiteBeadChoiceCorrect.png","null"
"image-keyboard-response","101","199939","0.0-4.0-0.27","9","Low_HMMActual","181","","","","Images/NewTrialWC.png","37"
"image-keyboard-response","102","200340","0.0-4.0-1.27","9","Low_HMMActual","null","","","","Images/BlackBeadChoice.png","null"
"image-keyboard-response","103","201041","0.0-4.0-2.27","9","Low_HMMActual","null","","","","Images/BlackBeadChoiceWrong.png","null"
"image-keyboard-response","104","201239","0.0-4.0-0.28","9","Low_HMMActual","198","","","","Images/NewTrialWC.png","37"
"image-keyboard-response","105","201640","0.0-4.0-1.28","9","Low_HMMActual","null","","","","Images/BlackBeadChoice.png","null"
"image-keyboard-response","106","202342","0.0-4.0-2.28","9","Low_HMMActual","null","","","","Images/BlackBeadChoiceWrong.png","null"
"image-keyboard-response","107","202571","0.0-4.0-0.29","9","Low_HMMActual","229","","","","Images/NewTrialWC.png","39"
"image-keyboard-response","108","202972","0.0-4.0-1.29","9","Low_HMMActual","null","","","","Images/WhiteBeadChoice.png","null"
"image-keyboard-response","109","203673","0.0-4.0-2.29","9","Low_HMMActual","null","","","","Images/WhiteBeadChoiceCorrect.png","null"
"image-keyboard-response","110","209727","0.0-4.0-0.30","9","Low_HMMActual","6052","","","","Images/NewTrialWC.png","39"
"image-keyboard-response","111","210127","0.0-4.0-1.30","9","Low_HMMActual","null","","","","Images/WhiteBeadChoice.png","null"
"image-keyboard-response","112","210830","0.0-4.0-2.30","9","Low_HMMActual","null","","","","Images/WhiteBeadChoiceCorrect.png","null"
"image-keyboard-response","113","210897","0.0-4.0-0.31","9","Low_HMMActual","66","","","","Images/NewTrialWC.png","37"
"image-keyboard-response","114","211296","0.0-4.0-1.31","9","Low_HMMActual","null","","","","Images/BlackBeadChoice.png","null"
"image-keyboard-response","115","211997","0.0-4.0-2.31","9","Low_HMMActual","null","","","","Images/BlackBeadChoiceWrong.png","null"
"image-keyboard-response","116","212255","0.0-4.0-0.32","9","Low_HMMActual","255","","","","Images/NewTrialWC.png","37"
"image-keyboard-response","117","212655","0.0-4.0-1.32","9","Low_HMMActual","null","","","","Images/BlackBeadChoice.png","null"
"image-keyboard-response","118","213356","0.0-4.0-2.32","9","Low_HMMActual","null","","","","Images/BlackBeadChoiceWrong.png","null"
"image-keyboard-response","119","213554","0.0-4.0-0.33","9","Low_HMMActual","198","","","","Images/NewTrialWC.png","37"
"image-keyboard-response","120","213955","0.0-4.0-1.33","9","Low_HMMActual","null","","","","Images/BlackBeadChoice.png","null"
"image-keyboard-response","121","214657","0.0-4.0-2.33","9","Low_HMMActual","493","","","","Images/BlackBeadChoiceWrong.png","39"
"image-keyboard-response","122","215396","0.0-4.0-0.34","9","Low_HMMActual","737","","","","Images/NewTrialWC.png","39"
"image-keyboard-response","123","215795","0.0-4.0-1.34","9","Low_HMMActual","null","","","","Images/WhiteBeadChoice.png","null"
"image-keyboard-response","124","216499","0.0-4.0-2.34","9","Low_HMMActual","null","","","","Images/WhiteBeadChoiceCorrect.png","null"
"image-keyboard-response","125","229533","0.0-4.0-0.35","9","Low_HMMActual","13034","","","","Images/NewTrialWC.png","39"
"image-keyboard-response","126","229934","0.0-4.0-1.35","9","Low_HMMActual","null","","","","Images/WhiteBeadChoice.png","null"
"image-keyboard-response","127","230635","0.0-4.0-2.35","9","Low_HMMActual","null","","","","Images/WhiteBeadChoiceWrong.png","null"
"image-keyboard-response","128","231750","0.0-4.0-0.36","9","Low_HMMActual","1114","","","","Images/NewTrialBC.png","37"
"image-keyboard-response","129","232150","0.0-4.0-1.36","9","Low_HMMActual","null","","","","Images/BlackBeadChoice.png","null"
"image-keyboard-response","130","232851","0.0-4.0-2.36","9","Low_HMMActual","null","","","","Images/BlackBeadChoiceWrong.png","null"
"image-keyboard-response","131","236794","0.0-4.0-0.37","9","Low_HMMActual","3942","","","","Images/NewTrialWC.png","39"
"image-keyboard-response","132","237194","0.0-4.0-1.37","9","Low_HMMActual","null","","","","Images/WhiteBeadChoice.png","null"
"image-keyboard-response","133","237896","0.0-4.0-2.37","9","Low_HMMActual","null","","","","Images/WhiteBeadChoiceWrong.png","null"
"image-keyboard-response","134","238571","0.0-4.0-0.38","9","Low_HMMActual","676","","","","Images/NewTrialBC.png","37"
"image-keyboard-response","135","238973","0.0-4.0-1.38","9","Low_HMMActual","null","","","","Images/BlackBeadChoice.png","null"
"image-keyboard-response","136","239675","0.0-4.0-2.38","9","Low_HMMActual","null","","","","Images/BlackBeadChoiceWrong.png","null"
"image-keyboard-response","137","241057","0.0-4.0-0.39","9","Low_HMMActual","1382","","","","Images/NewTrialWC.png","37"
"image-keyboard-response","138","241459","0.0-4.0-1.39","9","Low_HMMActual","null","","","","Images/BlackBeadChoice.png","null"
"image-keyboard-response","139","242160","0.0-4.0-2.39","9","Low_HMMActual","null","","","","Images/BlackBeadChoiceWrong.png","null"
"image-keyboard-response","140","242399","0.0-4.0-0.40","9","Low_HMMActual","238","","","","Images/NewTrialWC.png","39"
"image-keyboard-response","141","242799","0.0-4.0-1.40","9","Low_HMMActual","null","","","","Images/WhiteBeadChoice.png","null"
"image-keyboard-response","142","243500","0.0-4.0-2.40","9","Low_HMMActual","null","","","","Images/WhiteBeadChoiceWrong.png","null"
"image-keyboard-response","143","243801","0.0-4.0-0.41","9","Low_HMMActual","300","","","","Images/NewTrialBC.png","37"
"image-keyboard-response","144","244202","0.0-4.0-1.41","9","Low_HMMActual","null","","","","Images/BlackBeadChoice.png","null"
"image-keyboard-response","145","244903","0.0-4.0-2.41","9","Low_HMMActual","null","","","","Images/BlackBeadChoiceWrong.png","null"
"image-keyboard-response","146","245112","0.0-4.0-0.42","9","Low_HMMActual","207","","","","Images/NewTrialWC.png","39"
"image-keyboard-response","147","245511","0.0-4.0-1.42","9","Low_HMMActual","null","","","","Images/WhiteBeadChoice.png","null"
"image-keyboard-response","148","246213","0.0-4.0-2.42","9","Low_HMMActual","null","","","","Images/WhiteBeadChoiceCorrect.png","null"
"image-keyboard-response","149","246835","0.0-4.0-0.43","9","Low_HMMActual","621","","","","Images/NewTrialWC.png","39"
"image-keyboard-response","150","247236","0.0-4.0-1.43","9","Low_HMMActual","null","","","","Images/WhiteBeadChoice.png","null"
"image-keyboard-response","151","247937","0.0-4.0-2.43","9","Low_HMMActual","null","","","","Images/WhiteBeadChoiceCorrect.png","null"
"image-keyboard-response","152","248165","0.0-4.0-0.44","9","Low_HMMActual","227","","","","Images/NewTrialWC.png","37"
"image-keyboard-response","153","248566","0.0-4.0-1.44","9","Low_HMMActual","null","","","","Images/BlackBeadChoice.png","null"
"image-keyboard-response","154","249266","0.0-4.0-2.44","9","Low_HMMActual","null","","","","Images/BlackBeadChoiceCorrect.png","null"
"image-keyboard-response","155","250579","0.0-4.0-0.45","9","Low_HMMActual","1311","","","","Images/NewTrialBC.png","37"
"image-keyboard-response","156","250980","0.0-4.0-1.45","9","Low_HMMActual","null","","","","Images/BlackBeadChoice.png","null"
"image-keyboard-response","157","251680","0.0-4.0-2.45","9","Low_HMMActual","null","","","","Images/BlackBeadChoiceWrong.png","null"
"image-keyboard-response","158","251933","0.0-4.0-0.46","9","Low_HMMActual","253","","","","Images/NewTrialWC.png","39"
"image-keyboard-response","159","252336","0.0-4.0-1.46","9","Low_HMMActual","null","","","","Images/WhiteBeadChoice.png","null"
"image-keyboard-response","160","253038","0.0-4.0-2.46","9","Low_HMMActual","null","","","","Images/WhiteBeadChoiceCorrect.png","null"
"image-keyboard-response","161","260691","0.0-4.0-0.47","9","Low_HMMActual","7653","","","","Images/NewTrialWC.png","37"
"image-keyboard-response","162","261092","0.0-4.0-1.47","9","Low_HMMActual","null","","","","Images/BlackBeadChoice.png","null"
"image-keyboard-response","163","261794","0.0-4.0-2.47","9","Low_HMMActual","null","","","","Images/BlackBeadChoiceWrong.png","null"
"image-keyboard-response","164","262270","0.0-4.0-0.48","9","Low_HMMActual","475","","","","Images/NewTrialWC.png","39"
"image-keyboard-response","165","262670","0.0-4.0-1.48","9","Low_HMMActual","null","","","","Images/WhiteBeadChoice.png","null"
"image-keyboard-response","166","263372","0.0-4.0-2.48","9","Low_HMMActual","null","","","","Images/WhiteBeadChoiceCorrect.png","null"
"image-keyboard-response","167","265347","0.0-4.0-0.49","9","Low_HMMActual","1975","","","","Images/NewTrialWC.png","37"
"image-keyboard-response","168","265749","0.0-4.0-1.49","9","Low_HMMActual","null","","","","Images/BlackBeadChoice.png","null"
"image-keyboard-response","169","266450","0.0-4.0-2.49","9","Low_HMMActual","null","","","","Images/BlackBeadChoiceWrong.png","null"
"image-keyboard-response","170","303969","0.0-4.0-0.50","9","Low_HMMActual","37518","","","","Images/NewTrialWC.png","39"
"image-keyboard-response","171","304369","0.0-4.0-1.50","9","Low_HMMActual","214","","","","Images/WhiteBeadChoice.png","39"
"image-keyboard-response","172","305070","0.0-4.0-2.50","9","Low_HMMActual","null","","","","Images/WhiteBeadChoiceCorrect.png","null"
"image-keyboard-response","173","308212","0.0-4.0-0.51","9","Low_HMMActual","3141","","","","Images/NewTrialWC.png","39"
"image-keyboard-response","174","308613","0.0-4.0-1.51","9","Low_HMMActual","null","","","","Images/WhiteBeadChoice.png","null"
"image-keyboard-response","175","309315","0.0-4.0-2.51","9","Low_HMMActual","null","","","","Images/WhiteBeadChoiceCorrect.png","null"
"image-keyboard-response","176","309548","0.0-4.0-0.52","9","Low_HMMActual","233","","","","Images/NewTrialWC.png","37"
"image-keyboard-response","177","309948","0.0-4.0-1.52","9","Low_HMMActual","null","","","","Images/BlackBeadChoice.png","null"
"image-keyboard-response","178","310649","0.0-4.0-2.52","9","Low_HMMActual","null","","","","Images/BlackBeadChoiceWrong.png","null"
"image-keyboard-response","179","311209","0.0-4.0-0.53","9","Low_HMMActual","558","","","","Images/NewTrialWC.png","37"
"image-keyboard-response","180","311609","0.0-4.0-1.53","9","Low_HMMActual","null","","","","Images/BlackBeadChoice.png","null"
"image-keyboard-response","181","312310","0.0-4.0-2.53","9","Low_HMMActual","null","","","","Images/BlackBeadChoiceWrong.png","null"
"image-keyboard-response","182","315506","0.0-4.0-0.54","9","Low_HMMActual","3195","","","","Images/NewTrialWC.png","39"
"image-keyboard-response","183","315908","0.0-4.0-1.54","9","Low_HMMActual","289","","","","Images/WhiteBeadChoice.png","39"
"image-keyboard-response","184","316610","0.0-4.0-2.54","9","Low_HMMActual","null","","","","Images/WhiteBeadChoiceCorrect.png","null"
"image-keyboard-response","185","317130","0.0-4.0-0.55","9","Low_HMMActual","520","","","","Images/NewTrialWC.png","37"
"image-keyboard-response","186","317531","0.0-4.0-1.55","9","Low_HMMActual","186","","","","Images/BlackBeadChoice.png","37"
"image-keyboard-response","187","318231","0.0-4.0-2.55","9","Low_HMMActual","null","","","","Images/BlackBeadChoiceWrong.png","null"
"image-keyboard-response","188","319353","0.0-4.0-0.56","9","Low_HMMActual","1121","","","","Images/NewTrialWC.png","37"
"image-keyboard-response","189","319754","0.0-4.0-1.56","9","Low_HMMActual","null","","","","Images/BlackBeadChoice.png","null"
"image-keyboard-response","190","320456","0.0-4.0-2.56","9","Low_HMMActual","null","","","","Images/BlackBeadChoiceWrong.png","null"
"image-keyboard-response","191","321187","0.0-4.0-0.57","9","Low_HMMActual","731","","","","Images/NewTrialWC.png","37"
"image-keyboard-response","192","321588","0.0-4.0-1.57","9","Low_HMMActual","null","","","","Images/BlackBeadChoice.png","null"
"image-keyboard-response","193","322290","0.0-4.0-2.57","9","Low_HMMActual","333","","","","Images/BlackBeadChoiceCorrect.png","39"
"image-keyboard-response","194","322424","0.0-4.0-0.58","9","Low_HMMActual","133","","","","Images/NewTrialBC.png","39"
"image-keyboard-response","195","322825","0.0-4.0-1.58","9","Low_HMMActual","226","","","","Images/WhiteBeadChoice.png","39"
"image-keyboard-response","196","323526","0.0-4.0-2.58","9","Low_HMMActual","70","","","","Images/WhiteBeadChoiceCorrect.png","39"
"image-keyboard-response","197","323798","0.0-4.0-0.59","9","Low_HMMActual","272","","","","Images/NewTrialWC.png","37"
"image-keyboard-response","198","324199","0.0-4.0-1.59","9","Low_HMMActual","233","","","","Images/BlackBeadChoice.png","37"
"image-keyboard-response","199","324900","0.0-4.0-2.59","9","Low_HMMActual","39","","","","Images/BlackBeadChoiceWrong.png","37"
"image-keyboard-response","200","325328","0.0-4.0-0.60","9","Low_HMMActual","427","","","","Images/NewTrialWC.png","39"
"image-keyboard-response","201","325730","0.0-4.0-1.60","9","Low_HMMActual","216","","","","Images/WhiteBeadChoice.png","39"
"image-keyboard-response","202","326432","0.0-4.0-2.60","9","Low_HMMActual","null","","","","Images/WhiteBeadChoiceCorrect.png","null"
"image-keyboard-response","203","326723","0.0-4.0-0.61","9","Low_HMMActual","290","","","","Images/NewTrialWC.png","37"
"image-keyboard-response","204","327124","0.0-4.0-1.61","9","Low_HMMActual","216","","","","Images/BlackBeadChoice.png","37"
"image-keyboard-response","205","327826","0.0-4.0-2.61","9","Low_HMMActual","52","","","","Images/BlackBeadChoiceCorrect.png","37"
"image-keyboard-response","206","328698","0.0-4.0-0.62","9","Low_HMMActual","872","","","","Images/NewTrialBC.png","39"
"image-keyboard-response","207","329099","0.0-4.0-1.62","9","Low_HMMActual","197","","","","Images/WhiteBeadChoice.png","39"
"image-keyboard-response","208","329800","0.0-4.0-2.62","9","Low_HMMActual","626","","","","Images/WhiteBeadChoiceCorrect.png","37"
"image-keyboard-response","209","329932","0.0-4.0-0.63","9","Low_HMMActual","132","","","","Images/NewTrialWC.png","37"
"image-keyboard-response","210","330334","0.0-4.0-1.63","9","Low_HMMActual","205","","","","Images/BlackBeadChoice.png","37"
"image-keyboard-response","211","331036","0.0-4.0-2.63","9","Low_HMMActual","26","","","","Images/BlackBeadChoiceWrong.png","37"
"image-keyboard-response","212","331046","0.0-4.0-0.64","9","Low_HMMActual","9","","","","Images/NewTrialWC.png","37"
"image-keyboard-response","213","331448","0.0-4.0-1.64","9","Low_HMMActual","201","","","","Images/BlackBeadChoice.png","37"
"image-keyboard-response","214","332149","0.0-4.0-2.64","9","Low_HMMActual","194","","","","Images/BlackBeadChoiceWrong.png","37"
"image-keyboard-response","215","332315","0.0-4.0-0.65","9","Low_HMMActual","164","","","","Images/NewTrialWC.png","39"
"image-keyboard-response","216","332716","0.0-4.0-1.65","9","Low_HMMActual","null","","","","Images/WhiteBeadChoice.png","null"
"image-keyboard-response","217","333418","0.0-4.0-2.65","9","Low_HMMActual","27","","","","Images/WhiteBeadChoiceCorrect.png","39"
"image-keyboard-response","218","333504","0.0-4.0-0.66","9","Low_HMMActual","86","","","","Images/NewTrialWC.png","39"
"image-keyboard-response","219","333905","0.0-4.0-1.66","9","Low_HMMActual","206","","","","Images/WhiteBeadChoice.png","39"
"image-keyboard-response","220","334605","0.0-4.0-2.66","9","Low_HMMActual","null","","","","Images/WhiteBeadChoiceCorrect.png","null"
"image-keyboard-response","221","402958","0.0-4.0-0.67","9","Low_HMMActual","68353","","","","Images/NewTrialWC.png","39"
"image-keyboard-response","222","403360","0.0-4.0-1.67","9","Low_HMMActual","null","","","","Images/WhiteBeadChoice.png","null"
"image-keyboard-response","223","404060","0.0-4.0-2.67","9","Low_HMMActual","328","","","","Images/WhiteBeadChoiceWrong.png","17"
"image-keyboard-response","224","404343","0.0-4.0-0.68","9","Low_HMMActual","282","","","","Images/NewTrialBC.png","37"
"image-keyboard-response","225","404743","0.0-4.0-1.68","9","Low_HMMActual","196","","","","Images/BlackBeadChoice.png","37"
"image-keyboard-response","226","405445","0.0-4.0-2.68","9","Low_HMMActual","null","","","","Images/BlackBeadChoiceCorrect.png","null"
"image-keyboard-response","227","405491","0.0-4.0-0.69","9","Low_HMMActual","44","","","","Images/NewTrialBC.png","39"
"image-keyboard-response","228","405893","0.0-4.0-1.69","9","Low_HMMActual","222","","","","Images/WhiteBeadChoice.png","39"
"image-keyboard-response","229","406594","0.0-4.0-2.69","9","Low_HMMActual","673","","","","Images/WhiteBeadChoiceWrong.png","37"
"image-keyboard-response","230","406764","0.0-4.0-0.70","9","Low_HMMActual","169","","","","Images/NewTrialBC.png","37"
"image-keyboard-response","231","407165","0.0-4.0-1.70","9","Low_HMMActual","null","","","","Images/BlackBeadChoice.png","null"
"image-keyboard-response","232","407866","0.0-4.0-2.70","9","Low_HMMActual","645","","","","Images/BlackBeadChoiceCorrect.png","39"
"image-keyboard-response","233","408034","0.0-4.0-0.71","9","Low_HMMActual","167","","","","Images/NewTrialBC.png","39"
"image-keyboard-response","234","408435","0.0-4.0-1.71","9","Low_HMMActual","null","","","","Images/WhiteBeadChoice.png","null"
"image-keyboard-response","235","409137","0.0-4.0-2.71","9","Low_HMMActual","null","","","","Images/WhiteBeadChoiceCorrect.png","null"
"image-keyboard-response","236","409397","0.0-4.0-0.72","9","Low_HMMActual","258","","","","Images/NewTrialWC.png","37"
"image-keyboard-response","237","409798","0.0-4.0-1.72","9","Low_HMMActual","181","","","","Images/BlackBeadChoice.png","37"
"image-keyboard-response","238","410499","0.0-4.0-2.72","9","Low_HMMActual","null","","","","Images/BlackBeadChoiceCorrect.png","null"
"image-keyboard-response","239","410618","0.0-4.0-0.73","9","Low_HMMActual","119","","","","Images/NewTrialBC.png","37"
"image-keyboard-response","240","411019","0.0-4.0-1.73","9","Low_HMMActual","174","","","","Images/BlackBeadChoice.png","37"
"image-keyboard-response","241","411720","0.0-4.0-2.73","9","Low_HMMActual","null","","","","Images/BlackBeadChoiceCorrect.png","null"
"image-keyboard-response","242","411820","0.0-4.0-0.74","9","Low_HMMActual","101","","","","Images/NewTrialBC.png","37"
"image-keyboard-response","243","412221","0.0-4.0-1.74","9","Low_HMMActual","170","","","","Images/BlackBeadChoice.png","37"
"image-keyboard-response","244","412923","0.0-4.0-2.74","9","Low_HMMActual","390","","","","Images/BlackBeadChoiceCorrect.png","39"
"image-keyboard-response","245","413002","0.0-4.0-0.75","9","Low_HMMActual","78","","","","Images/NewTrialBC.png","39"
"image-keyboard-response","246","413403","0.0-4.0-1.75","9","Low_HMMActual","182","","","","Images/WhiteBeadChoice.png","39"
"image-keyboard-response","247","414105","0.0-4.0-2.75","9","Low_HMMActual","null","","","","Images/WhiteBeadChoiceWrong.png","null"
"image-keyboard-response","248","414158","0.0-4.0-0.76","9","Low_HMMActual","53","","","","Images/NewTrialBC.png","39"
"image-keyboard-response","249","414559","0.0-4.0-1.76","9","Low_HMMActual","179","","","","Images/WhiteBeadChoice.png","39"
"image-keyboard-response","250","415261","0.0-4.0-2.76","9","Low_HMMActual","639","","","","Images/WhiteBeadChoiceCorrect.png","37"
"image-keyboard-response","251","415415","0.0-4.0-0.77","9","Low_HMMActual","154","","","","Images/NewTrialWC.png","37"
"image-keyboard-response","252","415815","0.0-4.0-1.77","9","Low_HMMActual","154","","","","Images/BlackBeadChoice.png","37"
"image-keyboard-response","253","416516","0.0-4.0-2.77","9","Low_HMMActual","581","","","","Images/BlackBeadChoiceCorrect.png","39"
"image-keyboard-response","254","416572","0.0-4.0-0.78","9","Low_HMMActual","55","","","","Images/NewTrialBC.png","39"
"image-keyboard-response","255","416973","0.0-4.0-1.78","9","Low_HMMActual","195","","","","Images/WhiteBeadChoice.png","39"
"image-keyboard-response","256","417673","0.0-4.0-2.78","9","Low_HMMActual","121","","","","Images/WhiteBeadChoiceWrong.png","39"
"image-keyboard-response","257","417912","0.0-4.0-0.79","9","Low_HMMActual","237","","","","Images/NewTrialBC.png","39"
"image-keyboard-response","258","418313","0.0-4.0-1.79","9","Low_HMMActual","180","","","","Images/WhiteBeadChoice.png","39"
"image-keyboard-response","259","419013","0.0-4.0-2.79","9","Low_HMMActual","132","","","","Images/WhiteBeadChoiceWrong.png","39"
"image-keyboard-response","260","419094","0.0-4.0-0.80","9","Low_HMMActual","80","","","","Images/NewTrialBC.png","37"
"image-keyboard-response","261","419495","0.0-4.0-1.80","9","Low_HMMActual","226","","","","Images/BlackBeadChoice.png","37"
"image-keyboard-response","262","420196","0.0-4.0-2.80","9","Low_HMMActual","12","","","","Images/BlackBeadChoiceWrong.png","37"
"image-keyboard-response","263","420372","0.0-4.0-0.81","9","Low_HMMActual","174","","","","Images/NewTrialWC.png","37"
"image-keyboard-response","264","420773","0.0-4.0-1.81","9","Low_HMMActual","212","","","","Images/BlackBeadChoice.png","37"
"image-keyboard-response","265","421473","0.0-4.0-2.81","9","Low_HMMActual","null","","","","Images/BlackBeadChoiceCorrect.png","null"
"image-keyboard-response","266","421496","0.0-4.0-0.82","9","Low_HMMActual","22","","","","Images/NewTrialBC.png","39"
"image-keyboard-response","267","421897","0.0-4.0-1.82","9","Low_HMMActual","235","","","","Images/WhiteBeadChoice.png","39"
"image-keyboard-response","268","422598","0.0-4.0-2.82","9","Low_HMMActual","59","","","","Images/WhiteBeadChoiceWrong.png","39"
"image-keyboard-response","269","423033","0.0-4.0-0.83","9","Low_HMMActual","436","","","","Images/NewTrialBC.png","39"
"image-keyboard-response","270","423435","0.0-4.0-1.83","9","Low_HMMActual","184","","","","Images/WhiteBeadChoice.png","39"
"image-keyboard-response","271","424136","0.0-4.0-2.83","9","Low_HMMActual","194","","","","Images/WhiteBeadChoiceWrong.png","39"
"image-keyboard-response","272","425071","0.0-4.0-0.84","9","Low_HMMActual","935","","","","Images/NewTrialBC.png","39"
"image-keyboard-response","273","425472","0.0-4.0-1.84","9","Low_HMMActual","220","","","","Images/WhiteBeadChoice.png","39"
"image-keyboard-response","274","426175","0.0-4.0-2.84","9","Low_HMMActual","null","","","","Images/WhiteBeadChoiceWrong.png","null"
"image-keyboard-response","275","426973","0.0-4.0-0.85","9","Low_HMMActual","798","","","","Images/NewTrialBC.png","37"
"image-keyboard-response","276","427373","0.0-4.0-1.85","9","Low_HMMActual","210","","","","Images/BlackBeadChoice.png","37"
"image-keyboard-response","277","428074","0.0-4.0-2.85","9","Low_HMMActual","null","","","","Images/BlackBeadChoiceCorrect.png","null"
"image-keyboard-response","278","430625","0.0-4.0-0.86","9","Low_HMMActual","2552","","","","Images/NewTrialBC.png","37"
"image-keyboard-response","279","431026","0.0-4.0-1.86","9","Low_HMMActual","181","","","","Images/BlackBeadChoice.png","37"
"image-keyboard-response","280","431728","0.0-4.0-2.86","9","Low_HMMActual","null","","","","Images/BlackBeadChoiceCorrect.png","null"
"image-keyboard-response","281","432292","0.0-4.0-0.87","9","Low_HMMActual","563","","","","Images/NewTrialBC.png","37"
"image-keyboard-response","282","432693","0.0-4.0-1.87","9","Low_HMMActual","235","","","","Images/BlackBeadChoice.png","37"
"image-keyboard-response","283","433394","0.0-4.0-2.87","9","Low_HMMActual","36","","","","Images/BlackBeadChoiceCorrect.png","37"
"image-keyboard-response","284","434775","0.0-4.0-0.88","9","Low_HMMActual","1380","","","","Images/NewTrialBC.png","37"
"image-keyboard-response","285","435175","0.0-4.0-1.88","9","Low_HMMActual","223","","","","Images/BlackBeadChoice.png","37"
"image-keyboard-response","286","435878","0.0-4.0-2.88","9","Low_HMMActual","15","","","","Images/BlackBeadChoiceCorrect.png","37"
"image-keyboard-response","287","435963","0.0-4.0-0.89","9","Low_HMMActual","86","","","","Images/NewTrialBC.png","39"
"image-keyboard-response","288","436365","0.0-4.0-1.89","9","Low_HMMActual","207","","","","Images/WhiteBeadChoice.png","39"
"image-keyboard-response","289","437067","0.0-4.0-2.89","9","Low_HMMActual","null","","","","Images/WhiteBeadChoiceWrong.png","null"
"image-keyboard-response","290","437618","0.0-4.0-0.90","9","Low_HMMActual","550","","","","Images/NewTrialBC.png","39"
"image-keyboard-response","291","438019","0.0-4.0-1.90","9","Low_HMMActual","194","","","","Images/WhiteBeadChoice.png","39"
"image-keyboard-response","292","438720","0.0-4.0-2.90","9","Low_HMMActual","null","","","","Images/WhiteBeadChoiceWrong.png","null"
"image-keyboard-response","293","438807","0.0-4.0-0.91","9","Low_HMMActual","86","","","","Images/NewTrialBC.png","37"
"image-keyboard-response","294","439208","0.0-4.0-1.91","9","Low_HMMActual","169","","","","Images/BlackBeadChoice.png","37"
"image-keyboard-response","295","439909","0.0-4.0-2.91","9","Low_HMMActual","109","","","","Images/BlackBeadChoiceCorrect.png","37"
"image-keyboard-response","296","440325","0.0-4.0-0.92","9","Low_HMMActual","414","","","","Images/NewTrialBC.png","37"
"image-keyboard-response","297","440726","0.0-4.0-1.92","9","Low_HMMActual","183","","","","Images/BlackBeadChoice.png","37"
"image-keyboard-response","298","441428","0.0-4.0-2.92","9","Low_HMMActual","462","","","","Images/BlackBeadChoiceCorrect.png","39"
"image-keyboard-response","299","441570","0.0-4.0-0.93","9","Low_HMMActual","141","","","","Images/NewTrialBC.png","39"
"image-keyboard-response","300","441971","0.0-4.0-1.93","9","Low_HMMActual","373","","","","Images/WhiteBeadChoice.png","39"
"image-keyboard-response","301","442673","0.0-4.0-2.93","9","Low_HMMActual","null","","","","Images/WhiteBeadChoiceWrong.png","null"
"image-keyboard-response","302","442974","0.0-4.0-0.94","9","Low_HMMActual","300","","","","Images/NewTrialBC.png","37"
"image-keyboard-response","303","443376","0.0-4.0-1.94","9","Low_HMMActual","167","","","","Images/BlackBeadChoice.png","37"
"image-keyboard-response","304","444076","0.0-4.0-2.94","9","Low_HMMActual","88","","","","Images/BlackBeadChoiceCorrect.png","37"
"image-keyboard-response","305","444385","0.0-4.0-0.95","9","Low_HMMActual","308","","","","Images/NewTrialBC.png","39"
"image-keyboard-response","306","444786","0.0-4.0-1.95","9","Low_HMMActual","197","","","","Images/WhiteBeadChoice.png","39"
"image-keyboard-response","307","445487","0.0-4.0-2.95","9","Low_HMMActual","142","","","","Images/WhiteBeadChoiceCorrect.png","39"
"image-keyboard-response","308","445493","0.0-4.0-0.96","9","Low_HMMActual","6","","","","Images/NewTrialWC.png","39"
"image-keyboard-response","309","445895","0.0-4.0-1.96","9","Low_HMMActual","197","","","","Images/WhiteBeadChoice.png","39"
"image-keyboard-response","310","446596","0.0-4.0-2.96","9","Low_HMMActual","104","","","","Images/WhiteBeadChoiceWrong.png","39"
"image-keyboard-response","311","446917","0.0-4.0-0.97","9","Low_HMMActual","321","","","","Images/NewTrialBC.png","37"
"image-keyboard-response","312","447318","0.0-4.0-1.97","9","Low_HMMActual","194","","","","Images/BlackBeadChoice.png","37"
"image-keyboard-response","313","448019","0.0-4.0-2.97","9","Low_HMMActual","133","","","","Images/BlackBeadChoiceCorrect.png","37"
"image-keyboard-response","314","448458","0.0-4.0-0.98","9","Low_HMMActual","439","","","","Images/NewTrialBC.png","37"
"image-keyboard-response","315","448858","0.0-4.0-1.98","9","Low_HMMActual","179","","","","Images/BlackBeadChoice.png","37"
"image-keyboard-response","316","449560","0.0-4.0-2.98","9","Low_HMMActual","113","","","","Images/BlackBeadChoiceCorrect.png","37"
"image-keyboard-response","317","449723","0.0-4.0-0.99","9","Low_HMMActual","162","","","","Images/NewTrialBC.png","37"
"image-keyboard-response","318","450125","0.0-4.0-1.99","9","Low_HMMActual","198","","","","Images/BlackBeadChoice.png","37"
"image-keyboard-response","319","450826","0.0-4.0-2.99","9","Low_HMMActual","127","","","","Images/BlackBeadChoiceCorrect.png","37"
"image-keyboard-response","320","451150","0.0-4.0-0.100","9","Low_HMMActual","325","","","","Images/NewTrialBC.png","39"
"image-keyboard-response","321","451551","0.0-4.0-1.100","9","Low_HMMActual","186","","","","Images/WhiteBeadChoice.png","39"
"image-keyboard-response","322","452251","0.0-4.0-2.100","9","Low_HMMActual","508","","","","Images/WhiteBeadChoiceWrong.png","37"
"image-keyboard-response","323","452268","0.0-4.0-0.101","9","Low_HMMActual","15","","","","Images/NewTrialBC.png","37"
"image-keyboard-response","324","452668","0.0-4.0-1.101","9","Low_HMMActual","182","","","","Images/BlackBeadChoice.png","37"
"image-keyboard-response","325","453370","0.0-4.0-2.101","9","Low_HMMActual","286","","","","Images/BlackBeadChoiceCorrect.png","37"
"image-keyboard-response","326","453463","0.0-4.0-0.102","9","Low_HMMActual","92","","","","Images/NewTrialBC.png","39"
"image-keyboard-response","327","453862","0.0-4.0-1.102","9","Low_HMMActual","204","","","","Images/WhiteBeadChoice.png","39"
"image-keyboard-response","328","454564","0.0-4.0-2.102","9","Low_HMMActual","144","","","","Images/WhiteBeadChoiceWrong.png","39"
"image-keyboard-response","329","454637","0.0-4.0-0.103","9","Low_HMMActual","73","","","","Images/NewTrialBC.png","37"
"image-keyboard-response","330","455038","0.0-4.0-1.103","9","Low_HMMActual","230","","","","Images/BlackBeadChoice.png","37"
"image-keyboard-response","331","455739","0.0-4.0-2.103","9","Low_HMMActual","7","","","","Images/BlackBeadChoiceCorrect.png","37"
"image-keyboard-response","332","455783","0.0-4.0-0.104","9","Low_HMMActual","43","","","","Images/NewTrialBC.png","37"
"image-keyboard-response","333","456183","0.0-4.0-1.104","9","Low_HMMActual","189","","","","Images/BlackBeadChoice.png","37"
"image-keyboard-response","334","456884","0.0-4.0-2.104","9","Low_HMMActual","141","","","","Images/BlackBeadChoiceCorrect.png","37"
"image-keyboard-response","335","457269","0.0-4.0-0.105","9","Low_HMMActual","384","","","","Images/NewTrialBC.png","39"
"image-keyboard-response","336","457669","0.0-4.0-1.105","9","Low_HMMActual","243","","","","Images/WhiteBeadChoice.png","39"
"image-keyboard-response","337","458370","0.0-4.0-2.105","9","Low_HMMActual","50","","","","Images/WhiteBeadChoiceWrong.png","39"
"image-keyboard-response","338","458677","0.0-4.0-0.106","9","Low_HMMActual","306","","","","Images/NewTrialBC.png","37"
"image-keyboard-response","339","459077","0.0-4.0-1.106","9","Low_HMMActual","188","","","","Images/BlackBeadChoice.png","37"
"image-keyboard-response","340","459778","0.0-4.0-2.106","9","Low_HMMActual","175","","","","Images/BlackBeadChoiceCorrect.png","37"
"image-keyboard-response","341","459787","0.0-4.0-0.107","9","Low_HMMActual","7","","","","Images/NewTrialBC.png","37"
"image-keyboard-response","342","460188","0.0-4.0-1.107","9","Low_HMMActual","206","","","","Images/BlackBeadChoice.png","37"
"image-keyboard-response","343","460890","0.0-4.0-2.107","9","Low_HMMActual","23","","","","Images/BlackBeadChoiceCorrect.png","37"
"image-keyboard-response","344","461092","0.0-4.0-0.108","9","Low_HMMActual","200","","","","Images/NewTrialBC.png","39"
"image-keyboard-response","345","461494","0.0-4.0-1.108","9","Low_HMMActual","212","","","","Images/WhiteBeadChoice.png","39"
"image-keyboard-response","346","462196","0.0-4.0-2.108","9","Low_HMMActual","60","","","","Images/WhiteBeadChoiceCorrect.png","39"
"image-keyboard-response","347","462394","0.0-4.0-0.109","9","Low_HMMActual","199","","","","Images/NewTrialWC.png","39"
"image-keyboard-response","348","462795","0.0-4.0-1.109","9","Low_HMMActual","271","","","","Images/WhiteBeadChoice.png","39"
"image-keyboard-response","349","463496","0.0-4.0-2.109","9","Low_HMMActual","168","","","","Images/WhiteBeadChoiceWrong.png","39"
"image-keyboard-response","350","463950","0.0-4.0-0.110","9","Low_HMMActual","452","","","","Images/NewTrialBC.png","39"
"image-keyboard-response","351","464352","0.0-4.0-1.110","9","Low_HMMActual","243","","","","Images/WhiteBeadChoice.png","39"
"image-keyboard-response","352","465052","0.0-4.0-2.110","9","Low_HMMActual","330","","","","Images/WhiteBeadChoiceWrong.png","37"
"image-keyboard-response","353","465153","0.0-4.0-0.111","9","Low_HMMActual","99","","","","Images/NewTrialBC.png","37"
"image-keyboard-response","354","465553","0.0-4.0-1.111","9","Low_HMMActual","204","","","","Images/BlackBeadChoice.png","37"
"image-keyboard-response","355","466255","0.0-4.0-2.111","9","Low_HMMActual","15","","","","Images/BlackBeadChoiceCorrect.png","37"
"image-keyboard-response","356","466279","0.0-4.0-0.112","9","Low_HMMActual","23","","","","Images/NewTrialBC.png","37"
"image-keyboard-response","357","466679","0.0-4.0-1.112","9","Low_HMMActual","169","","","","Images/BlackBeadChoice.png","37"
"image-keyboard-response","358","467381","0.0-4.0-2.112","9","Low_HMMActual","161","","","","Images/BlackBeadChoiceCorrect.png","37"
"image-keyboard-response","359","467452","0.0-4.0-0.113","9","Low_HMMActual","70","","","","Images/NewTrialBC.png","39"
"image-keyboard-response","360","467854","0.0-4.0-1.113","9","Low_HMMActual","255","","","","Images/WhiteBeadChoice.png","39"
"image-keyboard-response","361","468554","0.0-4.0-2.113","9","Low_HMMActual","96","","","","Images/WhiteBeadChoiceCorrect.png","39"
"image-keyboard-response","362","468705","0.0-4.0-0.114","9","Low_HMMActual","149","","","","Images/NewTrialWC.png","39"
"image-keyboard-response","363","469107","0.0-4.0-1.114","9","Low_HMMActual","194","","","","Images/WhiteBeadChoice.png","39"
"image-keyboard-response","364","469808","0.0-4.0-2.114","9","Low_HMMActual","17","","","","Images/WhiteBeadChoiceWrong.png","39"
"image-keyboard-response","365","469971","0.0-4.0-0.115","9","Low_HMMActual","161","","","","Images/NewTrialBC.png","37"
"image-keyboard-response","366","470372","0.0-4.0-1.115","9","Low_HMMActual","179","","","","Images/BlackBeadChoice.png","37"
"image-keyboard-response","367","471073","0.0-4.0-2.115","9","Low_HMMActual","157","","","","Images/BlackBeadChoiceCorrect.png","37"
"image-keyboard-response","368","471277","0.0-4.0-0.116","9","Low_HMMActual","203","","","","Images/NewTrialBC.png","37"
"image-keyboard-response","369","471677","0.0-4.0-1.116","9","Low_HMMActual","233","","","","Images/BlackBeadChoice.png","37"
"image-keyboard-response","370","472379","0.0-4.0-2.116","9","Low_HMMActual","41","","","","Images/BlackBeadChoiceWrong.png","37"
"image-keyboard-response","371","472480","0.0-4.0-0.117","9","Low_HMMActual","101","","","","Images/NewTrialWC.png","39"
"image-keyboard-response","372","472880","0.0-4.0-1.117","9","Low_HMMActual","249","","","","Images/WhiteBeadChoice.png","39"
"image-keyboard-response","373","473581","0.0-4.0-2.117","9","Low_HMMActual","107","","","","Images/WhiteBeadChoiceWrong.png","39"
"image-keyboard-response","374","473845","0.0-4.0-0.118","9","Low_HMMActual","263","","","","Images/NewTrialBC.png","39"
"image-keyboard-response","375","474246","0.0-4.0-1.118","9","Low_HMMActual","227","","","","Images/WhiteBeadChoice.png","39"
"image-keyboard-response","376","474947","0.0-4.0-2.118","9","Low_HMMActual","52","","","","Images/WhiteBeadChoiceWrong.png","39"
"image-keyboard-response","377","475035","0.0-4.0-0.119","9","Low_HMMActual","89","","","","Images/NewTrialBC.png","39"
"image-keyboard-response","378","475437","0.0-4.0-1.119","9","Low_HMMActual","253","","","","Images/WhiteBeadChoice.png","39"
"image-keyboard-response","379","476138","0.0-4.0-2.119","9","Low_HMMActual","82","","","","Images/WhiteBeadChoiceWrong.png","39"
"image-keyboard-response","380","476260","0.0-4.0-0.120","9","Low_HMMActual","122","","","","Images/NewTrialBC.png","37"
"image-keyboard-response","381","476660","0.0-4.0-1.120","9","Low_HMMActual","167","","","","Images/BlackBeadChoice.png","37"
"image-keyboard-response","382","477360","0.0-4.0-2.120","9","Low_HMMActual","127","","","","Images/BlackBeadChoiceWrong.png","37"
"image-keyboard-response","383","477518","0.0-4.0-0.121","9","Low_HMMActual","158","","","","Images/NewTrialWC.png","37"
"image-keyboard-response","384","477919","0.0-4.0-1.121","9","Low_HMMActual","180","","","","Images/BlackBeadChoice.png","37"
"image-keyboard-response","385","478621","0.0-4.0-2.121","9","Low_HMMActual","123","","","","Images/BlackBeadChoiceCorrect.png","37"
"image-keyboard-response","386","478853","0.0-4.0-0.122","9","Low_HMMActual","231","","","","Images/NewTrialBC.png","39"
"image-keyboard-response","387","479253","0.0-4.0-1.122","9","Low_HMMActual","205","","","","Images/WhiteBeadChoice.png","39"
"image-keyboard-response","388","479955","0.0-4.0-2.122","9","Low_HMMActual","34","","","","Images/WhiteBeadChoiceWrong.png","39"
"image-keyboard-response","389","480137","0.0-4.0-0.123","9","Low_HMMActual","182","","","","Images/NewTrialBC.png","39"
"image-keyboard-response","390","480539","0.0-4.0-1.123","9","Low_HMMActual","227","","","","Images/WhiteBeadChoice.png","39"
"image-keyboard-response","391","481241","0.0-4.0-2.123","9","Low_HMMActual","51","","","","Images/WhiteBeadChoiceWrong.png","39"
"image-keyboard-response","392","481508","0.0-4.0-0.124","9","Low_HMMActual","266","","","","Images/NewTrialBC.png","39"
"image-keyboard-response","393","481909","0.0-4.0-1.124","9","Low_HMMActual","292","","","","Images/WhiteBeadChoice.png","39"
"image-keyboard-response","394","482611","0.0-4.0-2.124","9","Low_HMMActual","286","","","","Images/WhiteBeadChoiceWrong.png","37"
"image-keyboard-response","395","482760","0.0-4.0-0.125","9","Low_HMMActual","148","","","","Images/NewTrialBC.png","37"
"image-keyboard-response","396","483161","0.0-4.0-1.125","9","Low_HMMActual","195","","","","Images/BlackBeadChoice.png","37"
"image-keyboard-response","397","483861","0.0-4.0-2.125","9","Low_HMMActual","182","","","","Images/BlackBeadChoiceCorrect.png","37"
"image-keyboard-response","398","483949","0.0-4.0-0.126","9","Low_HMMActual","86","","","","Images/NewTrialBC.png","37"
"image-keyboard-response","399","484349","0.0-4.0-1.126","9","Low_HMMActual","359","","","","Images/BlackBeadChoice.png","37"
"image-keyboard-response","400","485050","0.0-4.0-2.126","9","Low_HMMActual","287","","","","Images/BlackBeadChoiceCorrect.png","37"
"image-keyboard-response","401","485069","0.0-4.0-0.127","9","Low_HMMActual","19","","","","Images/NewTrialBC.png","37"
"image-keyboard-response","402","485470","0.0-4.0-1.127","9","Low_HMMActual","null","","","","Images/BlackBeadChoice.png","null"
"image-keyboard-response","403","486171","0.0-4.0-2.127","9","Low_HMMActual","195","","","","Images/BlackBeadChoiceCorrect.png","37"
"image-keyboard-response","404","486393","0.0-4.0-0.128","9","Low_HMMActual","221","","","","Images/NewTrialBC.png","39"
"image-keyboard-response","405","486794","0.0-4.0-1.128","9","Low_HMMActual","224","","","","Images/WhiteBeadChoice.png","39"
"image-keyboard-response","406","487494","0.0-4.0-2.128","9","Low_HMMActual","35","","","","Images/WhiteBeadChoiceWrong.png","39"
"image-keyboard-response","407","487616","0.0-4.0-0.129","9","Low_HMMActual","120","","","","Images/NewTrialBC.png","39"
"image-keyboard-response","408","488016","0.0-4.0-1.129","9","Low_HMMActual","227","","","","Images/WhiteBeadChoice.png","39"
"image-keyboard-response","409","488717","0.0-4.0-2.129","9","Low_HMMActual","48","","","","Images/WhiteBeadChoiceWrong.png","39"
"image-keyboard-response","410","488894","0.0-4.0-0.130","9","Low_HMMActual","177","","","","Images/NewTrialBC.png","37"
"image-keyboard-response","411","489294","0.0-4.0-1.130","9","Low_HMMActual","200","","","","Images/BlackBeadChoice.png","37"
"image-keyboard-response","412","489996","0.0-4.0-2.130","9","Low_HMMActual","28","","","","Images/BlackBeadChoiceCorrect.png","37"
"image-keyboard-response","413","490107","0.0-4.0-0.131","9","Low_HMMActual","110","","","","Images/NewTrialBC.png","37"
"image-keyboard-response","414","490507","0.0-4.0-1.131","9","Low_HMMActual","168","","","","Images/BlackBeadChoice.png","37"
"image-keyboard-response","415","491208","0.0-4.0-2.131","9","Low_HMMActual","91","","","","Images/BlackBeadChoiceCorrect.png","37"
"image-keyboard-response","416","491258","0.0-4.0-0.132","9","Low_HMMActual","49","","","","Images/NewTrialBC.png","39"
"image-keyboard-response","417","491659","0.0-4.0-1.132","9","Low_HMMActual","372","","","","Images/WhiteBeadChoice.png","39"
"image-keyboard-response","418","492360","0.0-4.0-2.132","9","Low_HMMActual","136","","","","Images/WhiteBeadChoiceWrong.png","39"
"image-keyboard-response","419","492424","0.0-4.0-0.133","9","Low_HMMActual","63","","","","Images/NewTrialBC.png","39"
"image-keyboard-response","420","492825","0.0-4.0-1.133","9","Low_HMMActual","230","","","","Images/WhiteBeadChoice.png","39"
"image-keyboard-response","421","493526","0.0-4.0-2.133","9","Low_HMMActual","19","","","","Images/WhiteBeadChoiceWrong.png","39"
"image-keyboard-response","422","493844","0.0-4.0-0.134","9","Low_HMMActual","319","","","","Images/NewTrialBC.png","39"
"image-keyboard-response","423","494246","0.0-4.0-1.134","9","Low_HMMActual","240","","","","Images/WhiteBeadChoice.png","37"
"image-keyboard-response","424","494947","0.0-4.0-2.134","9","Low_HMMActual","35","","","","Images/WhiteBeadChoiceWrong.png","37"
"image-keyboard-response","425","495047","0.0-4.0-0.135","9","Low_HMMActual","99","","","","Images/NewTrialBC.png","37"
"image-keyboard-response","426","495448","0.0-4.0-1.135","9","Low_HMMActual","193","","","","Images/BlackBeadChoice.png","37"
"image-keyboard-response","427","496149","0.0-4.0-2.135","9","Low_HMMActual","126","","","","Images/BlackBeadChoiceCorrect.png","37"
"image-keyboard-response","428","502494","0.0-4.0-0.136","9","Low_HMMActual","6344","","","","Images/NewTrialBC.png","39"
"image-keyboard-response","429","502897","0.0-4.0-1.136","9","Low_HMMActual","186","","","","Images/WhiteBeadChoice.png","39"
"image-keyboard-response","430","503597","0.0-4.0-2.136","9","Low_HMMActual","156","","","","Images/WhiteBeadChoiceWrong.png","39"
"image-keyboard-response","431","503636","0.0-4.0-0.137","9","Low_HMMActual","38","","","","Images/NewTrialBC.png","39"
"image-keyboard-response","432","504036","0.0-4.0-1.137","9","Low_HMMActual","217","","","","Images/WhiteBeadChoice.png","39"
"image-keyboard-response","433","504738","0.0-4.0-2.137","9","Low_HMMActual","11","","","","Images/WhiteBeadChoiceWrong.png","39"
"image-keyboard-response","434","505240","0.0-4.0-0.138","9","Low_HMMActual","502","","","","Images/NewTrialBC.png","37"
"image-keyboard-response","435","505640","0.0-4.0-1.138","9","Low_HMMActual","183","","","","Images/BlackBeadChoice.png","37"
"image-keyboard-response","436","506342","0.0-4.0-2.138","9","Low_HMMActual","419","","","","Images/BlackBeadChoiceCorrect.png","37"
"image-keyboard-response","437","506470","0.0-4.0-0.139","9","Low_HMMActual","127","","","","Images/NewTrialBC.png","37"
"image-keyboard-response","438","506870","0.0-4.0-1.139","9","Low_HMMActual","199","","","","Images/BlackBeadChoice.png","37"
"image-keyboard-response","439","507572","0.0-4.0-2.139","9","Low_HMMActual","149","","","","Images/BlackBeadChoiceCorrect.png","37"
"image-keyboard-response","440","507585","0.0-4.0-0.140","9","Low_HMMActual","13","","","","Images/NewTrialBC.png","39"
"image-keyboard-response","441","507987","0.0-4.0-1.140","9","Low_HMMActual","214","","","","Images/WhiteBeadChoice.png","39"
"image-keyboard-response","442","508687","0.0-4.0-2.140","9","Low_HMMActual","18","","","","Images/WhiteBeadChoiceCorrect.png","39"
"image-keyboard-response","443","508777","0.0-4.0-0.141","9","Low_HMMActual","89","","","","Images/NewTrialWC.png","39"
"image-keyboard-response","444","509178","0.0-4.0-1.141","9","Low_HMMActual","210","","","","Images/WhiteBeadChoice.png","39"
"image-keyboard-response","445","509879","0.0-4.0-2.141","9","Low_HMMActual","207","","","","Images/WhiteBeadChoiceWrong.png","37"
"image-keyboard-response","446","509972","0.0-4.0-0.142","9","Low_HMMActual","93","","","","Images/NewTrialBC.png","37"
"image-keyboard-response","447","510372","0.0-4.0-1.142","9","Low_HMMActual","196","","","","Images/BlackBeadChoice.png","37"
"image-keyboard-response","448","511072","0.0-4.0-2.142","9","Low_HMMActual","176","","","","Images/BlackBeadChoiceCorrect.png","37"
"image-keyboard-response","449","511075","0.0-4.0-0.143","9","Low_HMMActual","1","","","","Images/NewTrialBC.png","37"
"image-keyboard-response","450","511475","0.0-4.0-1.143","9","Low_HMMActual","157","","","","Images/BlackBeadChoice.png","37"
"image-keyboard-response","451","512177","0.0-4.0-2.143","9","Low_HMMActual","52","","","","Images/BlackBeadChoiceCorrect.png","39"
"image-keyboard-response","452","534010","0.0-4.0-0.144","9","Low_HMMActual","21832","","","","Images/NewTrialBC.png","39"
"image-keyboard-response","453","534410","0.0-4.0-1.144","9","Low_HMMActual","269","","","","Images/WhiteBeadChoice.png","39"
"image-keyboard-response","454","535111","0.0-4.0-2.144","9","Low_HMMActual","null","","","","Images/WhiteBeadChoiceWrong.png","null"
"image-keyboard-response","455","535489","0.0-4.0-0.145","9","Low_HMMActual","376","","","","Images/NewTrialBC.png","39"
"image-keyboard-response","456","535891","0.0-4.0-1.145","9","Low_HMMActual","272","","","","Images/WhiteBeadChoice.png","39"
"image-keyboard-response","457","536591","0.0-4.0-2.145","9","Low_HMMActual","497","","","","Images/WhiteBeadChoiceWrong.png","37"
"image-keyboard-response","458","536611","0.0-4.0-0.146","9","Low_HMMActual","19","","","","Images/NewTrialBC.png","37"
"image-keyboard-response","459","537013","0.0-4.0-1.146","9","Low_HMMActual","173","","","","Images/BlackBeadChoice.png","37"
"image-keyboard-response","460","537714","0.0-4.0-2.146","9","Low_HMMActual","6","","","","Images/BlackBeadChoiceWrong.png","37"
"image-keyboard-response","461","537956","0.0-4.0-0.147","9","Low_HMMActual","242","","","","Images/NewTrialWC.png","37"
"image-keyboard-response","462","538357","0.0-4.0-1.147","9","Low_HMMActual","194","","","","Images/BlackBeadChoice.png","37"
"image-keyboard-response","463","539057","0.0-4.0-2.147","9","Low_HMMActual","259","","","","Images/BlackBeadChoiceCorrect.png","37"
"image-keyboard-response","464","539073","0.0-4.0-0.148","9","Low_HMMActual","15","","","","Images/NewTrialBC.png","37"
"image-keyboard-response","465","539474","0.0-4.0-1.148","9","Low_HMMActual","207","","","","Images/BlackBeadChoice.png","37"
"image-keyboard-response","466","540174","0.0-4.0-2.148","9","Low_HMMActual","207","","","","Images/BlackBeadChoiceCorrect.png","37"
"image-keyboard-response","467","540331","0.0-4.0-0.149","9","Low_HMMActual","156","","","","Images/NewTrialBC.png","37"
"image-keyboard-response","468","540732","0.0-4.0-1.149","9","Low_HMMActual","229","","","","Images/BlackBeadChoice.png","37"
"image-keyboard-response","469","541433","0.0-4.0-2.149","9","Low_HMMActual","264","","","","Images/BlackBeadChoiceCorrect.png","39"
"image-keyboard-response","470","541547","0.0-4.0-0.150","9","Low_HMMActual","112","","","","Images/NewTrialBC.png","39"
"image-keyboard-response","471","541950","0.0-4.0-1.150","9","Low_HMMActual","231","","","","Images/WhiteBeadChoice.png","39"
"image-keyboard-response","472","542650","0.0-4.0-2.150","9","Low_HMMActual","64","","","","Images/WhiteBeadChoiceWrong.png","39"
"image-keyboard-response","473","542745","0.0-4.0-0.151","9","Low_HMMActual","94","","","","Images/NewTrialBC.png","39"
"image-keyboard-response","474","543147","0.0-4.0-1.151","9","Low_HMMActual","252","","","","Images/WhiteBeadChoice.png","39"
"image-keyboard-response","475","543849","0.0-4.0-2.151","9","Low_HMMActual","82","","","","Images/WhiteBeadChoiceCorrect.png","39"
"image-keyboard-response","476","543873","0.0-4.0-0.152","9","Low_HMMActual","24","","","","Images/NewTrialWC.png","39"
"image-keyboard-response","477","544275","0.0-4.0-1.152","9","Low_HMMActual","221","","","","Images/WhiteBeadChoice.png","39"
"image-keyboard-response","478","544977","0.0-4.0-2.152","9","Low_HMMActual","94","","","","Images/WhiteBeadChoiceWrong.png","39"
"image-keyboard-response","479","545156","0.0-4.0-0.153","9","Low_HMMActual","178","","","","Images/NewTrialBC.png","39"
"image-keyboard-response","480","545557","0.0-4.0-1.153","9","Low_HMMActual","296","","","","Images/WhiteBeadChoice.png","39"
"image-keyboard-response","481","546259","0.0-4.0-2.153","9","Low_HMMActual","150","","","","Images/WhiteBeadChoiceWrong.png","39"
"image-keyboard-response","482","546439","0.0-4.0-0.154","9","Low_HMMActual","180","","","","Images/NewTrialBC.png","37"
"image-keyboard-response","483","546841","0.0-4.0-1.154","9","Low_HMMActual","241","","","","Images/BlackBeadChoice.png","37"
"image-keyboard-response","484","547543","0.0-4.0-2.154","9","Low_HMMActual","41","","","","Images/BlackBeadChoiceCorrect.png","37"
"image-keyboard-response","485","547689","0.0-4.0-0.155","9","Low_HMMActual","147","","","","Images/NewTrialBC.png","37"
"image-keyboard-response","486","548090","0.0-4.0-1.155","9","Low_HMMActual","230","","","","Images/BlackBeadChoice.png","37"
"image-keyboard-response","487","548791","0.0-4.0-2.155","9","Low_HMMActual","56","","","","Images/BlackBeadChoiceCorrect.png","37"
"image-keyboard-response","488","549070","0.0-4.0-0.156","9","Low_HMMActual","279","","","","Images/NewTrialBC.png","37"
"image-keyboard-response","489","549470","0.0-4.0-1.156","9","Low_HMMActual","239","","","","Images/BlackBeadChoice.png","37"
"image-keyboard-response","490","550172","0.0-4.0-2.156","9","Low_HMMActual","72","","","","Images/BlackBeadChoiceCorrect.png","37"
"image-keyboard-response","491","550455","0.0-4.0-0.157","9","Low_HMMActual","282","","","","Images/NewTrialBC.png","39"
"image-keyboard-response","492","550856","0.0-4.0-1.157","9","Low_HMMActual","273","","","","Images/WhiteBeadChoice.png","39"
"image-keyboard-response","493","551557","0.0-4.0-2.157","9","Low_HMMActual","257","","","","Images/WhiteBeadChoiceWrong.png","39"
"image-keyboard-response","494","551590","0.0-4.0-0.158","9","Low_HMMActual","33","","","","Images/NewTrialBC.png","39"
"image-keyboard-response","495","551990","0.0-4.0-1.158","9","Low_HMMActual","250","","","","Images/WhiteBeadChoice.png","39"
"image-keyboard-response","496","552691","0.0-4.0-2.158","9","Low_HMMActual","213","","","","Images/WhiteBeadChoiceWrong.png","39"
"image-keyboard-response","497","552769","0.0-4.0-0.159","9","Low_HMMActual","78","","","","Images/NewTrialBC.png","39"
"image-keyboard-response","498","553171","0.0-4.0-1.159","9","Low_HMMActual","322","","","","Images/WhiteBeadChoice.png","39"
"image-keyboard-response","499","553872","0.0-4.0-2.159","9","Low_HMMActual","98","","","","Images/WhiteBeadChoiceWrong.png","39"
"image-keyboard-response","500","554121","0.0-4.0-0.160","9","Low_HMMActual","248","","","","Images/NewTrialBC.png","37"
"image-keyboard-response","501","554522","0.0-4.0-1.160","9","Low_HMMActual","221","","","","Images/BlackBeadChoice.png","37"
"image-keyboard-response","502","555223","0.0-4.0-2.160","9","Low_HMMActual","24","","","","Images/BlackBeadChoiceCorrect.png","37"
"image-keyboard-response","503","555440","0.0-4.0-0.161","9","Low_HMMActual","215","","","","Images/NewTrialBC.png","37"
"image-keyboard-response","504","555840","0.0-4.0-1.161","9","Low_HMMActual","243","","","","Images/BlackBeadChoice.png","37"
"image-keyboard-response","505","556541","0.0-4.0-2.161","9","Low_HMMActual","67","","","","Images/BlackBeadChoiceCorrect.png","37"
"image-keyboard-response","506","558017","0.0-4.0-0.162","9","Low_HMMActual","1475","","","","Images/NewTrialBC.png","39"
"image-keyboard-response","507","558418","0.0-4.0-1.162","9","Low_HMMActual","196","","","","Images/WhiteBeadChoice.png","39"
"image-keyboard-response","508","559120","0.0-4.0-2.162","9","Low_HMMActual","12","","","","Images/WhiteBeadChoiceWrong.png","39"
"image-keyboard-response","509","563420","0.0-4.0-0.163","9","Low_HMMActual","4299","","","","Images/NewTrialBC.png","39"
"image-keyboard-response","510","563820","0.0-4.0-1.163","9","Low_HMMActual","171","","","","Images/WhiteBeadChoice.png","39"
"image-keyboard-response","511","564522","0.0-4.0-2.163","9","Low_HMMActual","142","","","","Images/WhiteBeadChoiceWrong.png","39"
"image-keyboard-response","512","564701","0.0-4.0-0.164","9","Low_HMMActual","177","","","","Images/NewTrialBC.png","37"
"image-keyboard-response","513","565102","0.0-4.0-1.164","9","Low_HMMActual","214","","","","Images/BlackBeadChoice.png","37"
"image-keyboard-response","514","565804","0.0-4.0-2.164","9","Low_HMMActual","27","","","","Images/BlackBeadChoiceCorrect.png","37"
"image-keyboard-response","515","566385","0.0-4.0-0.165","9","Low_HMMActual","580","","","","Images/NewTrialBC.png","37"
"image-keyboard-response","516","566785","0.0-4.0-1.165","9","Low_HMMActual","203","","","","Images/BlackBeadChoice.png","37"
"image-keyboard-response","517","567487","0.0-4.0-2.165","9","Low_HMMActual","null","","","","Images/BlackBeadChoiceCorrect.png","null"
"image-keyboard-response","518","567565","0.0-4.0-0.166","9","Low_HMMActual","78","","","","Images/NewTrialBC.png","39"
"image-keyboard-response","519","567967","0.0-4.0-1.166","9","Low_HMMActual","269","","","","Images/WhiteBeadChoice.png","39"
"image-keyboard-response","520","568667","0.0-4.0-2.166","9","Low_HMMActual","168","","","","Images/WhiteBeadChoiceCorrect.png","39"
"image-keyboard-response","521","568769","0.0-4.0-0.167","9","Low_HMMActual","101","","","","Images/NewTrialWC.png","39"
"image-keyboard-response","522","569170","0.0-4.0-1.167","9","Low_HMMActual","367","","","","Images/WhiteBeadChoice.png","39"
"image-keyboard-response","523","569871","0.0-4.0-2.167","9","Low_HMMActual","466","","","","Images/WhiteBeadChoiceCorrect.png","37"
"image-keyboard-response","524","570077","0.0-4.0-0.168","9","Low_HMMActual","206","","","","Images/NewTrialWC.png","37"
"image-keyboard-response","525","570479","0.0-4.0-1.168","9","Low_HMMActual","262","","","","Images/BlackBeadChoice.png","37"
"image-keyboard-response","526","571180","0.0-4.0-2.168","9","Low_HMMActual","100","","","","Images/BlackBeadChoiceCorrect.png","37"
"image-keyboard-response","527","571315","0.0-4.0-0.169","9","Low_HMMActual","135","","","","Images/NewTrialBC.png","37"
"image-keyboard-response","528","571715","0.0-4.0-1.169","9","Low_HMMActual","233","","","","Images/BlackBeadChoice.png","37"
"image-keyboard-response","529","572416","0.0-4.0-2.169","9","Low_HMMActual","68","","","","Images/BlackBeadChoiceCorrect.png","37"
"image-keyboard-response","530","572561","0.0-4.0-0.170","9","Low_HMMActual","143","","","","Images/NewTrialBC.png","37"
"image-keyboard-response","531","572961","0.0-4.0-1.170","9","Low_HMMActual","null","","","","Images/BlackBeadChoice.png","null"
"image-keyboard-response","532","573663","0.0-4.0-2.170","9","Low_HMMActual","193","","","","Images/BlackBeadChoiceCorrect.png","37"
"image-keyboard-response","533","573726","0.0-4.0-0.171","9","Low_HMMActual","62","","","","Images/NewTrialBC.png","37"
"image-keyboard-response","534","574126","0.0-4.0-1.171","9","Low_HMMActual","253","","","","Images/BlackBeadChoice.png","37"
"image-keyboard-response","535","574827","0.0-4.0-2.171","9","Low_HMMActual","99","","","","Images/BlackBeadChoiceCorrect.png","37"
"image-keyboard-response","536","574996","0.0-4.0-0.172","9","Low_HMMActual","169","","","","Images/NewTrialBC.png","37"
"image-keyboard-response","537","575398","0.0-4.0-1.172","9","Low_HMMActual","253","","","","Images/BlackBeadChoice.png","37"
"image-keyboard-response","538","576099","0.0-4.0-2.172","9","Low_HMMActual","84","","","","Images/BlackBeadChoiceCorrect.png","37"
"image-keyboard-response","539","576188","0.0-4.0-0.173","9","Low_HMMActual","88","","","","Images/NewTrialBC.png","37"
"image-keyboard-response","540","576589","0.0-4.0-1.173","9","Low_HMMActual","221","","","","Images/BlackBeadChoice.png","37"
"image-keyboard-response","541","577290","0.0-4.0-2.173","9","Low_HMMActual","37","","","","Images/BlackBeadChoiceWrong.png","37"
"image-keyboard-response","542","577521","0.0-4.0-0.174","9","Low_HMMActual","230","","","","Images/NewTrialWC.png","37"
"image-keyboard-response","543","577922","0.0-4.0-1.174","9","Low_HMMActual","265","","","","Images/BlackBeadChoice.png","37"
"image-keyboard-response","544","578624","0.0-4.0-2.174","9","Low_HMMActual","113","","","","Images/BlackBeadChoiceCorrect.png","37"
"image-keyboard-response","545","578825","0.0-4.0-0.175","9","Low_HMMActual","200","","","","Images/NewTrialBC.png","39"
"image-keyboard-response","546","579225","0.0-4.0-1.175","9","Low_HMMActual","240","","","","Images/WhiteBeadChoice.png","39"
"image-keyboard-response","547","579926","0.0-4.0-2.175","9","Low_HMMActual","94","","","","Images/WhiteBeadChoiceWrong.png","39"
"image-keyboard-response","548","580143","0.0-4.0-0.176","9","Low_HMMActual","215","","","","Images/NewTrialBC.png","37"
"image-keyboard-response","549","580544","0.0-4.0-1.176","9","Low_HMMActual","216","","","","Images/BlackBeadChoice.png","37"
"image-keyboard-response","550","581245","0.0-4.0-2.176","9","Low_HMMActual","279","","","","Images/BlackBeadChoiceCorrect.png","37"
"image-keyboard-response","551","581401","0.0-4.0-0.177","9","Low_HMMActual","155","","","","Images/NewTrialBC.png","37"
"image-keyboard-response","552","581802","0.0-4.0-1.177","9","Low_HMMActual","241","","","","Images/BlackBeadChoice.png","37"
"image-keyboard-response","553","582502","0.0-4.0-2.177","9","Low_HMMActual","59","","","","Images/BlackBeadChoiceCorrect.png","37"
"image-keyboard-response","554","582611","0.0-4.0-0.178","9","Low_HMMActual","108","","","","Images/NewTrialBC.png","39"
"image-keyboard-response","555","583012","0.0-4.0-1.178","9","Low_HMMActual","241","","","","Images/WhiteBeadChoice.png","39"
"image-keyboard-response","556","583713","0.0-4.0-2.178","9","Low_HMMActual","86","","","","Images/WhiteBeadChoiceWrong.png","39"
"image-keyboard-response","557","583982","0.0-4.0-0.179","9","Low_HMMActual","269","","","","Images/NewTrialBC.png","37"
"image-keyboard-response","558","584384","0.0-4.0-1.179","9","Low_HMMActual","237","","","","Images/BlackBeadChoice.png","37"
"image-keyboard-response","559","585085","0.0-4.0-2.179","9","Low_HMMActual","31","","","","Images/BlackBeadChoiceCorrect.png","37"
"image-keyboard-response","560","585180","0.0-4.0-0.180","9","Low_HMMActual","95","","","","Images/NewTrialBC.png","37"
"image-keyboard-response","561","585581","0.0-4.0-1.180","9","Low_HMMActual","264","","","","Images/BlackBeadChoice.png","37"
"image-keyboard-response","562","586282","0.0-4.0-2.180","9","Low_HMMActual","99","","","","Images/BlackBeadChoiceWrong.png","37"
"image-keyboard-response","563","586391","0.0-4.0-0.181","9","Low_HMMActual","109","","","","Images/NewTrialWC.png","37"
"image-keyboard-response","564","586793","0.0-4.0-1.181","9","Low_HMMActual","235","","","","Images/BlackBeadChoice.png","37"
"image-keyboard-response","565","587495","0.0-4.0-2.181","9","Low_HMMActual","64","","","","Images/BlackBeadChoiceCorrect.png","37"
"image-keyboard-response","566","587673","0.0-4.0-0.182","9","Low_HMMActual","177","","","","Images/NewTrialBC.png","37"
"image-keyboard-response","567","588075","0.0-4.0-1.182","9","Low_HMMActual","314","","","","Images/BlackBeadChoice.png","37"
"image-keyboard-response","568","588775","0.0-4.0-2.182","9","Low_HMMActual","146","","","","Images/BlackBeadChoiceCorrect.png","37"
"image-keyboard-response","569","589061","0.0-4.0-0.183","9","Low_HMMActual","285","","","","Images/NewTrialBC.png","39"
"image-keyboard-response","570","589463","0.0-4.0-1.183","9","Low_HMMActual","290","","","","Images/WhiteBeadChoice.png","39"
"image-keyboard-response","571","590164","0.0-4.0-2.183","9","Low_HMMActual","206","","","","Images/WhiteBeadChoiceWrong.png","39"
"image-keyboard-response","572","590290","0.0-4.0-0.184","9","Low_HMMActual","126","","","","Images/NewTrialBC.png","39"
"image-keyboard-response","573","590690","0.0-4.0-1.184","9","Low_HMMActual","289","","","","Images/WhiteBeadChoice.png","39"
"image-keyboard-response","574","591391","0.0-4.0-2.184","9","Low_HMMActual","232","","","","Images/WhiteBeadChoiceWrong.png","39"
"image-keyboard-response","575","591550","0.0-4.0-0.185","9","Low_HMMActual","160","","","","Images/NewTrialBC.png","39"
"image-keyboard-response","576","591952","0.0-4.0-1.185","9","Low_HMMActual","262","","","","Images/WhiteBeadChoice.png","39"
"image-keyboard-response","577","592653","0.0-4.0-2.185","9","Low_HMMActual","277","","","","Images/WhiteBeadChoiceCorrect.png","37"
"image-keyboard-response","578","592689","0.0-4.0-0.186","9","Low_HMMActual","35","","","","Images/NewTrialWC.png","37"
"image-keyboard-response","579","593090","0.0-4.0-1.186","9","Low_HMMActual","null","","","","Images/BlackBeadChoice.png","null"
"image-keyboard-response","580","593792","0.0-4.0-2.186","9","Low_HMMActual","28","","","","Images/BlackBeadChoiceCorrect.png","37"
"image-keyboard-response","581","594008","0.0-4.0-0.187","9","Low_HMMActual","214","","","","Images/NewTrialBC.png","37"
"image-keyboard-response","582","594408","0.0-4.0-1.187","9","Low_HMMActual","233","","","","Images/BlackBeadChoice.png","37"
"image-keyboard-response","583","595110","0.0-4.0-2.187","9","Low_HMMActual","26","","","","Images/BlackBeadChoiceCorrect.png","37"
"image-keyboard-response","584","595260","0.0-4.0-0.188","9","Low_HMMActual","149","","","","Images/NewTrialBC.png","39"
"image-keyboard-response","585","595662","0.0-4.0-1.188","9","Low_HMMActual","261","","","","Images/WhiteBeadChoice.png","39"
"image-keyboard-response","586","596364","0.0-4.0-2.188","9","Low_HMMActual","272","","","","Images/WhiteBeadChoiceWrong.png","39"
"image-keyboard-response","587","596447","0.0-4.0-0.189","9","Low_HMMActual","83","","","","Images/NewTrialBC.png","37"
"image-keyboard-response","588","596849","0.0-4.0-1.189","9","Low_HMMActual","247","","","","Images/BlackBeadChoice.png","37"
"image-keyboard-response","589","597551","0.0-4.0-2.189","9","Low_HMMActual","70","","","","Images/BlackBeadChoiceCorrect.png","37"
"image-keyboard-response","590","597583","0.0-4.0-0.190","9","Low_HMMActual","31","","","","Images/NewTrialBC.png","39"
"image-keyboard-response","591","597984","0.0-4.0-1.190","9","Low_HMMActual","230","","","","Images/WhiteBeadChoice.png","39"
"image-keyboard-response","592","598684","0.0-4.0-2.190","9","Low_HMMActual","57","","","","Images/WhiteBeadChoiceWrong.png","39"
"image-keyboard-response","593","598810","0.0-4.0-0.191","9","Low_HMMActual","125","","","","Images/NewTrialBC.png","39"
"image-keyboard-response","594","599212","0.0-4.0-1.191","9","Low_HMMActual","278","","","","Images/WhiteBeadChoice.png","39"
"image-keyboard-response","595","599913","0.0-4.0-2.191","9","Low_HMMActual","180","","","","Images/WhiteBeadChoiceWrong.png","39"
"image-keyboard-response","596","600083","0.0-4.0-0.192","9","Low_HMMActual","169","","","","Images/NewTrialBC.png","37"
"image-keyboard-response","597","600485","0.0-4.0-1.192","9","Low_HMMActual","205","","","","Images/BlackBeadChoice.png","37"
"image-keyboard-response","598","601185","0.0-4.0-2.192","9","Low_HMMActual","null","","","","Images/BlackBeadChoiceCorrect.png","null"
"image-keyboard-response","599","609254","0.0-4.0-0.193","9","Low_HMMActual","8068","","","","Images/NewTrialBC.png","39"
"image-keyboard-response","600","609655","0.0-4.0-1.193","9","Low_HMMActual","null","","","","Images/WhiteBeadChoice.png","null"
"image-keyboard-response","601","610355","0.0-4.0-2.193","9","Low_HMMActual","null","","","","Images/WhiteBeadChoiceWrong.png","null"
"image-keyboard-response","602","610816","0.0-4.0-0.194","9","Low_HMMActual","459","","","","Images/NewTrialBC.png","39"
"image-keyboard-response","603","611216","0.0-4.0-1.194","9","Low_HMMActual","279","","","","Images/WhiteBeadChoice.png","39"
"image-keyboard-response","604","611919","0.0-4.0-2.194","9","Low_HMMActual","null","","","","Images/WhiteBeadChoiceWrong.png","null"
"image-keyboard-response","605","612192","0.0-4.0-0.195","9","Low_HMMActual","273","","","","Images/NewTrialBC.png","39"
"image-keyboard-response","606","612593","0.0-4.0-1.195","9","Low_HMMActual","272","","","","Images/WhiteBeadChoice.png","39"
"image-keyboard-response","607","613298","0.0-4.0-2.195","9","Low_HMMActual","null","","","","Images/WhiteBeadChoiceCorrect.png","null"
"image-keyboard-response","608","647633","0.0-4.0-0.196","9","Low_HMMActual","34334","","","","Images/NewTrialWC.png","39"
"image-keyboard-response","609","648034","0.0-4.0-1.196","9","Low_HMMActual","280","","","","Images/WhiteBeadChoice.png","39"
"image-keyboard-response","610","648736","0.0-4.0-2.196","9","Low_HMMActual","134","","","","Images/WhiteBeadChoiceWrong.png","39"
"image-keyboard-response","611","648761","0.0-4.0-0.197","9","Low_HMMActual","24","","","","Images/NewTrialBC.png","37"
"image-keyboard-response","612","649163","0.0-4.0-1.197","9","Low_HMMActual","173","","","","Images/BlackBeadChoice.png","37"
"image-keyboard-response","613","649863","0.0-4.0-2.197","9","Low_HMMActual","141","","","","Images/BlackBeadChoiceWrong.png","37"
"image-keyboard-response","614","650445","0.0-4.0-0.198","9","Low_HMMActual","580","","","","Images/NewTrialWC.png","37"
"image-keyboard-response","615","650846","0.0-4.0-1.198","9","Low_HMMActual","null","","","","Images/BlackBeadChoice.png","null"
"image-keyboard-response","616","651548","0.0-4.0-2.198","9","Low_HMMActual","null","","","","Images/BlackBeadChoiceWrong.png","null"
"image-keyboard-response","617","658613","0.0-4.0-0.199","9","Low_HMMActual","7065","","","","Images/NewTrialWC.png","39"
"image-keyboard-response","618","659013","0.0-4.0-1.199","9","Low_HMMActual","null","","","","Images/WhiteBeadChoice.png","null"
"image-keyboard-response","619","659715","0.0-4.0-2.199","9","Low_HMMActual","32","","","","Images/WhiteBeadChoiceWrong.png","39"
"image-keyboard-response","620","659908","0.0-4.0-0.200","9","Low_HMMActual","192","","","","Images/NewTrialBC.png","37"
"image-keyboard-response","621","660310","0.0-4.0-1.200","9","Low_HMMActual","222","","","","Images/BlackBeadChoice.png","37"
"image-keyboard-response","622","661012","0.0-4.0-2.200","9","Low_HMMActual","47","","","","Images/BlackBeadChoiceWrong.png","37"
"image-keyboard-response","623","661074","0.0-4.0-0.201","9","Low_HMMActual","61","","","","Images/NewTrialWC.png","39"
"image-keyboard-response","624","661476","0.0-4.0-1.201","9","Low_HMMActual","273","","","","Images/WhiteBeadChoice.png","39"
"image-keyboard-response","625","662177","0.0-4.0-2.201","9","Low_HMMActual","239","","","","Images/WhiteBeadChoiceWrong.png","39"
"image-keyboard-response","626","662345","0.0-4.0-0.202","9","Low_HMMActual","167","","","","Images/NewTrialBC.png","39"
"image-keyboard-response","627","662747","0.0-4.0-1.202","9","Low_HMMActual","244","","","","Images/WhiteBeadChoice.png","39"
"image-keyboard-response","628","663447","0.0-4.0-2.202","9","Low_HMMActual","104","","","","Images/WhiteBeadChoiceCorrect.png","39"
"image-keyboard-response","629","663702","0.0-4.0-0.203","9","Low_HMMActual","254","","","","Images/NewTrialWC.png","39"
"image-keyboard-response","630","664102","0.0-4.0-1.203","9","Low_HMMActual","null","","","","Images/WhiteBeadChoice.png","null"
"image-keyboard-response","631","664802","0.0-4.0-2.203","9","Low_HMMActual","null","","","","Images/WhiteBeadChoiceCorrect.png","null"
"image-keyboard-response","632","664904","0.0-4.0-0.204","9","Low_HMMActual","102","","","","Images/NewTrialWC.png","39"
"image-keyboard-response","633","665305","0.0-4.0-1.204","9","Low_HMMActual","268","","","","Images/WhiteBeadChoice.png","39"
"image-keyboard-response","634","666006","0.0-4.0-2.204","9","Low_HMMActual","145","","","","Images/WhiteBeadChoiceWrong.png","39"
"image-keyboard-response","635","666137","0.0-4.0-0.205","9","Low_HMMActual","130","","","","Images/NewTrialBC.png","39"
"image-keyboard-response","636","666539","0.0-4.0-1.205","9","Low_HMMActual","237","","","","Images/WhiteBeadChoice.png","39"
"image-keyboard-response","637","667240","0.0-4.0-2.205","9","Low_HMMActual","415","","","","Images/WhiteBeadChoiceCorrect.png","37"
"image-keyboard-response","638","667388","0.0-4.0-0.206","9","Low_HMMActual","147","","","","Images/NewTrialWC.png","37"
"image-keyboard-response","639","667788","0.0-4.0-1.206","9","Low_HMMActual","212","","","","Images/BlackBeadChoice.png","37"
"image-keyboard-response","640","668490","0.0-4.0-2.206","9","Low_HMMActual","15","","","","Images/BlackBeadChoiceWrong.png","37"
"image-keyboard-response","641","668571","0.0-4.0-0.207","9","Low_HMMActual","82","","","","Images/NewTrialWC.png","37"
"image-keyboard-response","642","668972","0.0-4.0-1.207","9","Low_HMMActual","352","","","","Images/BlackBeadChoice.png","37"
"image-keyboard-response","643","669673","0.0-4.0-2.207","9","Low_HMMActual","120","","","","Images/BlackBeadChoiceWrong.png","37"
"image-keyboard-response","644","669827","0.0-4.0-0.208","9","Low_HMMActual","152","","","","Images/NewTrialWC.png","37"
"image-keyboard-response","645","670227","0.0-4.0-1.208","9","Low_HMMActual","176","","","","Images/BlackBeadChoice.png","37"
"image-keyboard-response","646","670928","0.0-4.0-2.208","9","Low_HMMActual","null","","","","Images/BlackBeadChoiceWrong.png","null"
"image-keyboard-response","647","671018","0.0-4.0-0.209","9","Low_HMMActual","90","","","","Images/NewTrialWC.png","37"
"image-keyboard-response","648","671420","0.0-4.0-1.209","9","Low_HMMActual","264","","","","Images/BlackBeadChoice.png","37"
"image-keyboard-response","649","672121","0.0-4.0-2.209","9","Low_HMMActual","567","","","","Images/BlackBeadChoiceWrong.png","39"
"image-keyboard-response","650","672295","0.0-4.0-0.210","9","Low_HMMActual","173","","","","Images/NewTrialWC.png","39"
"image-keyboard-response","651","672695","0.0-4.0-1.210","9","Low_HMMActual","274","","","","Images/WhiteBeadChoice.png","39"
"image-keyboard-response","652","673396","0.0-4.0-2.210","9","Low_HMMActual","179","","","","Images/WhiteBeadChoiceWrong.png","39"
"image-keyboard-response","653","673468","0.0-4.0-0.211","9","Low_HMMActual","71","","","","Images/NewTrialBC.png","39"
"image-keyboard-response","654","673869","0.0-4.0-1.211","9","Low_HMMActual","348","","","","Images/WhiteBeadChoice.png","39"
"image-keyboard-response","655","674570","0.0-4.0-2.211","9","Low_HMMActual","195","","","","Images/WhiteBeadChoiceCorrect.png","39"
"image-keyboard-response","656","674624","0.0-4.0-0.212","9","Low_HMMActual","53","","","","Images/NewTrialWC.png","39"
"image-keyboard-response","657","675024","0.0-4.0-1.212","9","Low_HMMActual","259","","","","Images/WhiteBeadChoice.png","39"
"image-keyboard-response","658","675726","0.0-4.0-2.212","9","Low_HMMActual","112","","","","Images/WhiteBeadChoiceWrong.png","39"
"image-keyboard-response","659","676028","0.0-4.0-0.213","9","Low_HMMActual","301","","","","Images/NewTrialBC.png","39"
"image-keyboard-response","660","676428","0.0-4.0-1.213","9","Low_HMMActual","235","","","","Images/WhiteBeadChoice.png","39"
"image-keyboard-response","661","677131","0.0-4.0-2.213","9","Low_HMMActual","284","","","","Images/WhiteBeadChoiceCorrect.png","37"
"image-keyboard-response","662","677175","0.0-4.0-0.214","9","Low_HMMActual","44","","","","Images/NewTrialWC.png","37"
"image-keyboard-response","663","677576","0.0-4.0-1.214","9","Low_HMMActual","241","","","","Images/BlackBeadChoice.png","37"
"image-keyboard-response","664","678277","0.0-4.0-2.214","9","Low_HMMActual","211","","","","Images/BlackBeadChoiceWrong.png","37"
"image-keyboard-response","665","678370","0.0-4.0-0.215","9","Low_HMMActual","92","","","","Images/NewTrialWC.png","37"
"image-keyboard-response","666","678771","0.0-4.0-1.215","9","Low_HMMActual","286","","","","Images/BlackBeadChoice.png","37"
"image-keyboard-response","667","679472","0.0-4.0-2.215","9","Low_HMMActual","172","","","","Images/BlackBeadChoiceCorrect.png","37"
"image-keyboard-response","668","679712","0.0-4.0-0.216","9","Low_HMMActual","240","","","","Images/NewTrialBC.png","37"
"image-keyboard-response","669","680114","0.0-4.0-1.216","9","Low_HMMActual","303","","","","Images/BlackBeadChoice.png","37"
"image-keyboard-response","670","680816","0.0-4.0-2.216","9","Low_HMMActual","171","","","","Images/BlackBeadChoiceWrong.png","37"
"image-keyboard-response","671","681039","0.0-4.0-0.217","9","Low_HMMActual","223","","","","Images/NewTrialWC.png","37"
"image-keyboard-response","672","681440","0.0-4.0-1.217","9","Low_HMMActual","276","","","","Images/BlackBeadChoice.png","39"
"image-keyboard-response","673","682141","0.0-4.0-2.217","9","Low_HMMActual","154","","","","Images/BlackBeadChoiceWrong.png","39"
"image-keyboard-response","674","682210","0.0-4.0-0.218","9","Low_HMMActual","68","","","","Images/NewTrialWC.png","39"
"image-keyboard-response","675","682611","0.0-4.0-1.218","9","Low_HMMActual","292","","","","Images/WhiteBeadChoice.png","39"
"image-keyboard-response","676","683311","0.0-4.0-2.218","9","Low_HMMActual","205","","","","Images/WhiteBeadChoiceCorrect.png","39"
"image-keyboard-response","677","683471","0.0-4.0-0.219","9","Low_HMMActual","158","","","","Images/NewTrialWC.png","39"
"image-keyboard-response","678","683871","0.0-4.0-1.219","9","Low_HMMActual","null","","","","Images/WhiteBeadChoice.png","null"
"image-keyboard-response","679","684572","0.0-4.0-2.219","9","Low_HMMActual","null","","","","Images/WhiteBeadChoiceCorrect.png","null"
"image-keyboard-response","680","752647","0.0-4.0-0.220","9","Low_HMMActual","68074","","","","Images/NewTrialWC.png","39"
"image-keyboard-response","681","753048","0.0-4.0-1.220","9","Low_HMMActual","290","","","","Images/WhiteBeadChoice.png","39"
"image-keyboard-response","682","753749","0.0-4.0-2.220","9","Low_HMMActual","412","","","","Images/WhiteBeadChoiceCorrect.png","37"
"image-keyboard-response","683","753974","0.0-4.0-0.221","9","Low_HMMActual","222","","","","Images/NewTrialWC.png","37"
"image-keyboard-response","684","754375","0.0-4.0-1.221","9","Low_HMMActual","228","","","","Images/BlackBeadChoice.png","37"
"image-keyboard-response","685","755076","0.0-4.0-2.221","9","Low_HMMActual","34","","","","Images/BlackBeadChoiceWrong.png","37"
"image-keyboard-response","686","755209","0.0-4.0-0.222","9","Low_HMMActual","132","","","","Images/NewTrialWC.png","39"
"image-keyboard-response","687","755610","0.0-4.0-1.222","9","Low_HMMActual","167","","","","Images/WhiteBeadChoice.png","39"
"image-keyboard-response","688","756311","0.0-4.0-2.222","9","Low_HMMActual","140","","","","Images/WhiteBeadChoiceCorrect.png","39"
"image-keyboard-response","689","756493","0.0-4.0-0.223","9","Low_HMMActual","182","","","","Images/NewTrialWC.png","37"
"image-keyboard-response","690","756893","0.0-4.0-1.223","9","Low_HMMActual","221","","","","Images/BlackBeadChoice.png","37"
"image-keyboard-response","691","757594","0.0-4.0-2.223","9","Low_HMMActual","235","","","","Images/BlackBeadChoiceWrong.png","37"
"image-keyboard-response","692","757604","0.0-4.0-0.224","9","Low_HMMActual","8","","","","Images/NewTrialWC.png","37"
"image-keyboard-response","693","758005","0.0-4.0-1.224","9","Low_HMMActual","207","","","","Images/BlackBeadChoice.png","37"
"image-keyboard-response","694","758706","0.0-4.0-2.224","9","Low_HMMActual","4","","","","Images/BlackBeadChoiceWrong.png","37"
"image-keyboard-response","695","758974","0.0-4.0-0.225","9","Low_HMMActual","268","","","","Images/NewTrialWC.png","39"
"image-keyboard-response","696","759375","0.0-4.0-1.225","9","Low_HMMActual","235","","","","Images/WhiteBeadChoice.png","39"
"image-keyboard-response","697","760076","0.0-4.0-2.225","9","Low_HMMActual","51","","","","Images/WhiteBeadChoiceCorrect.png","39"
"image-keyboard-response","698","760337","0.0-4.0-0.226","9","Low_HMMActual","260","","","","Images/NewTrialWC.png","39"
"image-keyboard-response","699","760739","0.0-4.0-1.226","9","Low_HMMActual","236","","","","Images/WhiteBeadChoice.png","39"
"image-keyboard-response","700","761440","0.0-4.0-2.226","9","Low_HMMActual","48","","","","Images/WhiteBeadChoiceCorrect.png","39"
"image-keyboard-response","701","761517","0.0-4.0-0.227","9","Low_HMMActual","77","","","","Images/NewTrialWC.png","37"
"image-keyboard-response","702","761917","0.0-4.0-1.227","9","Low_HMMActual","245","","","","Images/BlackBeadChoice.png","37"
"image-keyboard-response","703","762617","0.0-4.0-2.227","9","Low_HMMActual","43","","","","Images/BlackBeadChoiceWrong.png","37"
"image-keyboard-response","704","762657","0.0-4.0-0.228","9","Low_HMMActual","39","","","","Images/NewTrialWC.png","37"
"image-keyboard-response","705","763058","0.0-4.0-1.228","9","Low_HMMActual","null","","","","Images/BlackBeadChoice.png","null"
"image-keyboard-response","706","763760","0.0-4.0-2.228","9","Low_HMMActual","null","","","","Images/BlackBeadChoiceCorrect.png","null"
