"trial_type","trial_index","time_elapsed","internal_node_id","Script_Picker","rt","url","responses","question_order","stimulus","key_press"
"pavlovia","0","7","0.0-0.0","7","","","","","",""
"external-html","1","13412","0.0-1.0-0.0","7","13319.144999957643","consent.html","","","",""
"survey-multi-choice","2","20709","0.0-1.0-1.0","7","7290.860000066459","","{""Q0"":""Female"",""Q1"":""White""}","[0,1]","",""
"survey-text","3","23649","0.0-1.0-2.0","7","2916.979999979958","","{""Q0"":""32""}","","",""
"survey-text","4","38415","0.0-1.0-3.0","7","14632.585000013933","","{""Q0"":""5cd6ba1d36870e001901b349""}","","",""
"html-keyboard-response","5","48944","0.0-2.0-0.0","7","10409.435000037774","","","","<div class=""container"" style=""height:800px;width:800px;display:flex;flex-direction:column;justify-content:center;align-items:center;text-align:center;font-weight:normal;font-family:Arial;font-size:20px""><p>In this task you will see black or white beads being pulled from jars. <br><br>On each trial, a bead will be pulled from one of two jars. Once you see this bead, your goal is to predict the color of NEXT bead that will be pulled. <br> <br>Every time you correctly guess the color of the NEXT bead, you will get a point. The more points you get, the higher your win bonus at the end of the experiment <br><br>Press the SPACEBAR to continue.</p><div>","32"
"html-keyboard-response","6","58625","0.0-2.0-1.0","7","9678.179999929853","","","","<div class=""container"" style=""height:800px;width:800px;display:flex;flex-direction:column;justify-content:center;align-items:center;text-align:center;font-weight:normal;font-family:Arial;font-size:20px""><p>There are two types of jars:<br><br>1) Jars filled with ONLY white or black beads<br><br>2) Jars filled with 90% white or black beads and 10% of the opposite color mixed in<br><br>Press the SPACEBAR to continue. </p><div>","32"
"image-keyboard-response","7","65061","0.0-2.0-2.0","7","6433.154999976978","","","","resources/WhiteJar_MM.png","32"
"image-keyboard-response","8","67700","0.0-2.0-3.0","7","2635.7899999711663","","","","resources/BlackJar_MM.png","32"
"image-keyboard-response","9","71094","0.0-2.0-4.0","7","3390.8149999333546","","","","resources/WhiteJar_HMM.png","32"
"image-keyboard-response","10","74616","0.0-2.0-5.0","7","3520.254999981262","","","","resources/BlackJar_HMM.png","32"
"html-keyboard-response","11","88282","0.0-2.0-6.0","7","13662.804999970831","","","","<div class=""container"" style=""height:800px;width:800px;display:flex;flex-direction:column;justify-content:center;align-items:center;text-align:center;font-weight:normal;font-family:Arial;font-size:20px""><p>There will be four blocks of trials. In each block, you will see the pair of jars that beads will be pulled from.<br><br>The pair of jars used in each block will ONLY ever be 100% white and black jars, or 90/10 mixed jars. <br><br>The pair of jars in each block will not change until the next block.<br><br>Here are examples of what you will see on each trial.<br><br>Press the SPACEBAR to continue. </p><div>","32"
"image-keyboard-response","12","98261","0.0-2.0-7.0","7","9975.325000006706","","","","Images/NoChoiceMM.png","32"
"image-keyboard-response","13","105349","0.0-2.0-8.0","7","7085.109999985434","","","","Images/NoChoice.png","32"
"html-keyboard-response","14","116779","0.0-2.0-9.0","7","11429.17000001762","","","","<div class=""container"" style=""height:800px;width:800px;display:flex;flex-direction:column;justify-content:center;align-items:center;text-align:center;font-weight:normal;font-family:Arial;font-size:20px""><p> The jar the beads are pulled from is NOT choosen at random on each trial.<br><br>After each prediction, there will be a chance that the jars will switch, and that the next bead will be pulled from the opposite jar as the previous trial.<br><br>In each block, the chance that a jar will switch will either be LOW (the jars will not switch very often), or HIGH (the jars will switch almost all the time).<br><br>At the start of each block, you will be told the probability that the jars will switch on each trial. This switch probability will stay constant throughout the block.<br><br>Press the SPACEBAR to continue. </p><div>","32"
"image-keyboard-response","15","124801","0.0-2.0-10.0","7","8019.369999994524","","","","Images/TutorialBlackJarDrawMM.png","32"
"image-keyboard-response","16","129142","0.0-2.0-11.0","7","4338.729999959469","","","","Images/TutorialWhiteJarDrawMM.png","32"
"html-keyboard-response","17","141483","0.0-2.0-12.0","7","12338.71999999974","","","","<div class=""container"" style=""height:800px;width:800px;display:flex;flex-direction:column;justify-content:center;align-items:center;text-align:center;font-weight:normal;font-family:Arial;font-size:20px""><p> When the jars are filled with only one color, each bead is guaranteed to have come from the same-colored jar. During these blocks, the best strategy is to use the jar switch probability to predict whether the next bead will be the same or different from the previous trial.<br><br> When the jars contain a mix of black and white beads, you will sometimes see black beads pulled from the mostly white jar, and white beads pulled from the mostly black jar. <br><br>Here is an example.<br><br>Press the SPACEBAR to continue.  </p><div>","32"
"image-keyboard-response","18","145265","0.0-2.0-13.0","7","3778.969999984838","","","","Images/TutorialWhiteJarDrawHMMC.png","32"
"image-keyboard-response","19","146533","0.0-2.0-14.0","7","1264.5649999612942","","","","Images/TutorialBlackJarDrawHMMC.png","32"
"image-keyboard-response","20","147920","0.0-2.0-15.0","7","1384.2050000093877","","","","Images/TutorialBlackJarDrawHMMI.png","32"
"html-keyboard-response","21","154652","0.0-2.0-16.0","7","6729.394999914803","","","","<div class=""container"" style=""height:800px;width:800px;display:flex;flex-direction:column;justify-content:center;align-items:center;text-align:center;font-weight:normal;font-family:Arial;font-size:20px""><p> As you observed, a white bead was pulled from a 90% white jar, the jars switched and a black bead was pulled from the 90% black jar, but then low-probability white bead was pulled from the 90% black jar. <br><br>In these mixed-jar blocks, you will first have to figure out which jar the current bead was pulled from, then use the jar switch probability to predict the color of the next bead.<br><br>Press SPACEBAR to conitnue.</p><div>","32"
"html-keyboard-response","22","156787","0.0-2.0-17.0","7","2133.2200000761077","","","","<div class=""container"" style=""height:800px;width:800px;display:flex;flex-direction:column;justify-content:center;align-items:center;text-align:center;font-weight:normal;font-family:Arial;font-size:20px""><p> You will now be given a 3 question quiz to make sure you understand the fundamentals. </p><div>","32"
"image-keyboard-response","23","170990","0.0-2.0-18.0","7","14196.490000002086","","","","Images/TutorialQuestion1.png","39"
"image-keyboard-response","24","186699","0.0-2.0-19.0","7","10164.334999979474","","","","Images/TutorialQuestion2.png","38"
"html-keyboard-response","25","204670","0.0-3.0","7","12285.640000016429","","","","<div class=""container"" style=""height:800px;width:800px;display:flex;flex-direction:column;justify-content:center;align-items:center;text-align:center;font-weight:normal;font-family:Arial;font-size:20px""><p>Loading episode&hellip;</p><div>","32"
"image-keyboard-response","26","210671","0.0-4.0-0.0","7","5996.455000014976","","","","Images/NoChoice.png","37"
"image-keyboard-response","27","210929","0.0-4.0-1.0","7","null","","","","Images/BlackBeadChoice.png","null"
"image-keyboard-response","28","211441","0.0-4.0-2.0","7","null","","","","Images/BlackBeadChoiceWrong.png","null"
"image-keyboard-response","29","219411","0.0-4.0-0.1","7","7967.315000016242","","","","Images/NewTrialWC.png","39"
"image-keyboard-response","30","219674","0.0-4.0-1.1","7","null","","","","Images/WhiteBeadChoice.png","null"
"image-keyboard-response","31","220191","0.0-4.0-2.1","7","null","","","","Images/WhiteBeadChoiceCorrect.png","null"
"image-keyboard-response","32","221532","0.0-4.0-0.2","7","1338.9400000451133","","","","Images/NewTrialWC.png","39"
"image-keyboard-response","33","221786","0.0-4.0-1.2","7","null","","","","Images/WhiteBeadChoice.png","null"
"image-keyboard-response","34","222303","0.0-4.0-2.2","7","null","","","","Images/WhiteBeadChoiceWrong.png","null"
"image-keyboard-response","35","223953","0.0-4.0-0.3","7","1647.7750000776723","","","","Images/NewTrialBC.png","37"
"image-keyboard-response","36","224210","0.0-4.0-1.3","7","null","","","","Images/BlackBeadChoice.png","null"
"image-keyboard-response","37","224727","0.0-4.0-2.3","7","null","","","","Images/BlackBeadChoiceWrong.png","null"
"image-keyboard-response","38","226152","0.0-4.0-0.4","7","1422.264999942854","","","","Images/NewTrialWC.png","39"
"image-keyboard-response","39","226415","0.0-4.0-1.4","7","null","","","","Images/WhiteBeadChoice.png","null"
"image-keyboard-response","40","226931","0.0-4.0-2.4","7","null","","","","Images/WhiteBeadChoiceCorrect.png","null"
"image-keyboard-response","41","227953","0.0-4.0-0.5","7","1016.3649999303743","","","","Images/NewTrialWC.png","39"
"image-keyboard-response","42","228224","0.0-4.0-1.5","7","null","","","","Images/WhiteBeadChoice.png","null"
"image-keyboard-response","43","228777","0.0-4.0-2.5","7","null","","","","Images/WhiteBeadChoiceCorrect.png","null"
"image-keyboard-response","44","229586","0.0-4.0-0.6","7","806.4650000305846","","","","Images/NewTrialWC.png","39"
"image-keyboard-response","45","229852","0.0-4.0-1.6","7","null","","","","Images/WhiteBeadChoice.png","null"
"image-keyboard-response","46","230355","0.0-4.0-2.6","7","null","","","","Images/WhiteBeadChoiceCorrect.png","null"
"image-keyboard-response","47","231778","0.0-4.0-0.7","7","1425.0750000355765","","","","Images/NewTrialWC.png","39"
"image-keyboard-response","48","232045","0.0-4.0-1.7","7","null","","","","Images/WhiteBeadChoice.png","null"
"image-keyboard-response","49","232556","0.0-4.0-2.7","7","null","","","","Images/WhiteBeadChoiceCorrect.png","null"
"image-keyboard-response","50","233833","0.0-4.0-0.8","7","1274.184999987483","","","","Images/NewTrialWC.png","39"
"image-keyboard-response","51","234093","0.0-4.0-1.8","7","null","","","","Images/WhiteBeadChoice.png","null"
"image-keyboard-response","52","234611","0.0-4.0-2.8","7","null","","","","Images/WhiteBeadChoiceCorrect.png","null"
"image-keyboard-response","53","235240","0.0-4.0-0.9","7","626.0100000072271","","","","Images/NewTrialWC.png","39"
"image-keyboard-response","54","235503","0.0-4.0-1.9","7","null","","","","Images/WhiteBeadChoice.png","null"
"image-keyboard-response","55","236017","0.0-4.0-2.9","7","null","","","","Images/WhiteBeadChoiceCorrect.png","null"
"image-keyboard-response","56","236520","0.0-4.0-0.10","7","500.81500003580004","","","","Images/NewTrialWC.png","39"
"image-keyboard-response","57","236776","0.0-4.0-1.10","7","null","","","","Images/WhiteBeadChoice.png","null"
"image-keyboard-response","58","237291","0.0-4.0-2.10","7","null","","","","Images/WhiteBeadChoiceWrong.png","null"
"image-keyboard-response","59","237860","0.0-4.0-0.11","7","566.7400000384077","","","","Images/NewTrialBC.png","37"
"image-keyboard-response","60","238122","0.0-4.0-1.11","7","null","","","","Images/BlackBeadChoice.png","null"
"image-keyboard-response","61","238645","0.0-4.0-2.11","7","null","","","","Images/BlackBeadChoiceCorrect.png","null"
"image-keyboard-response","62","239787","0.0-4.0-0.12","7","1138.135000015609","","","","Images/NewTrialBC.png","37"
"image-keyboard-response","63","240045","0.0-4.0-1.12","7","null","","","","Images/BlackBeadChoice.png","null"
"image-keyboard-response","64","240550","0.0-4.0-2.12","7","null","","","","Images/BlackBeadChoiceCorrect.png","null"
"image-keyboard-response","65","241472","0.0-4.0-0.13","7","919.4900000002235","","","","Images/NewTrialBC.png","37"
"image-keyboard-response","66","241736","0.0-4.0-1.13","7","null","","","","Images/BlackBeadChoice.png","null"
"image-keyboard-response","67","242255","0.0-4.0-2.13","7","null","","","","Images/BlackBeadChoiceCorrect.png","null"
"image-keyboard-response","68","243094","0.0-4.0-0.14","7","836.3649999955669","","","","Images/NewTrialBC.png","37"
"image-keyboard-response","69","243361","0.0-4.0-1.14","7","null","","","","Images/BlackBeadChoice.png","null"
"image-keyboard-response","70","243871","0.0-4.0-2.14","7","null","","","","Images/BlackBeadChoiceCorrect.png","null"
"image-keyboard-response","71","244841","0.0-4.0-0.15","7","968.1850000051782","","","","Images/NewTrialBC.png","37"
"image-keyboard-response","72","245109","0.0-4.0-1.15","7","null","","","","Images/BlackBeadChoice.png","null"
"image-keyboard-response","73","245624","0.0-4.0-2.15","7","null","","","","Images/BlackBeadChoiceCorrect.png","null"
"image-keyboard-response","74","246432","0.0-4.0-0.16","7","805.0400000065565","","","","Images/NewTrialBC.png","37"
"image-keyboard-response","75","246694","0.0-4.0-1.16","7","null","","","","Images/BlackBeadChoice.png","null"
"image-keyboard-response","76","247212","0.0-4.0-2.16","7","null","","","","Images/BlackBeadChoiceCorrect.png","null"
"image-keyboard-response","77","248100","0.0-4.0-0.17","7","884.8749999888241","","","","Images/NewTrialBC.png","37"
"image-keyboard-response","78","248371","0.0-4.0-1.17","7","null","","","","Images/BlackBeadChoice.png","null"
"image-keyboard-response","79","248876","0.0-4.0-2.17","7","null","","","","Images/BlackBeadChoiceWrong.png","null"
"image-keyboard-response","80","249575","0.0-4.0-0.18","7","696.5750000672415","","","","Images/NewTrialWC.png","39"
"image-keyboard-response","81","249836","0.0-4.0-1.18","7","null","","","","Images/WhiteBeadChoice.png","null"
"image-keyboard-response","82","250357","0.0-4.0-2.18","7","null","","","","Images/WhiteBeadChoiceCorrect.png","null"
"image-keyboard-response","83","250943","0.0-4.0-0.19","7","584.0450000250712","","","","Images/NewTrialWC.png","39"
"image-keyboard-response","84","251208","0.0-4.0-1.19","7","null","","","","Images/WhiteBeadChoice.png","null"
"image-keyboard-response","85","251733","0.0-4.0-2.19","7","null","","","","Images/WhiteBeadChoiceWrong.png","null"
"image-keyboard-response","86","252274","0.0-4.0-0.20","7","538.7950000585988","","","","Images/NewTrialBC.png","37"
"image-keyboard-response","87","252539","0.0-4.0-1.20","7","null","","","","Images/BlackBeadChoice.png","null"
"image-keyboard-response","88","253066","0.0-4.0-2.20","7","null","","","","Images/BlackBeadChoiceWrong.png","null"
"image-keyboard-response","89","253592","0.0-4.0-0.21","7","522.9599999729544","","","","Images/NewTrialWC.png","39"
"image-keyboard-response","90","253854","0.0-4.0-1.21","7","null","","","","Images/WhiteBeadChoice.png","null"
"image-keyboard-response","91","254369","0.0-4.0-2.21","7","null","","","","Images/WhiteBeadChoiceWrong.png","null"
"image-keyboard-response","92","254896","0.0-4.0-0.22","7","524.074999964796","","","","Images/NewTrialBC.png","37"
"image-keyboard-response","93","255148","0.0-4.0-1.22","7","null","","","","Images/BlackBeadChoice.png","null"
"image-keyboard-response","94","255662","0.0-4.0-2.22","7","null","","","","Images/BlackBeadChoiceWrong.png","null"
"image-keyboard-response","95","256112","0.0-4.0-0.23","7","447.33500003349036","","","","Images/NewTrialWC.png","39"
"image-keyboard-response","96","256365","0.0-4.0-1.23","7","null","","","","Images/WhiteBeadChoice.png","null"
"image-keyboard-response","97","256876","0.0-4.0-2.23","7","null","","","","Images/WhiteBeadChoiceCorrect.png","null"
"image-keyboard-response","98","257314","0.0-4.0-0.24","7","436.0599999781698","","","","Images/NewTrialWC.png","39"
"image-keyboard-response","99","257585","0.0-4.0-1.24","7","null","","","","Images/WhiteBeadChoice.png","null"
"image-keyboard-response","100","258094","0.0-4.0-2.24","7","null","","","","Images/WhiteBeadChoiceCorrect.png","null"
"image-keyboard-response","101","258543","0.0-4.0-0.25","7","446.53999991714954","","","","Images/NewTrialWC.png","39"
"image-keyboard-response","102","258799","0.0-4.0-1.25","7","null","","","","Images/WhiteBeadChoice.png","null"
"image-keyboard-response","103","259319","0.0-4.0-2.25","7","null","","","","Images/WhiteBeadChoiceCorrect.png","null"
"image-keyboard-response","104","260170","0.0-4.0-0.26","7","849.114999989979","","","","Images/NewTrialWC.png","39"
"image-keyboard-response","105","260450","0.0-4.0-1.26","7","null","","","","Images/WhiteBeadChoice.png","null"
"image-keyboard-response","106","260973","0.0-4.0-2.26","7","null","","","","Images/WhiteBeadChoiceWrong.png","null"
"image-keyboard-response","107","261747","0.0-4.0-0.27","7","771.1449998896569","","","","Images/NewTrialBC.png","37"
"image-keyboard-response","108","262017","0.0-4.0-1.27","7","null","","","","Images/BlackBeadChoice.png","null"
"image-keyboard-response","109","262520","0.0-4.0-2.27","7","null","","","","Images/BlackBeadChoiceCorrect.png","null"
"image-keyboard-response","110","263578","0.0-4.0-0.28","7","1055.2850000094622","","","","Images/NewTrialBC.png","37"
"image-keyboard-response","111","263844","0.0-4.0-1.28","7","null","","","","Images/BlackBeadChoice.png","null"
"image-keyboard-response","112","264358","0.0-4.0-2.28","7","null","","","","Images/BlackBeadChoiceCorrect.png","null"
"image-keyboard-response","113","264715","0.0-4.0-0.29","7","354.6349999960512","","","","Images/NewTrialBC.png","37"
"image-keyboard-response","114","264977","0.0-4.0-1.29","7","null","","","","Images/BlackBeadChoice.png","null"
"image-keyboard-response","115","265498","0.0-4.0-2.29","7","null","","","","Images/BlackBeadChoiceWrong.png","null"
"image-keyboard-response","116","265928","0.0-4.0-0.30","7","428.60499990638345","","","","Images/NewTrialWC.png","39"
"image-keyboard-response","117","266192","0.0-4.0-1.30","7","null","","","","Images/WhiteBeadChoice.png","null"
"image-keyboard-response","118","266696","0.0-4.0-2.30","7","null","","","","Images/WhiteBeadChoiceWrong.png","null"
"image-keyboard-response","119","267046","0.0-4.0-0.31","7","347.54999994765967","","","","Images/NewTrialBC.png","37"
"image-keyboard-response","120","267313","0.0-4.0-1.31","7","null","","","","Images/BlackBeadChoice.png","null"
"image-keyboard-response","121","267836","0.0-4.0-2.31","7","null","","","","Images/BlackBeadChoiceCorrect.png","null"
"image-keyboard-response","122","268108","0.0-4.0-0.32","7","269.84000008087605","","","","Images/NewTrialBC.png","37"
"image-keyboard-response","123","268379","0.0-4.0-1.32","7","null","","","","Images/BlackBeadChoice.png","null"
"image-keyboard-response","124","268882","0.0-4.0-2.32","7","null","","","","Images/BlackBeadChoiceWrong.png","null"
"image-keyboard-response","125","269177","0.0-4.0-0.33","7","291.55500000342727","","","","Images/NewTrialWC.png","39"
"image-keyboard-response","126","269442","0.0-4.0-1.33","7","null","","","","Images/WhiteBeadChoice.png","null"
"image-keyboard-response","127","269965","0.0-4.0-2.33","7","null","","","","Images/WhiteBeadChoiceWrong.png","null"
"image-keyboard-response","128","270220","0.0-4.0-0.34","7","252.76499998290092","","","","Images/NewTrialBC.png","37"
"image-keyboard-response","129","270491","0.0-4.0-1.34","7","null","","","","Images/BlackBeadChoice.png","null"
"image-keyboard-response","130","271000","0.0-4.0-2.34","7","null","","","","Images/BlackBeadChoiceCorrect.png","null"
"image-keyboard-response","131","271268","0.0-4.0-0.35","7","266.9149999273941","","","","Images/NewTrialBC.png","37"
"image-keyboard-response","132","271540","0.0-4.0-1.35","7","null","","","","Images/BlackBeadChoice.png","null"
"image-keyboard-response","133","272062","0.0-4.0-2.35","7","null","","","","Images/BlackBeadChoiceCorrect.png","null"
"image-keyboard-response","134","272328","0.0-4.0-0.36","7","264.3600000301376","","","","Images/NewTrialBC.png","37"
"image-keyboard-response","135","272589","0.0-4.0-1.36","7","null","","","","Images/BlackBeadChoice.png","null"
"image-keyboard-response","136","273093","0.0-4.0-2.36","7","null","","","","Images/BlackBeadChoiceWrong.png","null"
"image-keyboard-response","137","273353","0.0-4.0-0.37","7","257.46500003151596","","","","Images/NewTrialWC.png","39"
"image-keyboard-response","138","273614","0.0-4.0-1.37","7","null","","","","Images/WhiteBeadChoice.png","null"
"image-keyboard-response","139","274130","0.0-4.0-2.37","7","null","","","","Images/WhiteBeadChoiceCorrect.png","null"
"image-keyboard-response","140","274422","0.0-4.0-0.38","7","288.70500007178634","","","","Images/NewTrialWC.png","39"
"image-keyboard-response","141","274680","0.0-4.0-1.38","7","null","","","","Images/WhiteBeadChoice.png","null"
"image-keyboard-response","142","275196","0.0-4.0-2.38","7","null","","","","Images/WhiteBeadChoiceCorrect.png","null"
"image-keyboard-response","143","275464","0.0-4.0-0.39","7","265.37000003736466","","","","Images/NewTrialWC.png","39"
"image-keyboard-response","144","275720","0.0-4.0-1.39","7","null","","","","Images/WhiteBeadChoice.png","null"
"image-keyboard-response","145","276224","0.0-4.0-2.39","7","null","","","","Images/WhiteBeadChoiceWrong.png","null"
"image-keyboard-response","146","276501","0.0-4.0-0.40","7","274.53000005334616","","","","Images/NewTrialBC.png","37"
"image-keyboard-response","147","276757","0.0-4.0-1.40","7","null","","","","Images/BlackBeadChoice.png","null"
"image-keyboard-response","148","277266","0.0-4.0-2.40","7","null","","","","Images/BlackBeadChoiceCorrect.png","null"
"image-keyboard-response","149","277405","0.0-4.0-0.41","7","135.9699999447912","","","","Images/NewTrialBC.png","37"
"image-keyboard-response","150","277658","0.0-4.0-1.41","7","null","","","","Images/BlackBeadChoice.png","null"
"image-keyboard-response","151","278177","0.0-4.0-2.41","7","null","","","","Images/BlackBeadChoiceCorrect.png","null"
"image-keyboard-response","152","278428","0.0-4.0-0.42","7","248.56500001624227","","","","Images/NewTrialBC.png","37"
"image-keyboard-response","153","278689","0.0-4.0-1.42","7","null","","","","Images/BlackBeadChoice.png","null"
"image-keyboard-response","154","279226","0.0-4.0-2.42","7","null","","","","Images/BlackBeadChoiceWrong.png","null"
"image-keyboard-response","155","279471","0.0-4.0-0.43","7","242.19999997876585","","","","Images/NewTrialWC.png","39"
"image-keyboard-response","156","279731","0.0-4.0-1.43","7","null","","","","Images/WhiteBeadChoice.png","null"
"image-keyboard-response","157","280243","0.0-4.0-2.43","7","null","","","","Images/WhiteBeadChoiceCorrect.png","null"
"image-keyboard-response","158","280489","0.0-4.0-0.44","7","243.31500008702278","","","","Images/NewTrialWC.png","39"
"image-keyboard-response","159","280745","0.0-4.0-1.44","7","null","","","","Images/WhiteBeadChoice.png","null"
"image-keyboard-response","160","281264","0.0-4.0-2.44","7","null","","","","Images/WhiteBeadChoiceWrong.png","null"
"image-keyboard-response","161","281498","0.0-4.0-0.45","7","231.9200000492856","","","","Images/NewTrialBC.png","37"
"image-keyboard-response","162","281761","0.0-4.0-1.45","7","null","","","","Images/BlackBeadChoice.png","null"
"image-keyboard-response","163","282277","0.0-4.0-2.45","7","null","","","","Images/BlackBeadChoiceWrong.png","null"
"image-keyboard-response","164","282591","0.0-4.0-0.46","7","310.1950000273064","","","","Images/NewTrialWC.png","39"
"image-keyboard-response","165","282861","0.0-4.0-1.46","7","null","","","","Images/WhiteBeadChoice.png","null"
"image-keyboard-response","166","283376","0.0-4.0-2.46","7","null","","","","Images/WhiteBeadChoiceCorrect.png","null"
"image-keyboard-response","167","283633","0.0-4.0-0.47","7","253.90000001061708","","","","Images/NewTrialWC.png","39"
"image-keyboard-response","168","283898","0.0-4.0-1.47","7","null","","","","Images/WhiteBeadChoice.png","null"
"image-keyboard-response","169","284415","0.0-4.0-2.47","7","null","","","","Images/WhiteBeadChoiceCorrect.png","null"
"image-keyboard-response","170","284740","0.0-4.0-0.48","7","323.0449999682605","","","","Images/NewTrialWC.png","39"
"image-keyboard-response","171","284992","0.0-4.0-1.48","7","null","","","","Images/WhiteBeadChoice.png","null"
"image-keyboard-response","172","285507","0.0-4.0-2.48","7","null","","","","Images/WhiteBeadChoiceCorrect.png","null"
"image-keyboard-response","173","285828","0.0-4.0-0.49","7","318.6199999181554","","","","Images/NewTrialWC.png","39"
"image-keyboard-response","174","286089","0.0-4.0-1.49","7","null","","","","Images/WhiteBeadChoice.png","null"
"image-keyboard-response","175","286605","0.0-4.0-2.49","7","null","","","","Images/WhiteBeadChoiceCorrect.png","null"
"image-keyboard-response","176","286972","0.0-4.0-0.50","7","364.50499994680285","","","","Images/NewTrialWC.png","39"
"image-keyboard-response","177","287238","0.0-4.0-1.50","7","null","","","","Images/WhiteBeadChoice.png","null"
"image-keyboard-response","178","287747","0.0-4.0-2.50","7","null","","","","Images/WhiteBeadChoiceCorrect.png","null"
"image-keyboard-response","179","287994","0.0-4.0-0.51","7","244.0049999859184","","","","Images/NewTrialWC.png","39"
"image-keyboard-response","180","288256","0.0-4.0-1.51","7","null","","","","Images/WhiteBeadChoice.png","null"
"image-keyboard-response","181","288765","0.0-4.0-2.51","7","null","","","","Images/WhiteBeadChoiceCorrect.png","null"
"image-keyboard-response","182","289065","0.0-4.0-0.52","7","298.15000004600734","","","","Images/NewTrialWC.png","39"
"image-keyboard-response","183","289328","0.0-4.0-1.52","7","null","","","","Images/WhiteBeadChoice.png","null"
"image-keyboard-response","184","289850","0.0-4.0-2.52","7","null","","","","Images/WhiteBeadChoiceCorrect.png","null"
"image-keyboard-response","185","290105","0.0-4.0-0.53","7","251.55000004451722","","","","Images/NewTrialWC.png","39"
"image-keyboard-response","186","290375","0.0-4.0-1.53","7","null","","","","Images/WhiteBeadChoice.png","null"
"image-keyboard-response","187","290879","0.0-4.0-2.53","7","null","","","","Images/WhiteBeadChoiceCorrect.png","null"
"image-keyboard-response","188","291219","0.0-4.0-0.54","7","337.24000002257526","","","","Images/NewTrialWC.png","39"
"image-keyboard-response","189","291472","0.0-4.0-1.54","7","null","","","","Images/WhiteBeadChoice.png","null"
"image-keyboard-response","190","291992","0.0-4.0-2.54","7","null","","","","Images/WhiteBeadChoiceCorrect.png","null"
"image-keyboard-response","191","292305","0.0-4.0-0.55","7","310.7500000623986","","","","Images/NewTrialWC.png","39"
"image-keyboard-response","192","292562","0.0-4.0-1.55","7","null","","","","Images/WhiteBeadChoice.png","null"
"image-keyboard-response","193","293074","0.0-4.0-2.55","7","null","","","","Images/WhiteBeadChoiceWrong.png","null"
"image-keyboard-response","194","293278","0.0-4.0-0.56","7","201.1300000594929","","","","Images/NewTrialBC.png","37"
"image-keyboard-response","195","293536","0.0-4.0-1.56","7","null","","","","Images/BlackBeadChoice.png","null"
"image-keyboard-response","196","294053","0.0-4.0-2.56","7","null","","","","Images/BlackBeadChoiceCorrect.png","null"
"image-keyboard-response","197","294296","0.0-4.0-0.57","7","240.5899999430403","","","","Images/NewTrialBC.png","37"
"image-keyboard-response","198","294558","0.0-4.0-1.57","7","null","","","","Images/BlackBeadChoice.png","null"
"image-keyboard-response","199","295073","0.0-4.0-2.57","7","null","","","","Images/BlackBeadChoiceWrong.png","null"
"image-keyboard-response","200","295928","0.0-4.0-0.58","7","853.5050000064075","","","","Images/NewTrialWC.png","39"
"image-keyboard-response","201","296194","0.0-4.0-1.58","7","null","","","","Images/WhiteBeadChoice.png","null"
"image-keyboard-response","202","296698","0.0-4.0-2.58","7","null","","","","Images/WhiteBeadChoiceCorrect.png","null"
"image-keyboard-response","203","296960","0.0-4.0-0.59","7","259.79999999981374","","","","Images/NewTrialWC.png","39"
"image-keyboard-response","204","297219","0.0-4.0-1.59","7","null","","","","Images/WhiteBeadChoice.png","null"
"image-keyboard-response","205","297734","0.0-4.0-2.59","7","null","","","","Images/WhiteBeadChoiceCorrect.png","null"
"image-keyboard-response","206","297915","0.0-4.0-0.60","7","177.82500002067536","","","","Images/NewTrialWC.png","39"
"image-keyboard-response","207","298171","0.0-4.0-1.60","7","null","","","","Images/WhiteBeadChoice.png","null"
"image-keyboard-response","208","298689","0.0-4.0-2.60","7","null","","","","Images/WhiteBeadChoiceCorrect.png","null"
"image-keyboard-response","209","298777","0.0-4.0-0.61","7","86.06499992311001","","","","Images/NewTrialWC.png","39"
"image-keyboard-response","210","299036","0.0-4.0-1.61","7","null","","","","Images/WhiteBeadChoice.png","null"
"image-keyboard-response","211","299552","0.0-4.0-2.61","7","null","","","","Images/WhiteBeadChoiceWrong.png","null"
"image-keyboard-response","212","299950","0.0-4.0-0.62","7","396.03000006172806","","","","Images/NewTrialBC.png","37"
"image-keyboard-response","213","300211","0.0-4.0-1.62","7","null","","","","Images/BlackBeadChoice.png","null"
"image-keyboard-response","214","300717","0.0-4.0-2.62","7","null","","","","Images/BlackBeadChoiceCorrect.png","null"
"image-keyboard-response","215","301272","0.0-4.0-0.63","7","552.5599999818951","","","","Images/NewTrialBC.png","37"
"image-keyboard-response","216","301540","0.0-4.0-1.63","7","null","","","","Images/BlackBeadChoice.png","null"
"image-keyboard-response","217","302063","0.0-4.0-2.63","7","null","","","","Images/BlackBeadChoiceCorrect.png","null"
"image-keyboard-response","218","302347","0.0-4.0-0.64","7","280.96999996341765","","","","Images/NewTrialBC.png","37"
"image-keyboard-response","219","302616","0.0-4.0-1.64","7","null","","","","Images/BlackBeadChoice.png","null"
"image-keyboard-response","220","303130","0.0-4.0-2.64","7","null","","","","Images/BlackBeadChoiceWrong.png","null"
"image-keyboard-response","221","304002","0.0-4.0-0.65","7","868.4999999823049","","","","Images/NewTrialWC.png","39"
"image-keyboard-response","222","304270","0.0-4.0-1.65","7","null","","","","Images/WhiteBeadChoice.png","null"
"image-keyboard-response","223","304793","0.0-4.0-2.65","7","null","","","","Images/WhiteBeadChoiceWrong.png","null"
"image-keyboard-response","224","305205","0.0-4.0-0.66","7","410.47500004060566","","","","Images/NewTrialBC.png","37"
"image-keyboard-response","225","305467","0.0-4.0-1.66","7","null","","","","Images/BlackBeadChoice.png","null"
"image-keyboard-response","226","305981","0.0-4.0-2.66","7","null","","","","Images/BlackBeadChoiceCorrect.png","null"
"image-keyboard-response","227","306797","0.0-4.0-0.67","7","813.8949999120086","","","","Images/NewTrialBC.png","39"
"image-keyboard-response","228","307058","0.0-4.0-1.67","7","null","","","","Images/WhiteBeadChoice.png","null"
"image-keyboard-response","229","307564","0.0-4.0-2.67","7","null","","","","Images/WhiteBeadChoiceCorrect.png","null"
"image-keyboard-response","230","307919","0.0-4.0-0.68","7","352.3649999406189","","","","Images/NewTrialWC.png","39"
"image-keyboard-response","231","308178","0.0-4.0-1.68","7","null","","","","Images/WhiteBeadChoice.png","null"
"image-keyboard-response","232","308694","0.0-4.0-2.68","7","null","","","","Images/WhiteBeadChoiceWrong.png","null"
"image-keyboard-response","233","309142","0.0-4.0-0.69","7","445.22500003222376","","","","Images/NewTrialBC.png","37"
"image-keyboard-response","234","309413","0.0-4.0-1.69","7","null","","","","Images/BlackBeadChoice.png","null"
"image-keyboard-response","235","309929","0.0-4.0-2.69","7","null","","","","Images/BlackBeadChoiceWrong.png","null"
"image-keyboard-response","236","310305","0.0-4.0-0.70","7","373.37000004481524","","","","Images/NewTrialWC.png","39"
"image-keyboard-response","237","310564","0.0-4.0-1.70","7","null","","","","Images/WhiteBeadChoice.png","null"
"image-keyboard-response","238","311078","0.0-4.0-2.70","7","null","","","","Images/WhiteBeadChoiceWrong.png","null"
"image-keyboard-response","239","311363","0.0-4.0-0.71","7","282.3450000723824","","","","Images/NewTrialBC.png","37"
"image-keyboard-response","240","311635","0.0-4.0-1.71","7","null","","","","Images/BlackBeadChoice.png","null"
"image-keyboard-response","241","312138","0.0-4.0-2.71","7","null","","","","Images/BlackBeadChoiceCorrect.png","null"
"image-keyboard-response","242","312337","0.0-4.0-0.72","7","195.1100000878796","","","","Images/NewTrialBC.png","37"
"image-keyboard-response","243","312593","0.0-4.0-1.72","7","null","","","","Images/BlackBeadChoice.png","null"
"image-keyboard-response","244","313107","0.0-4.0-2.72","7","null","","","","Images/BlackBeadChoiceCorrect.png","null"
"image-keyboard-response","245","313653","0.0-4.0-0.73","7","543.4799999929965","","","","Images/NewTrialBC.png","37"
"image-keyboard-response","246","313915","0.0-4.0-1.73","7","null","","","","Images/BlackBeadChoice.png","null"
"image-keyboard-response","247","314425","0.0-4.0-2.73","7","null","","","","Images/BlackBeadChoiceCorrect.png","null"
"image-keyboard-response","248","315272","0.0-4.0-0.74","7","844.2499999655411","","","","Images/NewTrialBC.png","37"
"image-keyboard-response","249","315533","0.0-4.0-1.74","7","null","","","","Images/BlackBeadChoice.png","null"
"image-keyboard-response","250","316057","0.0-4.0-2.74","7","null","","","","Images/BlackBeadChoiceWrong.png","null"
"image-keyboard-response","251","316619","0.0-4.0-0.75","7","559.3550000339746","","","","Images/NewTrialWC.png","39"
"image-keyboard-response","252","316894","0.0-4.0-1.75","7","null","","","","Images/WhiteBeadChoice.png","null"
"image-keyboard-response","253","317411","0.0-4.0-2.75","7","null","","","","Images/WhiteBeadChoiceCorrect.png","null"
"image-keyboard-response","254","317601","0.0-4.0-0.76","7","188.10499995015562","","","","Images/NewTrialWC.png","39"
"image-keyboard-response","255","317870","0.0-4.0-1.76","7","null","","","","Images/WhiteBeadChoice.png","null"
"image-keyboard-response","256","318378","0.0-4.0-2.76","7","null","","","","Images/WhiteBeadChoiceCorrect.png","null"
"image-keyboard-response","257","318714","0.0-4.0-0.77","7","333.12000008299947","","","","Images/NewTrialWC.png","39"
"image-keyboard-response","258","318972","0.0-4.0-1.77","7","null","","","","Images/WhiteBeadChoice.png","null"
"image-keyboard-response","259","319487","0.0-4.0-2.77","7","null","","","","Images/WhiteBeadChoiceCorrect.png","null"
"image-keyboard-response","260","319736","0.0-4.0-0.78","7","246.60499999299645","","","","Images/NewTrialWC.png","39"
"image-keyboard-response","261","319989","0.0-4.0-1.78","7","null","","","","Images/WhiteBeadChoice.png","null"
"image-keyboard-response","262","320503","0.0-4.0-2.78","7","null","","","","Images/WhiteBeadChoiceCorrect.png","null"
"image-keyboard-response","263","320814","0.0-4.0-0.79","7","309.0749999973923","","","","Images/NewTrialWC.png","39"
"image-keyboard-response","264","321071","0.0-4.0-1.79","7","null","","","","Images/WhiteBeadChoice.png","null"
"image-keyboard-response","265","321583","0.0-4.0-2.79","7","null","","","","Images/WhiteBeadChoiceCorrect.png","null"
"image-keyboard-response","266","322253","0.0-4.0-0.80","7","666.8749999953434","","","","Images/NewTrialWC.png","39"
"image-keyboard-response","267","322524","0.0-4.0-1.80","7","null","","","","Images/WhiteBeadChoice.png","null"
"image-keyboard-response","268","323029","0.0-4.0-2.80","7","null","","","","Images/WhiteBeadChoiceCorrect.png","null"
"image-keyboard-response","269","324239","0.0-4.0-0.81","7","1207.8599999658763","","","","Images/NewTrialWC.png","39"
"image-keyboard-response","270","324497","0.0-4.0-1.81","7","null","","","","Images/WhiteBeadChoice.png","null"
"image-keyboard-response","271","325004","0.0-4.0-2.81","7","null","","","","Images/WhiteBeadChoiceCorrect.png","null"
"image-keyboard-response","272","326200","0.0-4.0-0.82","7","1194.1899999510497","","","","Images/NewTrialWC.png","39"
"image-keyboard-response","273","326456","0.0-4.0-1.82","7","null","","","","Images/WhiteBeadChoice.png","null"
"image-keyboard-response","274","326977","0.0-4.0-2.82","7","null","","","","Images/WhiteBeadChoiceCorrect.png","null"
"image-keyboard-response","275","327449","0.0-4.0-0.83","7","469.27499992307276","","","","Images/NewTrialWC.png","39"
"image-keyboard-response","276","327720","0.0-4.0-1.83","7","null","","","","Images/WhiteBeadChoice.png","null"
"image-keyboard-response","277","328223","0.0-4.0-2.83","7","null","","","","Images/WhiteBeadChoiceCorrect.png","null"
"image-keyboard-response","278","328457","0.0-4.0-0.84","7","231.2449999153614","","","","Images/NewTrialWC.png","39"
"image-keyboard-response","279","328724","0.0-4.0-1.84","7","null","","","","Images/WhiteBeadChoice.png","null"
"image-keyboard-response","280","329234","0.0-4.0-2.84","7","null","","","","Images/WhiteBeadChoiceCorrect.png","null"
"image-keyboard-response","281","329482","0.0-4.0-0.85","7","245.48000004142523","","","","Images/NewTrialWC.png","39"
"image-keyboard-response","282","329755","0.0-4.0-1.85","7","null","","","","Images/WhiteBeadChoice.png","null"
"image-keyboard-response","283","330264","0.0-4.0-2.85","7","null","","","","Images/WhiteBeadChoiceCorrect.png","null"
"image-keyboard-response","284","330611","0.0-4.0-0.86","7","344.3549999501556","","","","Images/NewTrialWC.png","39"
"image-keyboard-response","285","330872","0.0-4.0-1.86","7","null","","","","Images/WhiteBeadChoice.png","null"
"image-keyboard-response","286","331377","0.0-4.0-2.86","7","null","","","","Images/WhiteBeadChoiceCorrect.png","null"
"image-keyboard-response","287","331648","0.0-4.0-0.87","7","268.8649999909103","","","","Images/NewTrialWC.png","39"
"image-keyboard-response","288","331912","0.0-4.0-1.87","7","null","","","","Images/WhiteBeadChoice.png","null"
"image-keyboard-response","289","332425","0.0-4.0-2.87","7","null","","","","Images/WhiteBeadChoiceWrong.png","null"
"image-keyboard-response","290","332722","0.0-4.0-0.88","7","295.6199999898672","","","","Images/NewTrialBC.png","37"
"image-keyboard-response","291","332987","0.0-4.0-1.88","7","null","","","","Images/BlackBeadChoice.png","null"
"image-keyboard-response","292","333510","0.0-4.0-2.88","7","null","","","","Images/BlackBeadChoiceCorrect.png","null"
"image-keyboard-response","293","334085","0.0-4.0-0.89","7","572.3800000268966","","","","Images/NewTrialBC.png","37"
"image-keyboard-response","294","334345","0.0-4.0-1.89","7","null","","","","Images/BlackBeadChoice.png","null"
"image-keyboard-response","295","334868","0.0-4.0-2.89","7","null","","","","Images/BlackBeadChoiceCorrect.png","null"
"image-keyboard-response","296","335371","0.0-4.0-0.90","7","500.9499998996034","","","","Images/NewTrialBC.png","37"
"image-keyboard-response","297","335636","0.0-4.0-1.90","7","null","","","","Images/BlackBeadChoice.png","null"
"image-keyboard-response","298","336147","0.0-4.0-2.90","7","null","","","","Images/BlackBeadChoiceCorrect.png","null"
"image-keyboard-response","299","336589","0.0-4.0-0.91","7","440.49499998800457","","","","Images/NewTrialBC.png","37"
"image-keyboard-response","300","336854","0.0-4.0-1.91","7","null","","","","Images/BlackBeadChoice.png","null"
"image-keyboard-response","301","337372","0.0-4.0-2.91","7","null","","","","Images/BlackBeadChoiceCorrect.png","null"
"image-keyboard-response","302","338073","0.0-4.0-0.92","7","697.649999987334","","","","Images/NewTrialBC.png","37"
"image-keyboard-response","303","338330","0.0-4.0-1.92","7","null","","","","Images/BlackBeadChoice.png","null"
"image-keyboard-response","304","338836","0.0-4.0-2.92","7","null","","","","Images/BlackBeadChoiceWrong.png","null"
"image-keyboard-response","305","339161","0.0-4.0-0.93","7","322.3050000378862","","","","Images/NewTrialWC.png","39"
"image-keyboard-response","306","339426","0.0-4.0-1.93","7","null","","","","Images/WhiteBeadChoice.png","null"
"image-keyboard-response","307","339943","0.0-4.0-2.93","7","null","","","","Images/WhiteBeadChoiceWrong.png","null"
"image-keyboard-response","308","340238","0.0-4.0-0.94","7","291.09499999322","","","","Images/NewTrialBC.png","37"
"image-keyboard-response","309","340493","0.0-4.0-1.94","7","null","","","","Images/BlackBeadChoice.png","null"
"image-keyboard-response","310","341008","0.0-4.0-2.94","7","null","","","","Images/BlackBeadChoiceWrong.png","null"
"image-keyboard-response","311","341305","0.0-4.0-0.95","7","294.92999997455627","","","","Images/NewTrialWC.png","39"
"image-keyboard-response","312","341573","0.0-4.0-1.95","7","null","","","","Images/WhiteBeadChoice.png","null"
"image-keyboard-response","313","342087","0.0-4.0-2.95","7","null","","","","Images/WhiteBeadChoiceCorrect.png","null"
"image-keyboard-response","314","342352","0.0-4.0-0.96","7","263.2300000404939","","","","Images/NewTrialWC.png","39"
"image-keyboard-response","315","342620","0.0-4.0-1.96","7","null","","","","Images/WhiteBeadChoice.png","null"
"image-keyboard-response","316","343136","0.0-4.0-2.96","7","null","","","","Images/WhiteBeadChoiceCorrect.png","null"
"image-keyboard-response","317","344035","0.0-4.0-0.97","7","896.9300000462681","","","","Images/NewTrialWC.png","39"
"image-keyboard-response","318","344296","0.0-4.0-1.97","7","null","","","","Images/WhiteBeadChoice.png","null"
"image-keyboard-response","319","344819","0.0-4.0-2.97","7","null","","","","Images/WhiteBeadChoiceCorrect.png","null"
"image-keyboard-response","320","345098","0.0-4.0-0.98","7","276.66500001214445","","","","Images/NewTrialWC.png","39"
"image-keyboard-response","321","345352","0.0-4.0-1.98","7","null","","","","Images/WhiteBeadChoice.png","null"
"image-keyboard-response","322","345860","0.0-4.0-2.98","7","null","","","","Images/WhiteBeadChoiceCorrect.png","null"
"image-keyboard-response","323","346467","0.0-4.0-0.99","7","605.0299999769777","","","","Images/NewTrialWC.png","39"
"image-keyboard-response","324","346723","0.0-4.0-1.99","7","null","","","","Images/WhiteBeadChoice.png","null"
"image-keyboard-response","325","347227","0.0-4.0-2.99","7","null","","","","Images/WhiteBeadChoiceCorrect.png","null"
"image-keyboard-response","326","347459","0.0-4.0-0.100","7","229.5350000495091","","","","Images/NewTrialWC.png","39"
"image-keyboard-response","327","347713","0.0-4.0-1.100","7","null","","","","Images/WhiteBeadChoice.png","null"
"image-keyboard-response","328","348231","0.0-4.0-2.100","7","null","","","","Images/WhiteBeadChoiceCorrect.png","null"
"image-keyboard-response","329","348567","0.0-4.0-0.101","7","333.7549999123439","","","","Images/NewTrialWC.png","39"
"image-keyboard-response","330","348831","0.0-4.0-1.101","7","null","","","","Images/WhiteBeadChoice.png","null"
"image-keyboard-response","331","349349","0.0-4.0-2.101","7","null","","","","Images/WhiteBeadChoiceWrong.png","null"
"image-keyboard-response","332","349660","0.0-4.0-0.102","7","308.8599999900907","","","","Images/NewTrialBC.png","37"
"image-keyboard-response","333","349917","0.0-4.0-1.102","7","null","","","","Images/BlackBeadChoice.png","null"
"image-keyboard-response","334","350422","0.0-4.0-2.102","7","null","","","","Images/BlackBeadChoiceCorrect.png","null"
"image-keyboard-response","335","350768","0.0-4.0-0.103","7","342.670000041835","","","","Images/NewTrialBC.png","37"
"image-keyboard-response","336","351024","0.0-4.0-1.103","7","null","","","","Images/BlackBeadChoice.png","null"
"image-keyboard-response","337","351530","0.0-4.0-2.103","7","null","","","","Images/BlackBeadChoiceCorrect.png","null"
"image-keyboard-response","338","351841","0.0-4.0-0.104","7","307.6349999755621","","","","Images/NewTrialBC.png","37"
"image-keyboard-response","339","352101","0.0-4.0-1.104","7","null","","","","Images/BlackBeadChoice.png","null"
"image-keyboard-response","340","352618","0.0-4.0-2.104","7","null","","","","Images/BlackBeadChoiceCorrect.png","null"
"image-keyboard-response","341","352834","0.0-4.0-0.105","7","213.08499993756413","","","","Images/NewTrialBC.png","37"
"image-keyboard-response","342","353091","0.0-4.0-1.105","7","null","","","","Images/BlackBeadChoice.png","null"
"image-keyboard-response","343","353615","0.0-4.0-2.105","7","null","","","","Images/BlackBeadChoiceCorrect.png","null"
"image-keyboard-response","344","353862","0.0-4.0-0.106","7","244.65500004589558","","","","Images/NewTrialBC.png","37"
"image-keyboard-response","345","354127","0.0-4.0-1.106","7","null","","","","Images/BlackBeadChoice.png","null"
"image-keyboard-response","346","354645","0.0-4.0-2.106","7","null","","","","Images/BlackBeadChoiceCorrect.png","null"
"image-keyboard-response","347","355020","0.0-4.0-0.107","7","373.08999989181757","","","","Images/NewTrialBC.png","37"
"image-keyboard-response","348","355277","0.0-4.0-1.107","7","null","","","","Images/BlackBeadChoice.png","null"
"image-keyboard-response","349","355781","0.0-4.0-2.107","7","null","","","","Images/BlackBeadChoiceWrong.png","null"
"image-keyboard-response","350","355989","0.0-4.0-0.108","7","204.84000002034009","","","","Images/NewTrialWC.png","39"
"image-keyboard-response","351","356253","0.0-4.0-1.108","7","null","","","","Images/WhiteBeadChoice.png","null"
"image-keyboard-response","352","356772","0.0-4.0-2.108","7","null","","","","Images/WhiteBeadChoiceCorrect.png","null"
"image-keyboard-response","353","357005","0.0-4.0-0.109","7","231.14499996881932","","","","Images/NewTrialWC.png","39"
"image-keyboard-response","354","357265","0.0-4.0-1.109","7","null","","","","Images/WhiteBeadChoice.png","null"
"image-keyboard-response","355","357779","0.0-4.0-2.109","7","null","","","","Images/WhiteBeadChoiceCorrect.png","null"
"image-keyboard-response","356","358095","0.0-4.0-0.110","7","313.7400000123307","","","","Images/NewTrialWC.png","39"
"image-keyboard-response","357","358363","0.0-4.0-1.110","7","null","","","","Images/WhiteBeadChoice.png","null"
"image-keyboard-response","358","358880","0.0-4.0-2.110","7","null","","","","Images/WhiteBeadChoiceWrong.png","null"
"image-keyboard-response","359","359087","0.0-4.0-0.111","7","204.1050000116229","","","","Images/NewTrialBC.png","37"
"image-keyboard-response","360","359354","0.0-4.0-1.111","7","null","","","","Images/BlackBeadChoice.png","null"
"image-keyboard-response","361","359871","0.0-4.0-2.111","7","null","","","","Images/BlackBeadChoiceCorrect.png","null"
"image-keyboard-response","362","360000","0.0-4.0-0.112","7","126.08499999623746","","","","Images/NewTrialBC.png","37"
"image-keyboard-response","363","360256","0.0-4.0-1.112","7","null","","","","Images/BlackBeadChoice.png","null"
"image-keyboard-response","364","360762","0.0-4.0-2.112","7","null","","","","Images/BlackBeadChoiceCorrect.png","null"
"image-keyboard-response","365","361014","0.0-4.0-0.113","7","250.24000008124858","","","","Images/NewTrialBC.png","37"
"image-keyboard-response","366","361277","0.0-4.0-1.113","7","null","","","","Images/BlackBeadChoice.png","null"
"image-keyboard-response","367","361800","0.0-4.0-2.113","7","null","","","","Images/BlackBeadChoiceWrong.png","null"
"image-keyboard-response","368","361922","0.0-4.0-0.114","7","119.50999998953193","","","","Images/NewTrialWC.png","39"
"image-keyboard-response","369","362176","0.0-4.0-1.114","7","null","","","","Images/WhiteBeadChoice.png","null"
"image-keyboard-response","370","362693","0.0-4.0-2.114","7","null","","","","Images/WhiteBeadChoiceWrong.png","null"
"image-keyboard-response","371","362929","0.0-4.0-0.115","7","233.28499996569008","","","","Images/NewTrialBC.png","37"
"image-keyboard-response","372","363194","0.0-4.0-1.115","7","null","","","","Images/BlackBeadChoice.png","null"
"image-keyboard-response","373","363715","0.0-4.0-2.115","7","null","","","","Images/BlackBeadChoiceCorrect.png","null"
"image-keyboard-response","374","363824","0.0-4.0-0.116","7","106.25499999150634","","","","Images/NewTrialBC.png","37"
"image-keyboard-response","375","364085","0.0-4.0-1.116","7","null","","","","Images/BlackBeadChoice.png","null"
"image-keyboard-response","376","364604","0.0-4.0-2.116","7","null","","","","Images/BlackBeadChoiceCorrect.png","null"
"image-keyboard-response","377","364842","0.0-4.0-0.117","7","235.20999995525926","","","","Images/NewTrialBC.png","37"
"image-keyboard-response","378","365121","0.0-4.0-1.117","7","null","","","","Images/BlackBeadChoice.png","null"
"image-keyboard-response","379","365640","0.0-4.0-2.117","7","null","","","","Images/BlackBeadChoiceCorrect.png","null"
"image-keyboard-response","380","365953","0.0-4.0-0.118","7","310.2450000587851","","","","Images/NewTrialBC.png","37"
"image-keyboard-response","381","366222","0.0-4.0-1.118","7","null","","","","Images/BlackBeadChoice.png","null"
"image-keyboard-response","382","366732","0.0-4.0-2.118","7","null","","","","Images/BlackBeadChoiceCorrect.png","null"
"image-keyboard-response","383","366981","0.0-4.0-0.119","7","245.73500000406057","","","","Images/NewTrialBC.png","37"
"image-keyboard-response","384","367242","0.0-4.0-1.119","7","null","","","","Images/BlackBeadChoice.png","null"
"image-keyboard-response","385","367757","0.0-4.0-2.119","7","null","","","","Images/BlackBeadChoiceCorrect.png","null"
"image-keyboard-response","386","367995","0.0-4.0-0.120","7","235.23500002920628","","","","Images/NewTrialBC.png","37"
"image-keyboard-response","387","368259","0.0-4.0-1.120","7","null","","","","Images/BlackBeadChoice.png","null"
"image-keyboard-response","388","368777","0.0-4.0-2.120","7","null","","","","Images/BlackBeadChoiceCorrect.png","null"
"image-keyboard-response","389","369035","0.0-4.0-0.121","7","254.47500008158386","","","","Images/NewTrialBC.png","37"
"image-keyboard-response","390","369296","0.0-4.0-1.121","7","null","","","","Images/BlackBeadChoice.png","null"
"image-keyboard-response","391","369814","0.0-4.0-2.121","7","null","","","","Images/BlackBeadChoiceWrong.png","null"
"image-keyboard-response","392","370089","0.0-4.0-0.122","7","270.9000000031665","","","","Images/NewTrialWC.png","39"
"image-keyboard-response","393","370351","0.0-4.0-1.122","7","null","","","","Images/WhiteBeadChoice.png","null"
"image-keyboard-response","394","370855","0.0-4.0-2.122","7","null","","","","Images/WhiteBeadChoiceCorrect.png","null"
"image-keyboard-response","395","370954","0.0-4.0-0.123","7","96.76999994553626","","","","Images/NewTrialWC.png","39"
"image-keyboard-response","396","371212","0.0-4.0-1.123","7","null","","","","Images/WhiteBeadChoice.png","null"
"image-keyboard-response","397","371729","0.0-4.0-2.123","7","null","","","","Images/WhiteBeadChoiceWrong.png","null"
"image-keyboard-response","398","371989","0.0-4.0-0.124","7","256.21000002138317","","","","Images/NewTrialBC.png","37"
"image-keyboard-response","399","372248","0.0-4.0-1.124","7","null","","","","Images/BlackBeadChoice.png","null"
"image-keyboard-response","400","372764","0.0-4.0-2.124","7","null","","","","Images/BlackBeadChoiceWrong.png","null"
"image-keyboard-response","401","373017","0.0-4.0-0.125","7","250.18999993335456","","","","Images/NewTrialWC.png","39"
"image-keyboard-response","402","373281","0.0-4.0-1.125","7","null","","","","Images/WhiteBeadChoice.png","null"
"image-keyboard-response","403","373801","0.0-4.0-2.125","7","null","","","","Images/WhiteBeadChoiceCorrect.png","null"
"image-keyboard-response","404","373984","0.0-4.0-0.126","7","179.9299999838695","","","","Images/NewTrialWC.png","39"
"image-keyboard-response","405","374240","0.0-4.0-1.126","7","null","","","","Images/WhiteBeadChoice.png","null"
"image-keyboard-response","406","374744","0.0-4.0-2.126","7","null","","","","Images/WhiteBeadChoiceCorrect.png","null"
"image-keyboard-response","407","374896","0.0-4.0-0.127","7","148.66000006441027","","","","Images/NewTrialWC.png","39"
"image-keyboard-response","408","375160","0.0-4.0-1.127","7","null","","","","Images/WhiteBeadChoice.png","null"
"image-keyboard-response","409","375680","0.0-4.0-2.127","7","null","","","","Images/WhiteBeadChoiceCorrect.png","null"
"image-keyboard-response","410","375922","0.0-4.0-0.128","7","238.46500006038696","","","","Images/NewTrialWC.png","39"
"image-keyboard-response","411","376180","0.0-4.0-1.128","7","null","","","","Images/WhiteBeadChoice.png","null"
"image-keyboard-response","412","376697","0.0-4.0-2.128","7","null","","","","Images/WhiteBeadChoiceCorrect.png","null"
"image-keyboard-response","413","376900","0.0-4.0-0.129","7","143.09000002685934","","","","Images/NewTrialWC.png","39"
"image-keyboard-response","414","377167","0.0-4.0-1.129","7","null","","","","Images/WhiteBeadChoice.png","null"
"image-keyboard-response","415","377674","0.0-4.0-2.129","7","null","","","","Images/WhiteBeadChoiceCorrect.png","null"
"image-keyboard-response","416","377747","0.0-4.0-0.130","7","68.7550000147894","","","","Images/NewTrialWC.png","39"
"image-keyboard-response","417","378006","0.0-4.0-1.130","7","null","","","","Images/WhiteBeadChoice.png","null"
"image-keyboard-response","418","378515","0.0-4.0-2.130","7","null","","","","Images/WhiteBeadChoiceCorrect.png","null"
"image-keyboard-response","419","378705","0.0-4.0-0.131","7","186.820000060834","","","","Images/NewTrialWC.png","39"
"image-keyboard-response","420","378959","0.0-4.0-1.131","7","null","","","","Images/WhiteBeadChoice.png","null"
"image-keyboard-response","421","379477","0.0-4.0-2.131","7","null","","","","Images/WhiteBeadChoiceCorrect.png","null"
"image-keyboard-response","422","379574","0.0-4.0-0.132","7","93.09500001836568","","","","Images/NewTrialWC.png","39"
"image-keyboard-response","423","379849","0.0-4.0-1.132","7","null","","","","Images/WhiteBeadChoice.png","null"
"image-keyboard-response","424","380359","0.0-4.0-2.132","7","null","","","","Images/WhiteBeadChoiceCorrect.png","null"
"image-keyboard-response","425","380551","0.0-4.0-0.133","7","190.05500001367182","","","","Images/NewTrialWC.png","39"
"image-keyboard-response","426","380819","0.0-4.0-1.133","7","null","","","","Images/WhiteBeadChoice.png","null"
"image-keyboard-response","427","381335","0.0-4.0-2.133","7","null","","","","Images/WhiteBeadChoiceCorrect.png","null"
"image-keyboard-response","428","381449","0.0-4.0-0.134","7","110.46500003430992","","","","Images/NewTrialWC.png","39"
"image-keyboard-response","429","381710","0.0-4.0-1.134","7","null","","","","Images/WhiteBeadChoice.png","null"
"image-keyboard-response","430","382217","0.0-4.0-2.134","7","null","","","","Images/WhiteBeadChoiceCorrect.png","null"
"image-keyboard-response","431","382404","0.0-4.0-0.135","7","183.16499993670732","","","","Images/NewTrialWC.png","39"
"image-keyboard-response","432","382675","0.0-4.0-1.135","7","null","","","","Images/WhiteBeadChoice.png","null"
"image-keyboard-response","433","383191","0.0-4.0-2.135","7","null","","","","Images/WhiteBeadChoiceWrong.png","null"
"image-keyboard-response","434","383582","0.0-4.0-0.136","7","388.0200000712648","","","","Images/NewTrialBC.png","37"
"image-keyboard-response","435","383851","0.0-4.0-1.136","7","null","","","","Images/BlackBeadChoice.png","null"
"image-keyboard-response","436","384376","0.0-4.0-2.136","7","null","","","","Images/BlackBeadChoiceWrong.png","null"
"image-keyboard-response","437","384689","0.0-4.0-0.137","7","309.7850000485778","","","","Images/NewTrialWC.png","39"
"image-keyboard-response","438","385006","0.0-4.0-1.137","7","null","","","","Images/WhiteBeadChoice.png","null"
"image-keyboard-response","439","385511","0.0-4.0-2.137","7","null","","","","Images/WhiteBeadChoiceWrong.png","null"
"image-keyboard-response","440","385806","0.0-4.0-0.138","7","291.4550000568852","","","","Images/NewTrialBC.png","37"
"image-keyboard-response","441","386071","0.0-4.0-1.138","7","null","","","","Images/BlackBeadChoice.png","null"
"image-keyboard-response","442","386579","0.0-4.0-2.138","7","null","","","","Images/BlackBeadChoiceWrong.png","null"
"image-keyboard-response","443","386799","0.0-4.0-0.139","7","216.19499998632818","","","","Images/NewTrialWC.png","39"
"image-keyboard-response","444","387067","0.0-4.0-1.139","7","null","","","","Images/WhiteBeadChoice.png","null"
"image-keyboard-response","445","387588","0.0-4.0-2.139","7","null","","","","Images/WhiteBeadChoiceCorrect.png","null"
"image-keyboard-response","446","387733","0.0-4.0-0.140","7","141.92000008188188","","","","Images/NewTrialWC.png","39"
"image-keyboard-response","447","387991","0.0-4.0-1.140","7","null","","","","Images/WhiteBeadChoice.png","null"
"image-keyboard-response","448","388509","0.0-4.0-2.140","7","null","","","","Images/WhiteBeadChoiceCorrect.png","null"
"image-keyboard-response","449","388705","0.0-4.0-0.141","7","193.1850000983104","","","","Images/NewTrialWC.png","39"
"image-keyboard-response","450","388972","0.0-4.0-1.141","7","null","","","","Images/WhiteBeadChoice.png","null"
"image-keyboard-response","451","389547","0.0-4.0-2.141","7","null","","","","Images/WhiteBeadChoiceCorrect.png","null"
"image-keyboard-response","452","389669","0.0-4.0-0.142","7","117.5649999640882","","","","Images/NewTrialWC.png","39"
"image-keyboard-response","453","389936","0.0-4.0-1.142","7","null","","","","Images/WhiteBeadChoice.png","null"
"image-keyboard-response","454","390452","0.0-4.0-2.142","7","null","","","","Images/WhiteBeadChoiceCorrect.png","null"
"image-keyboard-response","455","390742","0.0-4.0-0.143","7","287.3949999921024","","","","Images/NewTrialWC.png","39"
"image-keyboard-response","456","390997","0.0-4.0-1.143","7","null","","","","Images/WhiteBeadChoice.png","null"
"image-keyboard-response","457","391514","0.0-4.0-2.143","7","null","","","","Images/WhiteBeadChoiceWrong.png","null"
"image-keyboard-response","458","391819","0.0-4.0-0.144","7","301.1699999915436","","","","Images/NewTrialBC.png","37"
"image-keyboard-response","459","392088","0.0-4.0-1.144","7","null","","","","Images/BlackBeadChoice.png","null"
"image-keyboard-response","460","392597","0.0-4.0-2.144","7","null","","","","Images/BlackBeadChoiceCorrect.png","null"
"image-keyboard-response","461","392792","0.0-4.0-0.145","7","189.74999990314245","","","","Images/NewTrialBC.png","37"
"image-keyboard-response","462","393050","0.0-4.0-1.145","7","null","","","","Images/BlackBeadChoice.png","null"
"image-keyboard-response","463","393560","0.0-4.0-2.145","7","null","","","","Images/BlackBeadChoiceCorrect.png","null"
"image-keyboard-response","464","393825","0.0-4.0-0.146","7","261.7050000699237","","","","Images/NewTrialBC.png","37"
"image-keyboard-response","465","394078","0.0-4.0-1.146","7","null","","","","Images/BlackBeadChoice.png","null"
"image-keyboard-response","466","394591","0.0-4.0-2.146","7","null","","","","Images/BlackBeadChoiceCorrect.png","null"
"image-keyboard-response","467","394909","0.0-4.0-0.147","7","313.7450000504032","","","","Images/NewTrialBC.png","37"
"image-keyboard-response","468","395176","0.0-4.0-1.147","7","null","","","","Images/BlackBeadChoice.png","null"
"image-keyboard-response","469","395681","0.0-4.0-2.147","7","null","","","","Images/BlackBeadChoiceWrong.png","null"
"image-keyboard-response","470","395893","0.0-4.0-0.148","7","208.96499999798834","","","","Images/NewTrialWC.png","39"
"image-keyboard-response","471","396151","0.0-4.0-1.148","7","null","","","","Images/WhiteBeadChoice.png","null"
"image-keyboard-response","472","396668","0.0-4.0-2.148","7","null","","","","Images/WhiteBeadChoiceCorrect.png","null"
"image-keyboard-response","473","396751","0.0-4.0-0.149","7","79.84000002034009","","","","Images/NewTrialWC.png","39"
"image-keyboard-response","474","397009","0.0-4.0-1.149","7","null","","","","Images/WhiteBeadChoice.png","null"
"image-keyboard-response","475","397513","0.0-4.0-2.149","7","null","","","","Images/WhiteBeadChoiceCorrect.png","null"
"image-keyboard-response","476","397633","0.0-4.0-0.150","7","116.3849999429658","","","","Images/NewTrialWC.png","39"
"image-keyboard-response","477","397887","0.0-4.0-1.150","7","null","","","","Images/WhiteBeadChoice.png","null"
"image-keyboard-response","478","398423","0.0-4.0-2.150","7","null","","","","Images/WhiteBeadChoiceCorrect.png","null"
"image-keyboard-response","479","398520","0.0-4.0-0.151","7","95.29500000644475","","","","Images/NewTrialWC.png","39"
"image-keyboard-response","480","398788","0.0-4.0-1.151","7","null","","","","Images/WhiteBeadChoice.png","null"
"image-keyboard-response","481","399303","0.0-4.0-2.151","7","null","","","","Images/WhiteBeadChoiceCorrect.png","null"
"image-keyboard-response","482","399406","0.0-4.0-0.152","7","99.62999995332211","","","","Images/NewTrialWC.png","39"
"image-keyboard-response","483","399685","0.0-4.0-1.152","7","null","","","","Images/WhiteBeadChoice.png","null"
"image-keyboard-response","484","400189","0.0-4.0-2.152","7","500","","","","Images/WhiteBeadChoiceCorrect.png","39"
"image-keyboard-response","485","400713","0.0-4.0-0.153","7","521.0100000258535","","","","Images/NewTrialWC.png","39"
"image-keyboard-response","486","400979","0.0-4.0-1.153","7","null","","","","Images/WhiteBeadChoice.png","null"
"image-keyboard-response","487","401489","0.0-4.0-2.153","7","null","","","","Images/WhiteBeadChoiceCorrect.png","null"
"image-keyboard-response","488","401805","0.0-4.0-0.154","7","312.900000018999","","","","Images/NewTrialWC.png","39"
"image-keyboard-response","489","402067","0.0-4.0-1.154","7","null","","","","Images/WhiteBeadChoice.png","null"
"image-keyboard-response","490","402580","0.0-4.0-2.154","7","null","","","","Images/WhiteBeadChoiceCorrect.png","null"
"image-keyboard-response","491","402938","0.0-4.0-0.155","7","354.50500005390495","","","","Images/NewTrialWC.png","39"
"image-keyboard-response","492","403212","0.0-4.0-1.155","7","null","","","","Images/WhiteBeadChoice.png","null"
"image-keyboard-response","493","403729","0.0-4.0-2.155","7","null","","","","Images/WhiteBeadChoiceCorrect.png","null"
"image-keyboard-response","494","403977","0.0-4.0-0.156","7","244.08000009134412","","","","Images/NewTrialWC.png","39"
"image-keyboard-response","495","404233","0.0-4.0-1.156","7","null","","","","Images/WhiteBeadChoice.png","null"
"image-keyboard-response","496","404749","0.0-4.0-2.156","7","null","","","","Images/WhiteBeadChoiceCorrect.png","null"
"image-keyboard-response","497","405079","0.0-4.0-0.157","7","325.13000001199543","","","","Images/NewTrialWC.png","39"
"image-keyboard-response","498","405340","0.0-4.0-1.157","7","null","","","","Images/WhiteBeadChoice.png","null"
"image-keyboard-response","499","405850","0.0-4.0-2.157","7","null","","","","Images/WhiteBeadChoiceCorrect.png","null"
"image-keyboard-response","500","406111","0.0-4.0-0.158","7","254.20500000473112","","","","Images/NewTrialWC.png","39"
"image-keyboard-response","501","406408","0.0-4.0-1.158","7","null","","","","Images/WhiteBeadChoice.png","null"
"image-keyboard-response","502","406912","0.0-4.0-2.158","7","null","","","","Images/WhiteBeadChoiceWrong.png","null"
"image-keyboard-response","503","407210","0.0-4.0-0.159","7","293.5150000266731","","","","Images/NewTrialBC.png","37"
"image-keyboard-response","504","407536","0.0-4.0-1.159","7","null","","","","Images/BlackBeadChoice.png","null"
"image-keyboard-response","505","408040","0.0-4.0-2.159","7","null","","","","Images/BlackBeadChoiceWrong.png","null"
"image-keyboard-response","506","408262","0.0-4.0-0.160","7","218.8000000314787","","","","Images/NewTrialWC.png","39"
"image-keyboard-response","507","408528","0.0-4.0-1.160","7","null","","","","Images/WhiteBeadChoice.png","null"
"image-keyboard-response","508","409038","0.0-4.0-2.160","7","null","","","","Images/WhiteBeadChoiceWrong.png","null"
"image-keyboard-response","509","409322","0.0-4.0-0.161","7","281.29499999340624","","","","Images/NewTrialBC.png","37"
"image-keyboard-response","510","409578","0.0-4.0-1.161","7","null","","","","Images/BlackBeadChoice.png","null"
"image-keyboard-response","511","410093","0.0-4.0-2.161","7","null","","","","Images/BlackBeadChoiceWrong.png","null"
"image-keyboard-response","512","410367","0.0-4.0-0.162","7","270.52000002004206","","","","Images/NewTrialWC.png","39"
"image-keyboard-response","513","410626","0.0-4.0-1.162","7","null","","","","Images/WhiteBeadChoice.png","null"
"image-keyboard-response","514","411145","0.0-4.0-2.162","7","null","","","","Images/WhiteBeadChoiceWrong.png","null"
"image-keyboard-response","515","411516","0.0-4.0-0.163","7","367.19999997876585","","","","Images/NewTrialBC.png","37"
"image-keyboard-response","516","411784","0.0-4.0-1.163","7","null","","","","Images/BlackBeadChoice.png","null"
"image-keyboard-response","517","412307","0.0-4.0-2.163","7","null","","","","Images/BlackBeadChoiceCorrect.png","null"
"image-keyboard-response","518","412582","0.0-4.0-0.164","7","272.51999999862164","","","","Images/NewTrialBC.png","37"
"image-keyboard-response","519","412839","0.0-4.0-1.164","7","null","","","","Images/BlackBeadChoice.png","null"
"image-keyboard-response","520","413347","0.0-4.0-2.164","7","null","","","","Images/BlackBeadChoiceCorrect.png","null"
"image-keyboard-response","521","414192","0.0-4.0-0.165","7","841.370000038296","","","","Images/NewTrialBC.png","37"
"image-keyboard-response","522","414455","0.0-4.0-1.165","7","null","","","","Images/BlackBeadChoice.png","null"
"image-keyboard-response","523","414972","0.0-4.0-2.165","7","null","","","","Images/BlackBeadChoiceCorrect.png","null"
"image-keyboard-response","524","414994","0.0-4.0-0.166","7","19.659999990835786","","","","Images/NewTrialBC.png","37"
"image-keyboard-response","525","415262","0.0-4.0-1.166","7","null","","","","Images/BlackBeadChoice.png","null"
"image-keyboard-response","526","415767","0.0-4.0-2.166","7","null","","","","Images/BlackBeadChoiceCorrect.png","null"
"image-keyboard-response","527","416123","0.0-4.0-0.167","7","353.3700000261888","","","","Images/NewTrialBC.png","37"
"image-keyboard-response","528","416384","0.0-4.0-1.167","7","null","","","","Images/BlackBeadChoice.png","null"
"image-keyboard-response","529","416891","0.0-4.0-2.167","7","null","","","","Images/BlackBeadChoiceCorrect.png","null"
"image-keyboard-response","530","417217","0.0-4.0-0.168","7","322.46000005397946","","","","Images/NewTrialBC.png","37"
"image-keyboard-response","531","417480","0.0-4.0-1.168","7","null","","","","Images/BlackBeadChoice.png","null"
"image-keyboard-response","532","418001","0.0-4.0-2.168","7","null","","","","Images/BlackBeadChoiceWrong.png","null"
"image-keyboard-response","533","418770","0.0-4.0-0.169","7","766.5200000628829","","","","Images/NewTrialWC.png","39"
"image-keyboard-response","534","419025","0.0-4.0-1.169","7","null","","","","Images/WhiteBeadChoice.png","null"
"image-keyboard-response","535","419536","0.0-4.0-2.169","7","null","","","","Images/WhiteBeadChoiceWrong.png","null"
"image-keyboard-response","536","419874","0.0-4.0-0.170","7","334.679999970831","","","","Images/NewTrialBC.png","37"
"image-keyboard-response","537","420132","0.0-4.0-1.170","7","null","","","","Images/BlackBeadChoice.png","null"
"image-keyboard-response","538","420650","0.0-4.0-2.170","7","null","","","","Images/BlackBeadChoiceCorrect.png","null"
"image-keyboard-response","539","420950","0.0-4.0-0.171","7","296.65499995462596","","","","Images/NewTrialBC.png","37"
"image-keyboard-response","540","421214","0.0-4.0-1.171","7","null","","","","Images/BlackBeadChoice.png","null"
"image-keyboard-response","541","421733","0.0-4.0-2.171","7","null","","","","Images/BlackBeadChoiceCorrect.png","null"
"image-keyboard-response","542","422069","0.0-4.0-0.172","7","332.2449999395758","","","","Images/NewTrialBC.png","37"
"image-keyboard-response","543","422338","0.0-4.0-1.172","7","null","","","","Images/BlackBeadChoice.png","null"
"image-keyboard-response","544","422854","0.0-4.0-2.172","7","null","","","","Images/BlackBeadChoiceCorrect.png","null"
"image-keyboard-response","545","423172","0.0-4.0-0.173","7","314.5350000122562","","","","Images/NewTrialBC.png","37"
"image-keyboard-response","546","423425","0.0-4.0-1.173","7","null","","","","Images/BlackBeadChoice.png","null"
"image-keyboard-response","547","423945","0.0-4.0-2.173","7","null","","","","Images/BlackBeadChoiceCorrect.png","null"
"image-keyboard-response","548","424265","0.0-4.0-0.174","7","316.65000005159527","","","","Images/NewTrialBC.png","37"
"image-keyboard-response","549","424527","0.0-4.0-1.174","7","null","","","","Images/BlackBeadChoice.png","null"
"image-keyboard-response","550","425032","0.0-4.0-2.174","7","null","","","","Images/BlackBeadChoiceWrong.png","null"
"image-keyboard-response","551","425264","0.0-4.0-0.175","7","228.6399999866262","","","","Images/NewTrialWC.png","39"
"image-keyboard-response","552","425560","0.0-4.0-1.175","7","null","","","","Images/WhiteBeadChoice.png","null"
"image-keyboard-response","553","426073","0.0-4.0-2.175","7","null","","","","Images/WhiteBeadChoiceCorrect.png","null"
"image-keyboard-response","554","426210","0.0-4.0-0.176","7","130.2400000859052","","","","Images/NewTrialWC.png","39"
"image-keyboard-response","555","426478","0.0-4.0-1.176","7","null","","","","Images/WhiteBeadChoice.png","null"
"image-keyboard-response","556","426995","0.0-4.0-2.176","7","null","","","","Images/WhiteBeadChoiceCorrect.png","null"
"image-keyboard-response","557","427193","0.0-4.0-0.177","7","194.82999993488193","","","","Images/NewTrialWC.png","39"
"image-keyboard-response","558","427454","0.0-4.0-1.177","7","null","","","","Images/WhiteBeadChoice.png","null"
"image-keyboard-response","559","427958","0.0-4.0-2.177","7","null","","","","Images/WhiteBeadChoiceCorrect.png","null"
"image-keyboard-response","560","428166","0.0-4.0-0.178","7","203.7700000219047","","","","Images/NewTrialWC.png","39"
"image-keyboard-response","561","428429","0.0-4.0-1.178","7","null","","","","Images/WhiteBeadChoice.png","null"
"image-keyboard-response","562","428957","0.0-4.0-2.178","7","null","","","","Images/WhiteBeadChoiceWrong.png","null"
"image-keyboard-response","563","429228","0.0-4.0-0.179","7","268.1200000224635","","","","Images/NewTrialBC.png","37"
"image-keyboard-response","564","429495","0.0-4.0-1.179","7","null","","","","Images/BlackBeadChoice.png","null"
"image-keyboard-response","565","430007","0.0-4.0-2.179","7","null","","","","Images/BlackBeadChoiceCorrect.png","null"
"image-keyboard-response","566","430277","0.0-4.0-0.180","7","266.84499997645617","","","","Images/NewTrialBC.png","37"
"image-keyboard-response","567","430537","0.0-4.0-1.180","7","null","","","","Images/BlackBeadChoice.png","null"
"image-keyboard-response","568","431061","0.0-4.0-2.180","7","null","","","","Images/BlackBeadChoiceCorrect.png","null"
"image-keyboard-response","569","431241","0.0-4.0-0.181","7","177.3849999299273","","","","Images/NewTrialBC.png","37"
"image-keyboard-response","570","431509","0.0-4.0-1.181","7","null","","","","Images/BlackBeadChoice.png","null"
"image-keyboard-response","571","432018","0.0-4.0-2.181","7","null","","","","Images/BlackBeadChoiceCorrect.png","null"
"image-keyboard-response","572","432263","0.0-4.0-0.182","7","238.939999951981","","","","Images/NewTrialBC.png","37"
"image-keyboard-response","573","432523","0.0-4.0-1.182","7","null","","","","Images/BlackBeadChoice.png","null"
"image-keyboard-response","574","433029","0.0-4.0-2.182","7","null","","","","Images/BlackBeadChoiceCorrect.png","null"
"image-keyboard-response","575","433286","0.0-4.0-0.183","7","254.04000002890825","","","","Images/NewTrialBC.png","37"
"image-keyboard-response","576","433551","0.0-4.0-1.183","7","null","","","","Images/BlackBeadChoice.png","null"
"image-keyboard-response","577","434068","0.0-4.0-2.183","7","null","","","","Images/BlackBeadChoiceCorrect.png","null"
"image-keyboard-response","578","434359","0.0-4.0-0.184","7","286.6449999855831","","","","Images/NewTrialBC.png","37"
"image-keyboard-response","579","434622","0.0-4.0-1.184","7","null","","","","Images/BlackBeadChoice.png","null"
"image-keyboard-response","580","435137","0.0-4.0-2.184","7","null","","","","Images/BlackBeadChoiceCorrect.png","null"
"image-keyboard-response","581","435408","0.0-4.0-0.185","7","265.430000028573","","","","Images/NewTrialBC.png","37"
"image-keyboard-response","582","435669","0.0-4.0-1.185","7","null","","","","Images/BlackBeadChoice.png","null"
"image-keyboard-response","583","436189","0.0-4.0-2.185","7","null","","","","Images/BlackBeadChoiceWrong.png","null"
"image-keyboard-response","584","436450","0.0-4.0-0.186","7","257.0599999744445","","","","Images/NewTrialWC.png","39"
"image-keyboard-response","585","436708","0.0-4.0-1.186","7","null","","","","Images/WhiteBeadChoice.png","null"
"image-keyboard-response","586","437227","0.0-4.0-2.186","7","null","","","","Images/WhiteBeadChoiceCorrect.png","null"
"image-keyboard-response","587","437398","0.0-4.0-0.187","7","168.22999995201826","","","","Images/NewTrialWC.png","39"
"image-keyboard-response","588","437665","0.0-4.0-1.187","7","null","","","","Images/WhiteBeadChoice.png","null"
"image-keyboard-response","589","438184","0.0-4.0-2.187","7","null","","","","Images/WhiteBeadChoiceCorrect.png","null"
"image-keyboard-response","590","438612","0.0-4.0-0.188","7","424.35999994631857","","","","Images/NewTrialWC.png","39"
"image-keyboard-response","591","438869","0.0-4.0-1.188","7","null","","","","Images/WhiteBeadChoice.png","null"
"image-keyboard-response","592","439386","0.0-4.0-2.188","7","null","","","","Images/WhiteBeadChoiceCorrect.png","null"
"image-keyboard-response","593","439684","0.0-4.0-0.189","7","295.0399999972433","","","","Images/NewTrialWC.png","39"
"image-keyboard-response","594","439949","0.0-4.0-1.189","7","null","","","","Images/WhiteBeadChoice.png","null"
"image-keyboard-response","595","440455","0.0-4.0-2.189","7","null","","","","Images/WhiteBeadChoiceCorrect.png","null"
"image-keyboard-response","596","440782","0.0-4.0-0.190","7","323.36500007659197","","","","Images/NewTrialWC.png","39"
"image-keyboard-response","597","441045","0.0-4.0-1.190","7","null","","","","Images/WhiteBeadChoice.png","null"
"image-keyboard-response","598","441561","0.0-4.0-2.190","7","null","","","","Images/WhiteBeadChoiceCorrect.png","null"
"image-keyboard-response","599","441769","0.0-4.0-0.191","7","205.50999999977648","","","","Images/NewTrialWC.png","39"
"image-keyboard-response","600","442033","0.0-4.0-1.191","7","null","","","","Images/WhiteBeadChoice.png","null"
"image-keyboard-response","601","442549","0.0-4.0-2.191","7","null","","","","Images/WhiteBeadChoiceWrong.png","null"
"image-keyboard-response","602","442838","0.0-4.0-0.192","7","286.3849999848753","","","","Images/NewTrialBC.png","37"
"image-keyboard-response","603","443109","0.0-4.0-1.192","7","null","","","","Images/BlackBeadChoice.png","null"
"image-keyboard-response","604","443628","0.0-4.0-2.192","7","null","","","","Images/BlackBeadChoiceWrong.png","null"
"image-keyboard-response","605","443887","0.0-4.0-0.193","7","253.85500001721084","","","","Images/NewTrialWC.png","39"
"image-keyboard-response","606","444146","0.0-4.0-1.193","7","null","","","","Images/WhiteBeadChoice.png","null"
"image-keyboard-response","607","444674","0.0-4.0-2.193","7","null","","","","Images/WhiteBeadChoiceWrong.png","null"
"image-keyboard-response","608","444938","0.0-4.0-0.194","7","261.9499999564141","","","","Images/NewTrialBC.png","37"
"image-keyboard-response","609","445198","0.0-4.0-1.194","7","null","","","","Images/BlackBeadChoice.png","null"
"image-keyboard-response","610","445712","0.0-4.0-2.194","7","null","","","","Images/BlackBeadChoiceWrong.png","null"
"image-keyboard-response","611","445926","0.0-4.0-0.195","7","210.59999999124557","","","","Images/NewTrialWC.png","39"
"image-keyboard-response","612","446184","0.0-4.0-1.195","7","null","","","","Images/WhiteBeadChoice.png","null"
"image-keyboard-response","613","446700","0.0-4.0-2.195","7","null","","","","Images/WhiteBeadChoiceWrong.png","null"
"image-keyboard-response","614","446935","0.0-4.0-0.196","7","231.61500005517155","","","","Images/NewTrialBC.png","37"
"image-keyboard-response","615","447203","0.0-4.0-1.196","7","null","","","","Images/BlackBeadChoice.png","null"
"image-keyboard-response","616","447719","0.0-4.0-2.196","7","null","","","","Images/BlackBeadChoiceCorrect.png","null"
"image-keyboard-response","617","447954","0.0-4.0-0.197","7","231.20499996002764","","","","Images/NewTrialBC.png","37"
"image-keyboard-response","618","448217","0.0-4.0-1.197","7","null","","","","Images/BlackBeadChoice.png","null"
"image-keyboard-response","619","448729","0.0-4.0-2.197","7","null","","","","Images/BlackBeadChoiceCorrect.png","null"
"image-keyboard-response","620","449123","0.0-4.0-0.198","7","390.7650000182912","","","","Images/NewTrialBC.png","37"
"image-keyboard-response","621","449377","0.0-4.0-1.198","7","null","","","","Images/BlackBeadChoice.png","null"
"image-keyboard-response","622","449894","0.0-4.0-2.198","7","null","","","","Images/BlackBeadChoiceCorrect.png","null"
"image-keyboard-response","623","450100","0.0-4.0-0.199","7","202.12500006891787","","","","Images/NewTrialBC.png","37"
"image-keyboard-response","624","450355","0.0-4.0-1.199","7","null","","","","Images/BlackBeadChoice.png","null"
"image-keyboard-response","625","450873","0.0-4.0-2.199","7","null","","","","Images/BlackBeadChoiceCorrect.png","null"
"html-keyboard-response","626","582130","0.0-5.0","7","131253.20000003558","","","","","32"
"html-keyboard-response","627","591480","0.0-6.0","7","9345.360000035726","","","","<div class=""container"" style=""height:800px;width:800px;display:flex;flex-direction:column;justify-content:center;align-items:center;text-align:center;font-weight:normal;font-family:Arial;font-size:20px""><p>Loading episode&hellip;</p><div>","32"
"image-keyboard-response","628","599581","0.0-7.0-0.0","7","8097.775000031106","","","","Images/NoChoiceMM.png","37"
"image-keyboard-response","629","599871","0.0-7.0-1.0","7","null","","","","Images/BlackBeadChoiceMM.png","null"
"image-keyboard-response","630","600392","0.0-7.0-2.0","7","null","","","","Images/BlackBeadChoiceWrongMM.png","null"
"image-keyboard-response","631","601468","0.0-7.0-0.1","7","1072.9799999389797","","","","Images/NewTrialWCMM.png","39"
"image-keyboard-response","632","601732","0.0-7.0-1.1","7","null","","","","Images/WhiteBeadChoiceMM.png","null"
"image-keyboard-response","633","602251","0.0-7.0-2.1","7","null","","","","Images/WhiteBeadChoiceCorrectMM.png","null"
"image-keyboard-response","634","602546","0.0-7.0-0.2","7","291.6349999140948","","","","Images/NewTrialWCMM.png","39"
"image-keyboard-response","635","602806","0.0-7.0-1.2","7","null","","","","Images/WhiteBeadChoiceMM.png","null"
"image-keyboard-response","636","603315","0.0-7.0-2.2","7","null","","","","Images/WhiteBeadChoiceCorrectMM.png","null"
"image-keyboard-response","637","603508","0.0-7.0-0.3","7","189.60499996319413","","","","Images/NewTrialWCMM.png","39"
"image-keyboard-response","638","603763","0.0-7.0-1.3","7","null","","","","Images/WhiteBeadChoiceMM.png","null"
"image-keyboard-response","639","604280","0.0-7.0-2.3","7","null","","","","Images/WhiteBeadChoiceCorrectMM.png","null"
"image-keyboard-response","640","604533","0.0-7.0-0.4","7","248.96500003524125","","","","Images/NewTrialWCMM.png","39"
"image-keyboard-response","641","604795","0.0-7.0-1.4","7","null","","","","Images/WhiteBeadChoiceMM.png","null"
"image-keyboard-response","642","605319","0.0-7.0-2.4","7","null","","","","Images/WhiteBeadChoiceCorrectMM.png","null"
"image-keyboard-response","643","605495","0.0-7.0-0.5","7","172.22499998752028","","","","Images/NewTrialWCMM.png","39"
"image-keyboard-response","644","605754","0.0-7.0-1.5","7","null","","","","Images/WhiteBeadChoiceMM.png","null"
"image-keyboard-response","645","606272","0.0-7.0-2.5","7","null","","","","Images/WhiteBeadChoiceCorrectMM.png","null"
"image-keyboard-response","646","606396","0.0-7.0-0.6","7","119.9349999660626","","","","Images/NewTrialWCMM.png","39"
"image-keyboard-response","647","606658","0.0-7.0-1.6","7","null","","","","Images/WhiteBeadChoiceMM.png","null"
"image-keyboard-response","648","607175","0.0-7.0-2.6","7","null","","","","Images/WhiteBeadChoiceCorrectMM.png","null"
"image-keyboard-response","649","607308","0.0-7.0-0.7","7","129.4550000457093","","","","Images/NewTrialWCMM.png","39"
"image-keyboard-response","650","607562","0.0-7.0-1.7","7","null","","","","Images/WhiteBeadChoiceMM.png","null"
"image-keyboard-response","651","608076","0.0-7.0-2.7","7","null","","","","Images/WhiteBeadChoiceCorrectMM.png","null"
"image-keyboard-response","652","608200","0.0-7.0-0.8","7","119.12000004667789","","","","Images/NewTrialWCMM.png","39"
"image-keyboard-response","653","608461","0.0-7.0-1.8","7","null","","","","Images/WhiteBeadChoiceMM.png","null"
"image-keyboard-response","654","608976","0.0-7.0-2.8","7","null","","","","Images/WhiteBeadChoiceCorrectMM.png","null"
"image-keyboard-response","655","609097","0.0-7.0-0.9","7","117.18499998096377","","","","Images/NewTrialWCMM.png","39"
"image-keyboard-response","656","609362","0.0-7.0-1.9","7","null","","","","Images/WhiteBeadChoiceMM.png","null"
"image-keyboard-response","657","609866","0.0-7.0-2.9","7","null","","","","Images/WhiteBeadChoiceCorrectMM.png","null"
"image-keyboard-response","658","609934","0.0-7.0-0.10","7","66.26500003039837","","","","Images/NewTrialWCMM.png","39"
"image-keyboard-response","659","610190","0.0-7.0-1.10","7","null","","","","Images/WhiteBeadChoiceMM.png","null"
"image-keyboard-response","660","610699","0.0-7.0-2.10","7","null","","","","Images/WhiteBeadChoiceCorrectMM.png","null"
"image-keyboard-response","661","610821","0.0-7.0-0.11","7","118.5199999017641","","","","Images/NewTrialWCMM.png","39"
"image-keyboard-response","662","611078","0.0-7.0-1.11","7","null","","","","Images/WhiteBeadChoiceMM.png","null"
"image-keyboard-response","663","611589","0.0-7.0-2.11","7","null","","","","Images/WhiteBeadChoiceCorrectMM.png","null"
"image-keyboard-response","664","611664","0.0-7.0-0.12","7","68.69999994523823","","","","Images/NewTrialWCMM.png","39"
"image-keyboard-response","665","611921","0.0-7.0-1.12","7","null","","","","Images/WhiteBeadChoiceMM.png","null"
"image-keyboard-response","666","612425","0.0-7.0-2.12","7","null","","","","Images/WhiteBeadChoiceCorrectMM.png","null"
"image-keyboard-response","667","612456","0.0-7.0-0.13","7","27.520000003278255","","","","Images/NewTrialWCMM.png","39"
"image-keyboard-response","668","612712","0.0-7.0-1.13","7","null","","","","Images/WhiteBeadChoiceMM.png","null"
"image-keyboard-response","669","613237","0.0-7.0-2.13","7","null","","","","Images/WhiteBeadChoiceCorrectMM.png","null"
"image-keyboard-response","670","613259","0.0-7.0-0.14","7","17.244999995455146","","","","Images/NewTrialWCMM.png","39"
"image-keyboard-response","671","613524","0.0-7.0-1.14","7","null","","","","Images/WhiteBeadChoiceMM.png","null"
"image-keyboard-response","672","614046","0.0-7.0-2.14","7","null","","","","Images/WhiteBeadChoiceCorrectMM.png","null"
"image-keyboard-response","673","614073","0.0-7.0-0.15","7","24.914999958127737","","","","Images/NewTrialWCMM.png","39"
"image-keyboard-response","674","614395","0.0-7.0-1.15","7","null","","","","Images/WhiteBeadChoiceMM.png","null"
"image-keyboard-response","675","614913","0.0-7.0-2.15","7","null","","","","Images/WhiteBeadChoiceCorrectMM.png","null"
"image-keyboard-response","676","614937","0.0-7.0-0.16","7","21.180000039748847","","","","Images/NewTrialWCMM.png","39"
"image-keyboard-response","677","615205","0.0-7.0-1.16","7","null","","","","Images/WhiteBeadChoiceMM.png","null"
"image-keyboard-response","678","615713","0.0-7.0-2.16","7","null","","","","Images/WhiteBeadChoiceCorrectMM.png","null"
"image-keyboard-response","679","615831","0.0-7.0-0.17","7","113.77499997615814","","","","Images/NewTrialWCMM.png","39"
"image-keyboard-response","680","616093","0.0-7.0-1.17","7","null","","","","Images/WhiteBeadChoiceMM.png","null"
"image-keyboard-response","681","616597","0.0-7.0-2.17","7","null","","","","Images/WhiteBeadChoiceCorrectMM.png","null"
"image-keyboard-response","682","616693","0.0-7.0-0.18","7","91.45500010345131","","","","Images/NewTrialWCMM.png","39"
"image-keyboard-response","683","616960","0.0-7.0-1.18","7","null","","","","Images/WhiteBeadChoiceMM.png","null"
"image-keyboard-response","684","617465","0.0-7.0-2.18","7","null","","","","Images/WhiteBeadChoiceWrongMM.png","null"
"image-keyboard-response","685","619789","0.0-7.0-0.19","7","2321.570000029169","","","","Images/NewTrialBCMM.png","37"
"image-keyboard-response","686","620082","0.0-7.0-1.19","7","null","","","","Images/BlackBeadChoiceMM.png","null"
"image-keyboard-response","687","620604","0.0-7.0-2.19","7","null","","","","Images/BlackBeadChoiceCorrectMM.png","null"
"image-keyboard-response","688","620988","0.0-7.0-0.20","7","382.2849999414757","","","","Images/NewTrialBCMM.png","37"
"image-keyboard-response","689","621260","0.0-7.0-1.20","7","null","","","","Images/BlackBeadChoiceMM.png","null"
"image-keyboard-response","690","621769","0.0-7.0-2.20","7","null","","","","Images/BlackBeadChoiceWrongMM.png","null"
"image-keyboard-response","691","622143","0.0-7.0-0.21","7","369.1800000378862","","","","Images/NewTrialWCMM.png","39"
"image-keyboard-response","692","622406","0.0-7.0-1.21","7","null","","","","Images/WhiteBeadChoiceMM.png","null"
"image-keyboard-response","693","622917","0.0-7.0-2.21","7","null","","","","Images/WhiteBeadChoiceCorrectMM.png","null"
"image-keyboard-response","694","623325","0.0-7.0-0.22","7","404.02500005438924","","","","Images/NewTrialWCMM.png","39"
"image-keyboard-response","695","623586","0.0-7.0-1.22","7","null","","","","Images/WhiteBeadChoiceMM.png","null"
"image-keyboard-response","696","624103","0.0-7.0-2.22","7","null","","","","Images/WhiteBeadChoiceCorrectMM.png","null"
"image-keyboard-response","697","624420","0.0-7.0-0.23","7","312.3349999077618","","","","Images/NewTrialWCMM.png","39"
"image-keyboard-response","698","624686","0.0-7.0-1.23","7","null","","","","Images/WhiteBeadChoiceMM.png","null"
"image-keyboard-response","699","625206","0.0-7.0-2.23","7","null","","","","Images/WhiteBeadChoiceCorrectMM.png","null"
"image-keyboard-response","700","625378","0.0-7.0-0.24","7","168.73999999370426","","","","Images/NewTrialWCMM.png","39"
"image-keyboard-response","701","625636","0.0-7.0-1.24","7","null","","","","Images/WhiteBeadChoiceMM.png","null"
"image-keyboard-response","702","626140","0.0-7.0-2.24","7","null","","","","Images/WhiteBeadChoiceCorrectMM.png","null"
"image-keyboard-response","703","626449","0.0-7.0-0.25","7","306.40000000130385","","","","Images/NewTrialWCMM.png","39"
"image-keyboard-response","704","626715","0.0-7.0-1.25","7","null","","","","Images/WhiteBeadChoiceMM.png","null"
"image-keyboard-response","705","627224","0.0-7.0-2.25","7","null","","","","Images/WhiteBeadChoiceCorrectMM.png","null"
"image-keyboard-response","706","627379","0.0-7.0-0.26","7","150.87500005029142","","","","Images/NewTrialWCMM.png","39"
"image-keyboard-response","707","627641","0.0-7.0-1.26","7","null","","","","Images/WhiteBeadChoiceMM.png","null"
"image-keyboard-response","708","628147","0.0-7.0-2.26","7","null","","","","Images/WhiteBeadChoiceCorrectMM.png","null"
"image-keyboard-response","709","628275","0.0-7.0-0.27","7","124.34499990195036","","","","Images/NewTrialWCMM.png","39"
"image-keyboard-response","710","628531","0.0-7.0-1.27","7","null","","","","Images/WhiteBeadChoiceMM.png","null"
"image-keyboard-response","711","629049","0.0-7.0-2.27","7","null","","","","Images/WhiteBeadChoiceCorrectMM.png","null"
"image-keyboard-response","712","629169","0.0-7.0-0.28","7","117.66500002704561","","","","Images/NewTrialWCMM.png","39"
"image-keyboard-response","713","629427","0.0-7.0-1.28","7","null","","","","Images/WhiteBeadChoiceMM.png","null"
"image-keyboard-response","714","629942","0.0-7.0-2.28","7","null","","","","Images/WhiteBeadChoiceCorrectMM.png","null"
"image-keyboard-response","715","630131","0.0-7.0-0.29","7","186.28999998327345","","","","Images/NewTrialWCMM.png","39"
"image-keyboard-response","716","630391","0.0-7.0-1.29","7","null","","","","Images/WhiteBeadChoiceMM.png","null"
"image-keyboard-response","717","630896","0.0-7.0-2.29","7","null","","","","Images/WhiteBeadChoiceCorrectMM.png","null"
"image-keyboard-response","718","631032","0.0-7.0-0.30","7","132.08500004839152","","","","Images/NewTrialWCMM.png","39"
"image-keyboard-response","719","631297","0.0-7.0-1.30","7","null","","","","Images/WhiteBeadChoiceMM.png","null"
"image-keyboard-response","720","631815","0.0-7.0-2.30","7","null","","","","Images/WhiteBeadChoiceCorrectMM.png","null"
"image-keyboard-response","721","631979","0.0-7.0-0.31","7","159.92000000551343","","","","Images/NewTrialWCMM.png","39"
"image-keyboard-response","722","632244","0.0-7.0-1.31","7","null","","","","Images/WhiteBeadChoiceMM.png","null"
"image-keyboard-response","723","632773","0.0-7.0-2.31","7","null","","","","Images/WhiteBeadChoiceCorrectMM.png","null"
"image-keyboard-response","724","632965","0.0-7.0-0.32","7","188.30500007607043","","","","Images/NewTrialWCMM.png","39"
"image-keyboard-response","725","633229","0.0-7.0-1.32","7","null","","","","Images/WhiteBeadChoiceMM.png","null"
"image-keyboard-response","726","633734","0.0-7.0-2.32","7","null","","","","Images/WhiteBeadChoiceCorrectMM.png","null"
"image-keyboard-response","727","633901","0.0-7.0-0.33","7","163.1500000366941","","","","Images/NewTrialWCMM.png","39"
"image-keyboard-response","728","634163","0.0-7.0-1.33","7","null","","","","Images/WhiteBeadChoiceMM.png","null"
"image-keyboard-response","729","634675","0.0-7.0-2.33","7","null","","","","Images/WhiteBeadChoiceCorrectMM.png","null"
"image-keyboard-response","730","634892","0.0-7.0-0.34","7","213.27000006567687","","","","Images/NewTrialWCMM.png","39"
"image-keyboard-response","731","635153","0.0-7.0-1.34","7","null","","","","Images/WhiteBeadChoiceMM.png","null"
"image-keyboard-response","732","635656","0.0-7.0-2.34","7","null","","","","Images/WhiteBeadChoiceCorrectMM.png","null"
"image-keyboard-response","733","635894","0.0-7.0-0.35","7","234.47999998461455","","","","Images/NewTrialWCMM.png","39"
"image-keyboard-response","734","636158","0.0-7.0-1.35","7","null","","","","Images/WhiteBeadChoiceMM.png","null"
"image-keyboard-response","735","636679","0.0-7.0-2.35","7","null","","","","Images/WhiteBeadChoiceCorrectMM.png","null"
"image-keyboard-response","736","636955","0.0-7.0-0.36","7","271.31500001996756","","","","Images/NewTrialWCMM.png","39"
"image-keyboard-response","737","637212","0.0-7.0-1.36","7","null","","","","Images/WhiteBeadChoiceMM.png","null"
"image-keyboard-response","738","637717","0.0-7.0-2.36","7","null","","","","Images/WhiteBeadChoiceCorrectMM.png","null"
"image-keyboard-response","739","637924","0.0-7.0-0.37","7","203.92500003799796","","","","Images/NewTrialWCMM.png","39"
"image-keyboard-response","740","638196","0.0-7.0-1.37","7","null","","","","Images/WhiteBeadChoiceMM.png","null"
"image-keyboard-response","741","638707","0.0-7.0-2.37","7","null","","","","Images/WhiteBeadChoiceCorrectMM.png","null"
"image-keyboard-response","742","638881","0.0-7.0-0.38","7","171.47500009741634","","","","Images/NewTrialWCMM.png","39"
"image-keyboard-response","743","639140","0.0-7.0-1.38","7","null","","","","Images/WhiteBeadChoiceMM.png","null"
"image-keyboard-response","744","639653","0.0-7.0-2.38","7","null","","","","Images/WhiteBeadChoiceWrongMM.png","null"
"image-keyboard-response","745","640238","0.0-7.0-0.39","7","581.7699999315664","","","","Images/NewTrialBCMM.png","37"
"image-keyboard-response","746","640495","0.0-7.0-1.39","7","null","","","","Images/BlackBeadChoiceMM.png","null"
"image-keyboard-response","747","641005","0.0-7.0-2.39","7","null","","","","Images/BlackBeadChoiceCorrectMM.png","null"
"image-keyboard-response","748","641210","0.0-7.0-0.40","7","201.49500004481524","","","","Images/NewTrialBCMM.png","37"
"image-keyboard-response","749","641465","0.0-7.0-1.40","7","null","","","","Images/BlackBeadChoiceMM.png","null"
"image-keyboard-response","750","641971","0.0-7.0-2.40","7","null","","","","Images/BlackBeadChoiceCorrectMM.png","null"
"image-keyboard-response","751","642079","0.0-7.0-0.41","7","104.90499995648861","","","","Images/NewTrialBCMM.png","37"
"image-keyboard-response","752","642344","0.0-7.0-1.41","7","null","","","","Images/BlackBeadChoiceMM.png","null"
"image-keyboard-response","753","642861","0.0-7.0-2.41","7","null","","","","Images/BlackBeadChoiceCorrectMM.png","null"
"image-keyboard-response","754","643143","0.0-7.0-0.42","7","278.82500004488975","","","","Images/NewTrialBCMM.png","37"
"image-keyboard-response","755","643404","0.0-7.0-1.42","7","null","","","","Images/BlackBeadChoiceMM.png","null"
"image-keyboard-response","756","643921","0.0-7.0-2.42","7","null","","","","Images/BlackBeadChoiceCorrectMM.png","null"
"image-keyboard-response","757","644007","0.0-7.0-0.43","7","81.42000006046146","","","","Images/NewTrialBCMM.png","37"
"image-keyboard-response","758","644269","0.0-7.0-1.43","7","null","","","","Images/BlackBeadChoiceMM.png","null"
"image-keyboard-response","759","644780","0.0-7.0-2.43","7","null","","","","Images/BlackBeadChoiceCorrectMM.png","null"
"image-keyboard-response","760","644921","0.0-7.0-0.44","7","136.4049999974668","","","","Images/NewTrialBCMM.png","37"
"image-keyboard-response","761","645181","0.0-7.0-1.44","7","null","","","","Images/BlackBeadChoiceMM.png","null"
"image-keyboard-response","762","645698","0.0-7.0-2.44","7","null","","","","Images/BlackBeadChoiceCorrectMM.png","null"
"image-keyboard-response","763","645919","0.0-7.0-0.45","7","216.1199999973178","","","","Images/NewTrialBCMM.png","37"
"image-keyboard-response","764","646195","0.0-7.0-1.45","7","null","","","","Images/BlackBeadChoiceMM.png","null"
"image-keyboard-response","765","646699","0.0-7.0-2.45","7","null","","","","Images/BlackBeadChoiceCorrectMM.png","null"
"image-keyboard-response","766","647089","0.0-7.0-0.46","7","384.9999998928979","","","","Images/NewTrialBCMM.png","37"
"image-keyboard-response","767","647359","0.0-7.0-1.46","7","null","","","","Images/BlackBeadChoiceMM.png","null"
"image-keyboard-response","768","647874","0.0-7.0-2.46","7","null","","","","Images/BlackBeadChoiceCorrectMM.png","null"
"image-keyboard-response","769","648059","0.0-7.0-0.47","7","180.87000004015863","","","","Images/NewTrialBCMM.png","37"
"image-keyboard-response","770","648321","0.0-7.0-1.47","7","null","","","","Images/BlackBeadChoiceMM.png","null"
"image-keyboard-response","771","648832","0.0-7.0-2.47","7","null","","","","Images/BlackBeadChoiceCorrectMM.png","null"
"image-keyboard-response","772","649168","0.0-7.0-0.48","7","332.5700000859797","","","","Images/NewTrialBCMM.png","37"
"image-keyboard-response","773","649425","0.0-7.0-1.48","7","null","","","","Images/BlackBeadChoiceMM.png","null"
"image-keyboard-response","774","649932","0.0-7.0-2.48","7","null","","","","Images/BlackBeadChoiceCorrectMM.png","null"
"image-keyboard-response","775","650204","0.0-7.0-0.49","7","268.5499999206513","","","","Images/NewTrialBCMM.png","37"
"image-keyboard-response","776","650465","0.0-7.0-1.49","7","null","","","","Images/BlackBeadChoiceMM.png","null"
"image-keyboard-response","777","650973","0.0-7.0-2.49","7","null","","","","Images/BlackBeadChoiceCorrectMM.png","null"
"image-keyboard-response","778","651282","0.0-7.0-0.50","7","305.46000006143004","","","","Images/NewTrialBCMM.png","37"
"image-keyboard-response","779","651536","0.0-7.0-1.50","7","null","","","","Images/BlackBeadChoiceMM.png","null"
"image-keyboard-response","780","652041","0.0-7.0-2.50","7","null","","","","Images/BlackBeadChoiceCorrectMM.png","null"
"image-keyboard-response","781","652201","0.0-7.0-0.51","7","157.16000006068498","","","","Images/NewTrialBCMM.png","37"
"image-keyboard-response","782","652464","0.0-7.0-1.51","7","null","","","","Images/BlackBeadChoiceMM.png","null"
"image-keyboard-response","783","652975","0.0-7.0-2.51","7","null","","","","Images/BlackBeadChoiceCorrectMM.png","null"
"image-keyboard-response","784","652993","0.0-7.0-0.52","7","15.52999997511506","","","","Images/NewTrialBCMM.png","37"
"image-keyboard-response","785","653255","0.0-7.0-1.52","7","null","","","","Images/BlackBeadChoiceMM.png","null"
"image-keyboard-response","786","653774","0.0-7.0-2.52","7","null","","","","Images/BlackBeadChoiceCorrectMM.png","null"
"image-keyboard-response","787","653912","0.0-7.0-0.53","7","134.3799999449402","","","","Images/NewTrialBCMM.png","37"
"image-keyboard-response","788","654181","0.0-7.0-1.53","7","null","","","","Images/BlackBeadChoiceMM.png","null"
"image-keyboard-response","789","654693","0.0-7.0-2.53","7","null","","","","Images/BlackBeadChoiceCorrectMM.png","null"
"image-keyboard-response","790","654872","0.0-7.0-0.54","7","174.14500005543232","","","","Images/NewTrialBCMM.png","37"
"image-keyboard-response","791","655193","0.0-7.0-1.54","7","null","","","","Images/BlackBeadChoiceMM.png","null"
"image-keyboard-response","792","655711","0.0-7.0-2.54","7","null","","","","Images/BlackBeadChoiceCorrectMM.png","null"
"image-keyboard-response","793","655741","0.0-7.0-0.55","7","27.920000022277236","","","","Images/NewTrialBCMM.png","37"
"image-keyboard-response","794","655996","0.0-7.0-1.55","7","null","","","","Images/BlackBeadChoiceMM.png","null"
"image-keyboard-response","795","656513","0.0-7.0-2.55","7","null","","","","Images/BlackBeadChoiceCorrectMM.png","null"
"image-keyboard-response","796","656662","0.0-7.0-0.56","7","144.76499997545034","","","","Images/NewTrialBCMM.png","37"
"image-keyboard-response","797","656932","0.0-7.0-1.56","7","null","","","","Images/BlackBeadChoiceMM.png","null"
"image-keyboard-response","798","657471","0.0-7.0-2.56","7","null","","","","Images/BlackBeadChoiceWrongMM.png","null"
"image-keyboard-response","799","657729","0.0-7.0-0.57","7","255.4000000236556","","","","Images/NewTrialWCMM.png","39"
"image-keyboard-response","800","658005","0.0-7.0-1.57","7","null","","","","Images/WhiteBeadChoiceMM.png","null"
"image-keyboard-response","801","658521","0.0-7.0-2.57","7","null","","","","Images/WhiteBeadChoiceCorrectMM.png","null"
"image-keyboard-response","802","658927","0.0-7.0-0.58","7","402.52000000327826","","","","Images/NewTrialWCMM.png","39"
"image-keyboard-response","803","659196","0.0-7.0-1.58","7","null","","","","Images/WhiteBeadChoiceMM.png","null"
"image-keyboard-response","804","659741","0.0-7.0-2.58","7","null","","","","Images/WhiteBeadChoiceCorrectMM.png","null"
"image-keyboard-response","805","659947","0.0-7.0-0.59","7","202.55000004544854","","","","Images/NewTrialWCMM.png","39"
"image-keyboard-response","806","660204","0.0-7.0-1.59","7","null","","","","Images/WhiteBeadChoiceMM.png","null"
"image-keyboard-response","807","660725","0.0-7.0-2.59","7","null","","","","Images/WhiteBeadChoiceCorrectMM.png","null"
"image-keyboard-response","808","661083","0.0-7.0-0.60","7","353.5899999551475","","","","Images/NewTrialWCMM.png","39"
"image-keyboard-response","809","661337","0.0-7.0-1.60","7","null","","","","Images/WhiteBeadChoiceMM.png","null"
"image-keyboard-response","810","661853","0.0-7.0-2.60","7","null","","","","Images/WhiteBeadChoiceWrongMM.png","null"
"image-keyboard-response","811","662517","0.0-7.0-0.61","7","658.3350000437349","","","","Images/NewTrialBCMM.png","37"
"image-keyboard-response","812","662785","0.0-7.0-1.61","7","null","","","","Images/BlackBeadChoiceMM.png","null"
"image-keyboard-response","813","663290","0.0-7.0-2.61","7","null","","","","Images/BlackBeadChoiceCorrectMM.png","null"
"image-keyboard-response","814","663436","0.0-7.0-0.62","7","143.50999996531755","","","","Images/NewTrialBCMM.png","37"
