"trial_type","trial_index","time_elapsed","internal_node_id","Script_Picker","Block_Type","rt","url","responses","question_order","stimulus","key_press"
"pavlovia","0","6","0.0-0.0","10","Low_HMMActual","","","","","",""
"external-html","1","11867","0.0-1.0-0.0","10","Low_HMMActual","11794.46999999891","consent.html","","","",""
"survey-multi-choice","2","22068","0.0-1.0-1.0","10","Low_HMMActual","10195.284999999785","","{""Q0"":""Male"",""Q1"":""Do Not Wish to Respond""}","[0,1]","",""
"survey-text","3","27502","0.0-1.0-2.0","10","Low_HMMActual","5428.285000001779","","{""Q0"":""27""}","","",""
"survey-text","4","30975","0.0-1.0-3.0","10","Low_HMMActual","3351.7749999991793","","{""Q0"":""5b222aff59f9620001c109cb""}","","",""
"html-keyboard-response","5","86245","0.0-2.0-0.0","10","Low_HMMActual","55163.10499999963","","","","<div class=""container"" style=""height:800px;width:800px;display:flex;flex-direction:column;justify-content:center;align-items:center;text-align:center;font-weight:normal;font-family:Arial;font-size:20px""><p>In this task you will see black or white beads being pulled from jars. <br><br>On each trial, a bead will be pulled from one of two jars. Once you see this bead, your goal is to predict the color of NEXT bead that will be pulled. <br> <br>Every time you correctly guess the color of the NEXT bead, you will get a point. <br><br>Press the SPACEBAR to continue.</p><div>","32"
"html-keyboard-response","6","233377","0.0-2.0-1.0","10","Low_HMMActual","147129.57500000083","","","","<div class=""container"" style=""height:800px;width:800px;display:flex;flex-direction:column;justify-content:center;align-items:center;text-align:center;font-weight:normal;font-family:Arial;font-size:20px""><p>Jars are filled with 80% white or black beads and 20% of the opposite color mixed in.<br><br>Press the SPACEBAR to continue. </p><div>","32"
"image-keyboard-response","7","254252","0.0-2.0-2.0","10","Low_HMMActual","20868.60499999969","","","","resources/WhiteJar_HMM.png","32"
"image-keyboard-response","8","256523","0.0-2.0-3.0","10","Low_HMMActual","2269.1599999997998","","","","resources/BlackJar_HMM.png","32"
"html-keyboard-response","9","263613","0.0-2.0-4.0","10","Low_HMMActual","7088.229999999341","","","","<div class=""container"" style=""height:800px;width:800px;display:flex;flex-direction:column;justify-content:center;align-items:center;text-align:center;font-weight:normal;font-family:Arial;font-size:20px""><p>There will be two blocks of trials. Each block will contain 500 trials. <br><br>Here are examples of what you will see on each trial.<br><br>Press the SPACEBAR to continue. </p><div>","32"
"image-keyboard-response","10","270733","0.0-2.0-5.0","10","Low_HMMActual","7117.275000000489","","","","Images/NoChoice.png","32"
"html-keyboard-response","11","312960","0.0-2.0-6.0","10","Low_HMMActual","42224.335000000836","","","","<div class=""container"" style=""height:800px;width:800px;display:flex;flex-direction:column;justify-content:center;align-items:center;text-align:center;font-weight:normal;font-family:Arial;font-size:20px""><p> The jar the beads are pulled from is NOT choosen at random on each trial.<br><br>After each prediction, there will be a chance that the jars will switch, and that the next bead will be pulled from the opposite jar as the previous trial.<br><br>In each block, the chance that a jar will switch will either be LOW (the jars will not switch very often), or HIGH (the jars will switch almost all the time).<br><br>At the start of each block, you will be told the probability that the jars will switch on each trial. This switch probability will stay constant throughout the block.<br><br>We will now show you some examples of beads being drawn from jars. The bead will appear in the middle of the screen, and the jar the bead was pulled from will be indicated with a black rectangle.<br><br>Press the SPACEBAR to continue. </p><div>","32"
"image-keyboard-response","12","319809","0.0-2.0-7.0","10","Low_HMMActual","6847.934999999823","","","","Images/TutorialWhiteJarDrawHMMC.png","32"
"image-keyboard-response","13","322037","0.0-2.0-8.0","10","Low_HMMActual","2226.625000001164","","","","Images/TutorialBlackJarDrawHMMC.png","32"
"image-keyboard-response","14","325186","0.0-2.0-9.0","10","Low_HMMActual","3146.804999998538","","","","Images/TutorialBlackJarDrawHMMI.png","32"
"html-keyboard-response","15","338736","0.0-2.0-10.0","10","Low_HMMActual","13547.325000001409","","","","<div class=""container"" style=""height:800px;width:800px;display:flex;flex-direction:column;justify-content:center;align-items:center;text-align:center;font-weight:normal;font-family:Arial;font-size:20px""><p> As you observed, a white bead was pulled from a 80% white jar, the jars switched and a black bead was pulled from the 80% black jar, but then a low-probability white bead was pulled from the 80% black jar. <br><br>This means that the color of the bead will not always match to the color of the jar it was pulled from.<br><br>Press SPACEBAR to conitnue.</p><div>","32"
"html-keyboard-response","16","340743","0.0-2.0-11.0","10","Low_HMMActual","2005.7349999988219","","","","<div class=""container"" style=""height:800px;width:800px;display:flex;flex-direction:column;justify-content:center;align-items:center;text-align:center;font-weight:normal;font-family:Arial;font-size:20px""><p> You will now be given a 2 question quiz to make sure you understand the task. </p><div>","32"
"image-keyboard-response","17","351014","0.0-2.0-12.0","10","Low_HMMActual","10269.000000000233","","","","Images/TutorialQuestion1.png","39"
"image-keyboard-response","18","362680","0.0-2.0-13.0","10","Low_HMMActual","9622.465000000375","","","","Images/TutorialQuestion2.png","38"
"html-keyboard-response","19","389708","0.0-3.0","10","Low_HMMActual","25904.11999999924","","","","<div class=""container"" style=""height:800px;width:800px;display:flex;flex-direction:column;justify-content:center;align-items:center;text-align:center;font-weight:normal;font-family:Arial;font-size:20px""><p>Loading episode&hellip;</p><div>","32"
"image-keyboard-response","20","400114","0.0-4.0-0.0","10","Low_HMMActual","10404.485000000917","","","","Images/NoChoice.png","39"
"image-keyboard-response","21","400525","0.0-4.0-1.0","10","Low_HMMActual","null","","","","Images/WhiteBeadChoice.png","null"
"image-keyboard-response","22","401236","0.0-4.0-2.0","10","Low_HMMActual","null","","","","Images/WhiteBeadChoiceWrong.png","null"
"image-keyboard-response","23","402479","0.0-4.0-0.1","10","Low_HMMActual","1240.7450000009267","","","","Images/NewTrialBC.png","37"
"image-keyboard-response","24","402887","0.0-4.0-1.1","10","Low_HMMActual","null","","","","Images/BlackBeadChoice.png","null"
"image-keyboard-response","25","403597","0.0-4.0-2.1","10","Low_HMMActual","null","","","","Images/BlackBeadChoiceCorrect.png","null"
"image-keyboard-response","26","406869","0.0-4.0-0.2","10","Low_HMMActual","3269.1399999985006","","","","Images/NewTrialBC.png","37"
"image-keyboard-response","27","407287","0.0-4.0-1.2","10","Low_HMMActual","null","","","","Images/BlackBeadChoice.png","null"
"image-keyboard-response","28","407996","0.0-4.0-2.2","10","Low_HMMActual","null","","","","Images/BlackBeadChoiceCorrect.png","null"
"image-keyboard-response","29","408520","0.0-4.0-0.3","10","Low_HMMActual","523.1550000007846","","","","Images/NewTrialBC.png","37"
"image-keyboard-response","30","408930","0.0-4.0-1.3","10","Low_HMMActual","null","","","","Images/BlackBeadChoice.png","null"
"image-keyboard-response","31","409642","0.0-4.0-2.3","10","Low_HMMActual","null","","","","Images/BlackBeadChoiceCorrect.png","null"
"image-keyboard-response","32","410215","0.0-4.0-0.4","10","Low_HMMActual","569.7550000004703","","","","Images/NewTrialBC.png","37"
"image-keyboard-response","33","410632","0.0-4.0-1.4","10","Low_HMMActual","null","","","","Images/BlackBeadChoice.png","null"
"image-keyboard-response","34","411336","0.0-4.0-2.4","10","Low_HMMActual","null","","","","Images/BlackBeadChoiceWrong.png","null"
"image-keyboard-response","35","412065","0.0-4.0-0.5","10","Low_HMMActual","726.7750000010128","","","","Images/NewTrialWC.png","39"
"image-keyboard-response","36","412474","0.0-4.0-1.5","10","Low_HMMActual","null","","","","Images/WhiteBeadChoice.png","null"
"image-keyboard-response","37","413177","0.0-4.0-2.5","10","Low_HMMActual","null","","","","Images/WhiteBeadChoiceWrong.png","null"
"image-keyboard-response","38","413852","0.0-4.0-0.6","10","Low_HMMActual","672.8000000002794","","","","Images/NewTrialBC.png","37"
"image-keyboard-response","39","414267","0.0-4.0-1.6","10","Low_HMMActual","null","","","","Images/BlackBeadChoice.png","null"
"image-keyboard-response","40","414979","0.0-4.0-2.6","10","Low_HMMActual","null","","","","Images/BlackBeadChoiceCorrect.png","null"
"image-keyboard-response","41","416534","0.0-4.0-0.7","10","Low_HMMActual","1552.3699999994133","","","","Images/NewTrialBC.png","37"
"image-keyboard-response","42","416942","0.0-4.0-1.7","10","Low_HMMActual","null","","","","Images/BlackBeadChoice.png","null"
"image-keyboard-response","43","417648","0.0-4.0-2.7","10","Low_HMMActual","null","","","","Images/BlackBeadChoiceCorrect.png","null"
"image-keyboard-response","44","418464","0.0-4.0-0.8","10","Low_HMMActual","813.215000000142","","","","Images/NewTrialBC.png","37"
"image-keyboard-response","45","418875","0.0-4.0-1.8","10","Low_HMMActual","null","","","","Images/BlackBeadChoice.png","null"
"image-keyboard-response","46","419581","0.0-4.0-2.8","10","Low_HMMActual","null","","","","Images/BlackBeadChoiceCorrect.png","null"
"image-keyboard-response","47","420431","0.0-4.0-0.9","10","Low_HMMActual","846.0999999988126","","","","Images/NewTrialBC.png","37"
"image-keyboard-response","48","420833","0.0-4.0-1.9","10","Low_HMMActual","null","","","","Images/BlackBeadChoice.png","null"
"image-keyboard-response","49","421541","0.0-4.0-2.9","10","Low_HMMActual","null","","","","Images/BlackBeadChoiceWrong.png","null"
"image-keyboard-response","50","422137","0.0-4.0-0.10","10","Low_HMMActual","594.465000000142","","","","Images/NewTrialWC.png","39"
"image-keyboard-response","51","422543","0.0-4.0-1.10","10","Low_HMMActual","null","","","","Images/WhiteBeadChoice.png","null"
"image-keyboard-response","52","423251","0.0-4.0-2.10","10","Low_HMMActual","null","","","","Images/WhiteBeadChoiceCorrect.png","null"
"image-keyboard-response","53","423934","0.0-4.0-0.11","10","Low_HMMActual","681.0350000014296","","","","Images/NewTrialWC.png","39"
"image-keyboard-response","54","424337","0.0-4.0-1.11","10","Low_HMMActual","null","","","","Images/WhiteBeadChoice.png","null"
"image-keyboard-response","55","425049","0.0-4.0-2.11","10","Low_HMMActual","null","","","","Images/WhiteBeadChoiceWrong.png","null"
"image-keyboard-response","56","425549","0.0-4.0-0.12","10","Low_HMMActual","497.57499999942956","","","","Images/NewTrialBC.png","37"
"image-keyboard-response","57","425964","0.0-4.0-1.12","10","Low_HMMActual","null","","","","Images/BlackBeadChoice.png","null"
"image-keyboard-response","58","426678","0.0-4.0-2.12","10","Low_HMMActual","null","","","","Images/BlackBeadChoiceCorrect.png","null"
"image-keyboard-response","59","427219","0.0-4.0-0.13","10","Low_HMMActual","539.3600000006845","","","","Images/NewTrialBC.png","37"
"image-keyboard-response","60","427636","0.0-4.0-1.13","10","Low_HMMActual","null","","","","Images/BlackBeadChoice.png","null"
"image-keyboard-response","61","428344","0.0-4.0-2.13","10","Low_HMMActual","null","","","","Images/BlackBeadChoiceCorrect.png","null"
"image-keyboard-response","62","429198","0.0-4.0-0.14","10","Low_HMMActual","851.4649999997346","","","","Images/NewTrialBC.png","37"
"image-keyboard-response","63","429610","0.0-4.0-1.14","10","Low_HMMActual","null","","","","Images/BlackBeadChoice.png","null"
"image-keyboard-response","64","430320","0.0-4.0-2.14","10","Low_HMMActual","null","","","","Images/BlackBeadChoiceCorrect.png","null"
"image-keyboard-response","65","430608","0.0-4.0-0.15","10","Low_HMMActual","286.59999999945285","","","","Images/NewTrialBC.png","37"
"image-keyboard-response","66","431021","0.0-4.0-1.15","10","Low_HMMActual","null","","","","Images/BlackBeadChoice.png","null"
"image-keyboard-response","67","431728","0.0-4.0-2.15","10","Low_HMMActual","null","","","","Images/BlackBeadChoiceCorrect.png","null"
"image-keyboard-response","68","432504","0.0-4.0-0.16","10","Low_HMMActual","773.6950000016368","","","","Images/NewTrialBC.png","37"
"image-keyboard-response","69","432920","0.0-4.0-1.16","10","Low_HMMActual","null","","","","Images/BlackBeadChoice.png","null"
"image-keyboard-response","70","433624","0.0-4.0-2.16","10","Low_HMMActual","null","","","","Images/BlackBeadChoiceCorrect.png","null"
"image-keyboard-response","71","434206","0.0-4.0-0.17","10","Low_HMMActual","579.674999999057","","","","Images/NewTrialBC.png","37"
"image-keyboard-response","72","434624","0.0-4.0-1.17","10","Low_HMMActual","null","","","","Images/BlackBeadChoice.png","null"
"image-keyboard-response","73","435332","0.0-4.0-2.17","10","Low_HMMActual","null","","","","Images/BlackBeadChoiceCorrect.png","null"
"image-keyboard-response","74","435549","0.0-4.0-0.18","10","Low_HMMActual","214.16499999939697","","","","Images/NewTrialBC.png","37"
"image-keyboard-response","75","435952","0.0-4.0-1.18","10","Low_HMMActual","null","","","","Images/BlackBeadChoice.png","null"
"image-keyboard-response","76","436662","0.0-4.0-2.18","10","Low_HMMActual","653.9749999992782","","","","Images/BlackBeadChoiceCorrect.png","37"
"image-keyboard-response","77","437857","0.0-4.0-0.19","10","Low_HMMActual","1193.6849999983096","","","","Images/NewTrialBC.png","37"
"image-keyboard-response","78","438276","0.0-4.0-1.19","10","Low_HMMActual","null","","","","Images/BlackBeadChoice.png","null"
"image-keyboard-response","79","438982","0.0-4.0-2.19","10","Low_HMMActual","null","","","","Images/BlackBeadChoiceCorrect.png","null"
"image-keyboard-response","80","439272","0.0-4.0-0.20","10","Low_HMMActual","288.4099999991595","","","","Images/NewTrialBC.png","37"
"image-keyboard-response","81","439681","0.0-4.0-1.20","10","Low_HMMActual","null","","","","Images/BlackBeadChoice.png","null"
"image-keyboard-response","82","440386","0.0-4.0-2.20","10","Low_HMMActual","null","","","","Images/BlackBeadChoiceCorrect.png","null"
"image-keyboard-response","83","440714","0.0-4.0-0.21","10","Low_HMMActual","325.4099999994505","","","","Images/NewTrialBC.png","37"
"image-keyboard-response","84","441116","0.0-4.0-1.21","10","Low_HMMActual","null","","","","Images/BlackBeadChoice.png","null"
"image-keyboard-response","85","441824","0.0-4.0-2.21","10","Low_HMMActual","null","","","","Images/BlackBeadChoiceWrong.png","null"
"image-keyboard-response","86","442113","0.0-4.0-0.22","10","Low_HMMActual","286.79000000009546","","","","Images/NewTrialWC.png","39"
"image-keyboard-response","87","442520","0.0-4.0-1.22","10","Low_HMMActual","null","","","","Images/WhiteBeadChoice.png","null"
"image-keyboard-response","88","443225","0.0-4.0-2.22","10","Low_HMMActual","null","","","","Images/WhiteBeadChoiceCorrect.png","null"
"image-keyboard-response","89","443628","0.0-4.0-0.23","10","Low_HMMActual","402.19500000058906","","","","Images/NewTrialWC.png","39"
"image-keyboard-response","90","444036","0.0-4.0-1.23","10","Low_HMMActual","null","","","","Images/WhiteBeadChoice.png","null"
"image-keyboard-response","91","444753","0.0-4.0-2.23","10","Low_HMMActual","null","","","","Images/WhiteBeadChoiceCorrect.png","null"
"image-keyboard-response","92","445090","0.0-4.0-0.24","10","Low_HMMActual","335.5650000012247","","","","Images/NewTrialWC.png","39"
"image-keyboard-response","93","445505","0.0-4.0-1.24","10","Low_HMMActual","null","","","","Images/WhiteBeadChoice.png","null"
"image-keyboard-response","94","446221","0.0-4.0-2.24","10","Low_HMMActual","null","","","","Images/WhiteBeadChoiceCorrect.png","null"
"image-keyboard-response","95","446608","0.0-4.0-0.25","10","Low_HMMActual","385.3400000007241","","","","Images/NewTrialWC.png","39"
"image-keyboard-response","96","447019","0.0-4.0-1.25","10","Low_HMMActual","null","","","","Images/WhiteBeadChoice.png","null"
"image-keyboard-response","97","447731","0.0-4.0-2.25","10","Low_HMMActual","null","","","","Images/WhiteBeadChoiceCorrect.png","null"
"image-keyboard-response","98","448091","0.0-4.0-0.26","10","Low_HMMActual","358.02999999944586","","","","Images/NewTrialWC.png","39"
"image-keyboard-response","99","448495","0.0-4.0-1.26","10","Low_HMMActual","null","","","","Images/WhiteBeadChoice.png","null"
"image-keyboard-response","100","449197","0.0-4.0-2.26","10","Low_HMMActual","null","","","","Images/WhiteBeadChoiceCorrect.png","null"
"image-keyboard-response","101","449481","0.0-4.0-0.27","10","Low_HMMActual","282.0699999993085","","","","Images/NewTrialWC.png","39"
"image-keyboard-response","102","449890","0.0-4.0-1.27","10","Low_HMMActual","null","","","","Images/WhiteBeadChoice.png","null"
"image-keyboard-response","103","450602","0.0-4.0-2.27","10","Low_HMMActual","null","","","","Images/WhiteBeadChoiceWrong.png","null"
"image-keyboard-response","104","451038","0.0-4.0-0.28","10","Low_HMMActual","433.2350000003935","","","","Images/NewTrialBC.png","37"
"image-keyboard-response","105","451447","0.0-4.0-1.28","10","Low_HMMActual","null","","","","Images/BlackBeadChoice.png","null"
"image-keyboard-response","106","452152","0.0-4.0-2.28","10","Low_HMMActual","null","","","","Images/BlackBeadChoiceCorrect.png","null"
"image-keyboard-response","107","452573","0.0-4.0-0.29","10","Low_HMMActual","419.95999999926426","","","","Images/NewTrialBC.png","37"
"image-keyboard-response","108","452976","0.0-4.0-1.29","10","Low_HMMActual","null","","","","Images/BlackBeadChoice.png","null"
"image-keyboard-response","109","453686","0.0-4.0-2.29","10","Low_HMMActual","null","","","","Images/BlackBeadChoiceWrong.png","null"
"image-keyboard-response","110","454078","0.0-4.0-0.30","10","Low_HMMActual","390.1749999986496","","","","Images/NewTrialWC.png","39"
"image-keyboard-response","111","454486","0.0-4.0-1.30","10","Low_HMMActual","null","","","","Images/WhiteBeadChoice.png","null"
"image-keyboard-response","112","455197","0.0-4.0-2.30","10","Low_HMMActual","null","","","","Images/WhiteBeadChoiceCorrect.png","null"
"image-keyboard-response","113","455503","0.0-4.0-0.31","10","Low_HMMActual","303.1650000012014","","","","Images/NewTrialWC.png","39"
"image-keyboard-response","114","455920","0.0-4.0-1.31","10","Low_HMMActual","null","","","","Images/WhiteBeadChoice.png","null"
"image-keyboard-response","115","456624","0.0-4.0-2.31","10","Low_HMMActual","null","","","","Images/WhiteBeadChoiceCorrect.png","null"
"image-keyboard-response","116","456909","0.0-4.0-0.32","10","Low_HMMActual","281.17000000021653","","","","Images/NewTrialWC.png","39"
"image-keyboard-response","117","457311","0.0-4.0-1.32","10","Low_HMMActual","null","","","","Images/WhiteBeadChoice.png","null"
"image-keyboard-response","118","458015","0.0-4.0-2.32","10","Low_HMMActual","null","","","","Images/WhiteBeadChoiceCorrect.png","null"
"image-keyboard-response","119","458393","0.0-4.0-0.33","10","Low_HMMActual","374.525000001071","","","","Images/NewTrialWC.png","39"
"image-keyboard-response","120","458807","0.0-4.0-1.33","10","Low_HMMActual","null","","","","Images/WhiteBeadChoice.png","null"
"image-keyboard-response","121","459512","0.0-4.0-2.33","10","Low_HMMActual","null","","","","Images/WhiteBeadChoiceWrong.png","null"
"image-keyboard-response","122","459938","0.0-4.0-0.34","10","Low_HMMActual","423.6300000011688","","","","Images/NewTrialBC.png","37"
"image-keyboard-response","123","460351","0.0-4.0-1.34","10","Low_HMMActual","null","","","","Images/BlackBeadChoice.png","null"
"image-keyboard-response","124","461058","0.0-4.0-2.34","10","Low_HMMActual","null","","","","Images/BlackBeadChoiceWrong.png","null"
"image-keyboard-response","125","462473","0.0-4.0-0.35","10","Low_HMMActual","1412.3949999993783","","","","Images/NewTrialWC.png","39"
"image-keyboard-response","126","462882","0.0-4.0-1.35","10","Low_HMMActual","null","","","","Images/WhiteBeadChoice.png","null"
"image-keyboard-response","127","463586","0.0-4.0-2.35","10","Low_HMMActual","null","","","","Images/WhiteBeadChoiceWrong.png","null"
"image-keyboard-response","128","463901","0.0-4.0-0.36","10","Low_HMMActual","312.70500000024913","","","","Images/NewTrialBC.png","37"
"image-keyboard-response","129","464313","0.0-4.0-1.36","10","Low_HMMActual","null","","","","Images/BlackBeadChoice.png","null"
"image-keyboard-response","130","465018","0.0-4.0-2.36","10","Low_HMMActual","null","","","","Images/BlackBeadChoiceWrong.png","null"
"image-keyboard-response","131","465697","0.0-4.0-0.37","10","Low_HMMActual","675.9349999992992","","","","Images/NewTrialWC.png","39"
"image-keyboard-response","132","466108","0.0-4.0-1.37","10","Low_HMMActual","null","","","","Images/WhiteBeadChoice.png","null"
"image-keyboard-response","133","466812","0.0-4.0-2.37","10","Low_HMMActual","null","","","","Images/WhiteBeadChoiceCorrect.png","null"
"image-keyboard-response","134","467124","0.0-4.0-0.38","10","Low_HMMActual","309.8250000002445","","","","Images/NewTrialWC.png","39"
"image-keyboard-response","135","467531","0.0-4.0-1.38","10","Low_HMMActual","null","","","","Images/WhiteBeadChoice.png","null"
"image-keyboard-response","136","468238","0.0-4.0-2.38","10","Low_HMMActual","null","","","","Images/WhiteBeadChoiceCorrect.png","null"
"image-keyboard-response","137","468663","0.0-4.0-0.39","10","Low_HMMActual","422.49500000075204","","","","Images/NewTrialWC.png","39"
"image-keyboard-response","138","469068","0.0-4.0-1.39","10","Low_HMMActual","null","","","","Images/WhiteBeadChoice.png","null"
"image-keyboard-response","139","469778","0.0-4.0-2.39","10","Low_HMMActual","null","","","","Images/WhiteBeadChoiceWrong.png","null"
"image-keyboard-response","140","470121","0.0-4.0-0.40","10","Low_HMMActual","340.9800000007963","","","","Images/NewTrialBC.png","37"
"image-keyboard-response","141","470526","0.0-4.0-1.40","10","Low_HMMActual","null","","","","Images/BlackBeadChoice.png","null"
"image-keyboard-response","142","471233","0.0-4.0-2.40","10","Low_HMMActual","null","","","","Images/BlackBeadChoiceCorrect.png","null"
"image-keyboard-response","143","471480","0.0-4.0-0.41","10","Low_HMMActual","244.9550000001327","","","","Images/NewTrialBC.png","37"
"image-keyboard-response","144","471895","0.0-4.0-1.41","10","Low_HMMActual","null","","","","Images/BlackBeadChoice.png","null"
"image-keyboard-response","145","472610","0.0-4.0-2.41","10","Low_HMMActual","null","","","","Images/BlackBeadChoiceWrong.png","null"
"image-keyboard-response","146","472915","0.0-4.0-0.42","10","Low_HMMActual","302.06999999971595","","","","Images/NewTrialWC.png","39"
"image-keyboard-response","147","473320","0.0-4.0-1.42","10","Low_HMMActual","null","","","","Images/WhiteBeadChoice.png","null"
"image-keyboard-response","148","474033","0.0-4.0-2.42","10","Low_HMMActual","null","","","","Images/WhiteBeadChoiceCorrect.png","null"
"image-keyboard-response","149","474356","0.0-4.0-0.43","10","Low_HMMActual","320.3350000003702","","","","Images/NewTrialWC.png","39"
"image-keyboard-response","150","474766","0.0-4.0-1.43","10","Low_HMMActual","null","","","","Images/WhiteBeadChoice.png","null"
"image-keyboard-response","151","475477","0.0-4.0-2.43","10","Low_HMMActual","null","","","","Images/WhiteBeadChoiceWrong.png","null"
"image-keyboard-response","152","475817","0.0-4.0-0.44","10","Low_HMMActual","337.3599999995786","","","","Images/NewTrialBC.png","37"
"image-keyboard-response","153","476227","0.0-4.0-1.44","10","Low_HMMActual","null","","","","Images/BlackBeadChoice.png","null"
"image-keyboard-response","154","476941","0.0-4.0-2.44","10","Low_HMMActual","null","","","","Images/BlackBeadChoiceWrong.png","null"
"image-keyboard-response","155","477214","0.0-4.0-0.45","10","Low_HMMActual","266.66000000113854","","","","Images/NewTrialWC.png","39"
"image-keyboard-response","156","477621","0.0-4.0-1.45","10","Low_HMMActual","null","","","","Images/WhiteBeadChoice.png","null"
"image-keyboard-response","157","478331","0.0-4.0-2.45","10","Low_HMMActual","null","","","","Images/WhiteBeadChoiceCorrect.png","null"
"image-keyboard-response","158","478541","0.0-4.0-0.46","10","Low_HMMActual","207.8999999994412","","","","Images/NewTrialWC.png","39"
"image-keyboard-response","159","478954","0.0-4.0-1.46","10","Low_HMMActual","null","","","","Images/WhiteBeadChoice.png","null"
"image-keyboard-response","160","479671","0.0-4.0-2.46","10","Low_HMMActual","null","","","","Images/WhiteBeadChoiceCorrect.png","null"
"image-keyboard-response","161","479905","0.0-4.0-0.47","10","Low_HMMActual","231.46000000083586","","","","Images/NewTrialWC.png","39"
"image-keyboard-response","162","480324","0.0-4.0-1.47","10","Low_HMMActual","null","","","","Images/WhiteBeadChoice.png","null"
"image-keyboard-response","163","481044","0.0-4.0-2.47","10","Low_HMMActual","null","","","","Images/WhiteBeadChoiceCorrect.png","null"
"image-keyboard-response","164","481197","0.0-4.0-0.48","10","Low_HMMActual","150.37500000104774","","","","Images/NewTrialWC.png","39"
"image-keyboard-response","165","481604","0.0-4.0-1.48","10","Low_HMMActual","null","","","","Images/WhiteBeadChoice.png","null"
"image-keyboard-response","166","482318","0.0-4.0-2.48","10","Low_HMMActual","null","","","","Images/WhiteBeadChoiceWrong.png","null"
"image-keyboard-response","167","482571","0.0-4.0-0.49","10","Low_HMMActual","250.6549999997951","","","","Images/NewTrialBC.png","37"
"image-keyboard-response","168","482979","0.0-4.0-1.49","10","Low_HMMActual","null","","","","Images/BlackBeadChoice.png","null"
"image-keyboard-response","169","483689","0.0-4.0-2.49","10","Low_HMMActual","null","","","","Images/BlackBeadChoiceCorrect.png","null"
"image-keyboard-response","170","484065","0.0-4.0-0.50","10","Low_HMMActual","375.0099999997183","","","","Images/NewTrialBC.png","37"
"image-keyboard-response","171","484469","0.0-4.0-1.50","10","Low_HMMActual","null","","","","Images/BlackBeadChoice.png","null"
"image-keyboard-response","172","485178","0.0-4.0-2.50","10","Low_HMMActual","null","","","","Images/BlackBeadChoiceCorrect.png","null"
"image-keyboard-response","173","485395","0.0-4.0-0.51","10","Low_HMMActual","213.30999999918276","","","","Images/NewTrialBC.png","37"
"image-keyboard-response","174","485807","0.0-4.0-1.51","10","Low_HMMActual","null","","","","Images/BlackBeadChoice.png","null"
"image-keyboard-response","175","486515","0.0-4.0-2.51","10","Low_HMMActual","null","","","","Images/BlackBeadChoiceCorrect.png","null"
"image-keyboard-response","176","486614","0.0-4.0-0.52","10","Low_HMMActual","95.80500000086613","","","","Images/NewTrialBC.png","37"
"image-keyboard-response","177","487029","0.0-4.0-1.52","10","Low_HMMActual","null","","","","Images/BlackBeadChoice.png","null"
"image-keyboard-response","178","487734","0.0-4.0-2.52","10","Low_HMMActual","null","","","","Images/BlackBeadChoiceWrong.png","null"
"image-keyboard-response","179","488685","0.0-4.0-0.53","10","Low_HMMActual","949.6299999991315","","","","Images/NewTrialWC.png","39"
"image-keyboard-response","180","489095","0.0-4.0-1.53","10","Low_HMMActual","null","","","","Images/WhiteBeadChoice.png","null"
"image-keyboard-response","181","489802","0.0-4.0-2.53","10","Low_HMMActual","null","","","","Images/WhiteBeadChoiceCorrect.png","null"
"image-keyboard-response","182","489903","0.0-4.0-0.54","10","Low_HMMActual","98.97500000079162","","","","Images/NewTrialWC.png","39"
"image-keyboard-response","183","490319","0.0-4.0-1.54","10","Low_HMMActual","null","","","","Images/WhiteBeadChoice.png","null"
"image-keyboard-response","184","491030","0.0-4.0-2.54","10","Low_HMMActual","680.3399999989779","","","","Images/WhiteBeadChoiceCorrect.png","39"
"image-keyboard-response","185","491665","0.0-4.0-0.55","10","Low_HMMActual","633.2700000002515","","","","Images/NewTrialWC.png","39"
"image-keyboard-response","186","492075","0.0-4.0-1.55","10","Low_HMMActual","null","","","","Images/WhiteBeadChoice.png","null"
"image-keyboard-response","187","492784","0.0-4.0-2.55","10","Low_HMMActual","null","","","","Images/WhiteBeadChoiceCorrect.png","null"
"image-keyboard-response","188","493057","0.0-4.0-0.56","10","Low_HMMActual","271.81500000006054","","","","Images/NewTrialWC.png","39"
"image-keyboard-response","189","493480","0.0-4.0-1.56","10","Low_HMMActual","null","","","","Images/WhiteBeadChoice.png","null"
"image-keyboard-response","190","494198","0.0-4.0-2.56","10","Low_HMMActual","null","","","","Images/WhiteBeadChoiceCorrect.png","null"
"image-keyboard-response","191","494349","0.0-4.0-0.57","10","Low_HMMActual","148.3300000000163","","","","Images/NewTrialWC.png","39"
"image-keyboard-response","192","494760","0.0-4.0-1.57","10","Low_HMMActual","null","","","","Images/WhiteBeadChoice.png","null"
"image-keyboard-response","193","495468","0.0-4.0-2.57","10","Low_HMMActual","null","","","","Images/WhiteBeadChoiceWrong.png","null"
"image-keyboard-response","194","498054","0.0-4.0-0.58","10","Low_HMMActual","2582.9299999986542","","","","Images/NewTrialBC.png","39"
"image-keyboard-response","195","498459","0.0-4.0-1.58","10","Low_HMMActual","null","","","","Images/WhiteBeadChoice.png","null"
"image-keyboard-response","196","499166","0.0-4.0-2.58","10","Low_HMMActual","null","","","","Images/WhiteBeadChoiceCorrect.png","null"
"image-keyboard-response","197","499170","0.0-4.0-0.59","10","Low_HMMActual","0.534999999217689","","","","Images/NewTrialWC.png","39"
"image-keyboard-response","198","499579","0.0-4.0-1.59","10","Low_HMMActual","null","","","","Images/WhiteBeadChoice.png","null"
"image-keyboard-response","199","500284","0.0-4.0-2.59","10","Low_HMMActual","null","","","","Images/WhiteBeadChoiceCorrect.png","null"
"image-keyboard-response","200","500409","0.0-4.0-0.60","10","Low_HMMActual","121.63500000134809","","","","Images/NewTrialWC.png","39"
"image-keyboard-response","201","500815","0.0-4.0-1.60","10","Low_HMMActual","null","","","","Images/WhiteBeadChoice.png","null"
"image-keyboard-response","202","501518","0.0-4.0-2.60","10","Low_HMMActual","null","","","","Images/WhiteBeadChoiceCorrect.png","null"
"image-keyboard-response","203","501584","0.0-4.0-0.61","10","Low_HMMActual","63.43500000005588","","","","Images/NewTrialWC.png","39"
"image-keyboard-response","204","501996","0.0-4.0-1.61","10","Low_HMMActual","null","","","","Images/WhiteBeadChoice.png","null"
"image-keyboard-response","205","502707","0.0-4.0-2.61","10","Low_HMMActual","null","","","","Images/WhiteBeadChoiceCorrect.png","null"
"image-keyboard-response","206","502752","0.0-4.0-0.62","10","Low_HMMActual","43.315000000817236","","","","Images/NewTrialWC.png","39"
"image-keyboard-response","207","503168","0.0-4.0-1.62","10","Low_HMMActual","null","","","","Images/WhiteBeadChoice.png","null"
"image-keyboard-response","208","503872","0.0-4.0-2.62","10","Low_HMMActual","null","","","","Images/WhiteBeadChoiceWrong.png","null"
"image-keyboard-response","209","503992","0.0-4.0-0.63","10","Low_HMMActual","117.26500000071246","","","","Images/NewTrialBC.png","39"
"image-keyboard-response","210","504411","0.0-4.0-1.63","10","Low_HMMActual","null","","","","Images/WhiteBeadChoice.png","null"
"image-keyboard-response","211","505121","0.0-4.0-2.63","10","Low_HMMActual","468.80500000040047","","","","Images/WhiteBeadChoiceCorrect.png","39"
"image-keyboard-response","212","505536","0.0-4.0-0.64","10","Low_HMMActual","412.5299999996205","","","","Images/NewTrialWC.png","39"
"image-keyboard-response","213","505942","0.0-4.0-1.64","10","Low_HMMActual","null","","","","Images/WhiteBeadChoice.png","null"
"image-keyboard-response","214","506658","0.0-4.0-2.64","10","Low_HMMActual","null","","","","Images/WhiteBeadChoiceCorrect.png","null"
"image-keyboard-response","215","506913","0.0-4.0-0.65","10","Low_HMMActual","252.5549999991199","","","","Images/NewTrialWC.png","39"
"image-keyboard-response","216","507315","0.0-4.0-1.65","10","Low_HMMActual","null","","","","Images/WhiteBeadChoice.png","null"
"image-keyboard-response","217","508039","0.0-4.0-2.65","10","Low_HMMActual","null","","","","Images/WhiteBeadChoiceCorrect.png","null"
"image-keyboard-response","218","508413","0.0-4.0-0.66","10","Low_HMMActual","372.4600000004866","","","","Images/NewTrialWC.png","39"
"image-keyboard-response","219","508819","0.0-4.0-1.66","10","Low_HMMActual","null","","","","Images/WhiteBeadChoice.png","null"
"image-keyboard-response","220","509532","0.0-4.0-2.66","10","Low_HMMActual","null","","","","Images/WhiteBeadChoiceCorrect.png","null"
"image-keyboard-response","221","509928","0.0-4.0-0.67","10","Low_HMMActual","394.64500000030966","","","","Images/NewTrialWC.png","39"
"image-keyboard-response","222","510345","0.0-4.0-1.67","10","Low_HMMActual","null","","","","Images/WhiteBeadChoice.png","null"
"image-keyboard-response","223","511049","0.0-4.0-2.67","10","Low_HMMActual","null","","","","Images/WhiteBeadChoiceCorrect.png","null"
"image-keyboard-response","224","511385","0.0-4.0-0.68","10","Low_HMMActual","334.0700000008219","","","","Images/NewTrialWC.png","39"
"image-keyboard-response","225","511791","0.0-4.0-1.68","10","Low_HMMActual","null","","","","Images/WhiteBeadChoice.png","null"
"image-keyboard-response","226","512505","0.0-4.0-2.68","10","Low_HMMActual","null","","","","Images/WhiteBeadChoiceCorrect.png","null"
"image-keyboard-response","227","513275","0.0-4.0-0.69","10","Low_HMMActual","767.2750000001397","","","","Images/NewTrialWC.png","39"
"image-keyboard-response","228","513683","0.0-4.0-1.69","10","Low_HMMActual","null","","","","Images/WhiteBeadChoice.png","null"
"image-keyboard-response","229","514389","0.0-4.0-2.69","10","Low_HMMActual","null","","","","Images/WhiteBeadChoiceCorrect.png","null"
"image-keyboard-response","230","514806","0.0-4.0-0.70","10","Low_HMMActual","414.3399999993853","","","","Images/NewTrialWC.png","39"
"image-keyboard-response","231","515215","0.0-4.0-1.70","10","Low_HMMActual","null","","","","Images/WhiteBeadChoice.png","null"
"image-keyboard-response","232","515919","0.0-4.0-2.70","10","Low_HMMActual","null","","","","Images/WhiteBeadChoiceCorrect.png","null"
"image-keyboard-response","233","515965","0.0-4.0-0.71","10","Low_HMMActual","43.644999999785796","","","","Images/NewTrialWC.png","39"
"image-keyboard-response","234","516375","0.0-4.0-1.71","10","Low_HMMActual","null","","","","Images/WhiteBeadChoice.png","null"
"image-keyboard-response","235","517087","0.0-4.0-2.71","10","Low_HMMActual","null","","","","Images/WhiteBeadChoiceCorrect.png","null"
"image-keyboard-response","236","517202","0.0-4.0-0.72","10","Low_HMMActual","113.94500000093831","","","","Images/NewTrialWC.png","39"
"image-keyboard-response","237","517617","0.0-4.0-1.72","10","Low_HMMActual","null","","","","Images/WhiteBeadChoice.png","null"
"image-keyboard-response","238","518323","0.0-4.0-2.72","10","Low_HMMActual","null","","","","Images/WhiteBeadChoiceWrong.png","null"
"image-keyboard-response","239","518750","0.0-4.0-0.73","10","Low_HMMActual","424.46999999991385","","","","Images/NewTrialBC.png","39"
"image-keyboard-response","240","519152","0.0-4.0-1.73","10","Low_HMMActual","null","","","","Images/WhiteBeadChoice.png","null"
"image-keyboard-response","241","519868","0.0-4.0-2.73","10","Low_HMMActual","null","","","","Images/WhiteBeadChoiceCorrect.png","null"
"image-keyboard-response","242","520116","0.0-4.0-0.74","10","Low_HMMActual","243.6600000000908","","","","Images/NewTrialWC.png","39"
"image-keyboard-response","243","520530","0.0-4.0-1.74","10","Low_HMMActual","null","","","","Images/WhiteBeadChoice.png","null"
"image-keyboard-response","244","521243","0.0-4.0-2.74","10","Low_HMMActual","null","","","","Images/WhiteBeadChoiceCorrect.png","null"
"image-keyboard-response","245","521379","0.0-4.0-0.75","10","Low_HMMActual","132.99999999982538","","","","Images/NewTrialWC.png","39"
"image-keyboard-response","246","521787","0.0-4.0-1.75","10","Low_HMMActual","null","","","","Images/WhiteBeadChoice.png","null"
"image-keyboard-response","247","522490","0.0-4.0-2.75","10","Low_HMMActual","null","","","","Images/WhiteBeadChoiceCorrect.png","null"
"image-keyboard-response","248","522580","0.0-4.0-0.76","10","Low_HMMActual","87.86499999952503","","","","Images/NewTrialWC.png","39"
"image-keyboard-response","249","522985","0.0-4.0-1.76","10","Low_HMMActual","null","","","","Images/WhiteBeadChoice.png","null"
"image-keyboard-response","250","523697","0.0-4.0-2.76","10","Low_HMMActual","null","","","","Images/WhiteBeadChoiceCorrect.png","null"
"image-keyboard-response","251","524040","0.0-4.0-0.77","10","Low_HMMActual","340.7249999999767","","","","Images/NewTrialWC.png","39"
"image-keyboard-response","252","524441","0.0-4.0-1.77","10","Low_HMMActual","null","","","","Images/WhiteBeadChoice.png","null"
"image-keyboard-response","253","525153","0.0-4.0-2.77","10","Low_HMMActual","null","","","","Images/WhiteBeadChoiceCorrect.png","null"
"image-keyboard-response","254","525636","0.0-4.0-0.78","10","Low_HMMActual","482.39999999885913","","","","Images/NewTrialWC.png","39"
"image-keyboard-response","255","526051","0.0-4.0-1.78","10","Low_HMMActual","null","","","","Images/WhiteBeadChoice.png","null"
"image-keyboard-response","256","526764","0.0-4.0-2.78","10","Low_HMMActual","null","","","","Images/WhiteBeadChoiceWrong.png","null"
"image-keyboard-response","257","527981","0.0-4.0-0.79","10","Low_HMMActual","1215.3550000003306","","","","Images/NewTrialBC.png","39"
"image-keyboard-response","258","528386","0.0-4.0-1.79","10","Low_HMMActual","null","","","","Images/WhiteBeadChoice.png","null"
"image-keyboard-response","259","529104","0.0-4.0-2.79","10","Low_HMMActual","null","","","","Images/WhiteBeadChoiceCorrect.png","null"
"image-keyboard-response","260","529610","0.0-4.0-0.80","10","Low_HMMActual","503.59000000020023","","","","Images/NewTrialWC.png","39"
"image-keyboard-response","261","530024","0.0-4.0-1.80","10","Low_HMMActual","null","","","","Images/WhiteBeadChoice.png","null"
"image-keyboard-response","262","530730","0.0-4.0-2.80","10","Low_HMMActual","null","","","","Images/WhiteBeadChoiceCorrect.png","null"
"image-keyboard-response","263","530871","0.0-4.0-0.81","10","Low_HMMActual","139.74000000045635","","","","Images/NewTrialWC.png","39"
"image-keyboard-response","264","531276","0.0-4.0-1.81","10","Low_HMMActual","null","","","","Images/WhiteBeadChoice.png","null"
"image-keyboard-response","265","531985","0.0-4.0-2.81","10","Low_HMMActual","null","","","","Images/WhiteBeadChoiceCorrect.png","null"
"image-keyboard-response","266","532342","0.0-4.0-0.82","10","Low_HMMActual","354.4849999998696","","","","Images/NewTrialWC.png","39"
"image-keyboard-response","267","532746","0.0-4.0-1.82","10","Low_HMMActual","null","","","","Images/WhiteBeadChoice.png","null"
"image-keyboard-response","268","533450","0.0-4.0-2.82","10","Low_HMMActual","null","","","","Images/WhiteBeadChoiceCorrect.png","null"
"image-keyboard-response","269","533732","0.0-4.0-0.83","10","Low_HMMActual","279.5400000013178","","","","Images/NewTrialWC.png","39"
"image-keyboard-response","270","534148","0.0-4.0-1.83","10","Low_HMMActual","null","","","","Images/WhiteBeadChoice.png","null"
"image-keyboard-response","271","534851","0.0-4.0-2.83","10","Low_HMMActual","null","","","","Images/WhiteBeadChoiceCorrect.png","null"
"image-keyboard-response","272","535129","0.0-4.0-0.84","10","Low_HMMActual","275.714999999851","","","","Images/NewTrialWC.png","39"
"image-keyboard-response","273","535535","0.0-4.0-1.84","10","Low_HMMActual","null","","","","Images/WhiteBeadChoice.png","null"
"image-keyboard-response","274","536239","0.0-4.0-2.84","10","Low_HMMActual","null","","","","Images/WhiteBeadChoiceCorrect.png","null"
"image-keyboard-response","275","536364","0.0-4.0-0.85","10","Low_HMMActual","123.53499999875203","","","","Images/NewTrialWC.png","39"
"image-keyboard-response","276","536770","0.0-4.0-1.85","10","Low_HMMActual","null","","","","Images/WhiteBeadChoice.png","null"
"image-keyboard-response","277","537477","0.0-4.0-2.85","10","Low_HMMActual","null","","","","Images/WhiteBeadChoiceCorrect.png","null"
"image-keyboard-response","278","538110","0.0-4.0-0.86","10","Low_HMMActual","630.5749999992549","","","","Images/NewTrialWC.png","39"
"image-keyboard-response","279","538514","0.0-4.0-1.86","10","Low_HMMActual","null","","","","Images/WhiteBeadChoice.png","null"
"image-keyboard-response","280","539231","0.0-4.0-2.86","10","Low_HMMActual","null","","","","Images/WhiteBeadChoiceWrong.png","null"
"image-keyboard-response","281","540949","0.0-4.0-0.87","10","Low_HMMActual","1715.694999998901","","","","Images/NewTrialBC.png","39"
"image-keyboard-response","282","541359","0.0-4.0-1.87","10","Low_HMMActual","null","","","","Images/WhiteBeadChoice.png","null"
"image-keyboard-response","283","542068","0.0-4.0-2.87","10","Low_HMMActual","null","","","","Images/WhiteBeadChoiceCorrect.png","null"
"image-keyboard-response","284","542348","0.0-4.0-0.88","10","Low_HMMActual","277.5300000011921","","","","Images/NewTrialWC.png","39"
"image-keyboard-response","285","542753","0.0-4.0-1.88","10","Low_HMMActual","null","","","","Images/WhiteBeadChoice.png","null"
"image-keyboard-response","286","543465","0.0-4.0-2.88","10","Low_HMMActual","null","","","","Images/WhiteBeadChoiceCorrect.png","null"
"image-keyboard-response","287","543623","0.0-4.0-0.89","10","Low_HMMActual","155.27500000107102","","","","Images/NewTrialWC.png","39"
"image-keyboard-response","288","544031","0.0-4.0-1.89","10","Low_HMMActual","null","","","","Images/WhiteBeadChoice.png","null"
"image-keyboard-response","289","544735","0.0-4.0-2.89","10","Low_HMMActual","null","","","","Images/WhiteBeadChoiceCorrect.png","null"
"image-keyboard-response","290","544891","0.0-4.0-0.90","10","Low_HMMActual","154.02000000001863","","","","Images/NewTrialWC.png","39"
"image-keyboard-response","291","545308","0.0-4.0-1.90","10","Low_HMMActual","null","","","","Images/WhiteBeadChoice.png","null"
"image-keyboard-response","292","546022","0.0-4.0-2.90","10","Low_HMMActual","null","","","","Images/WhiteBeadChoiceCorrect.png","null"
"image-keyboard-response","293","546195","0.0-4.0-0.91","10","Low_HMMActual","169.84000000043306","","","","Images/NewTrialWC.png","39"
"image-keyboard-response","294","546613","0.0-4.0-1.91","10","Low_HMMActual","null","","","","Images/WhiteBeadChoice.png","null"
"image-keyboard-response","295","547317","0.0-4.0-2.91","10","Low_HMMActual","null","","","","Images/WhiteBeadChoiceCorrect.png","null"
"image-keyboard-response","296","547556","0.0-4.0-0.92","10","Low_HMMActual","236.14000000082888","","","","Images/NewTrialWC.png","39"
"image-keyboard-response","297","547965","0.0-4.0-1.92","10","Low_HMMActual","null","","","","Images/WhiteBeadChoice.png","null"
"image-keyboard-response","298","548670","0.0-4.0-2.92","10","Low_HMMActual","null","","","","Images/WhiteBeadChoiceCorrect.png","null"
"image-keyboard-response","299","548945","0.0-4.0-0.93","10","Low_HMMActual","273.715000001248","","","","Images/NewTrialWC.png","39"
"image-keyboard-response","300","549356","0.0-4.0-1.93","10","Low_HMMActual","null","","","","Images/WhiteBeadChoice.png","null"
"image-keyboard-response","301","550064","0.0-4.0-2.93","10","Low_HMMActual","null","","","","Images/WhiteBeadChoiceCorrect.png","null"
"image-keyboard-response","302","550348","0.0-4.0-0.94","10","Low_HMMActual","281.9399999988964","","","","Images/NewTrialWC.png","37"
"image-keyboard-response","303","550761","0.0-4.0-1.94","10","Low_HMMActual","null","","","","Images/BlackBeadChoice.png","null"
"image-keyboard-response","304","551471","0.0-4.0-2.94","10","Low_HMMActual","null","","","","Images/BlackBeadChoiceWrong.png","null"
"image-keyboard-response","305","551882","0.0-4.0-0.95","10","Low_HMMActual","409.1100000004517","","","","Images/NewTrialWC.png","39"
"image-keyboard-response","306","552293","0.0-4.0-1.95","10","Low_HMMActual","null","","","","Images/WhiteBeadChoice.png","null"
"image-keyboard-response","307","553002","0.0-4.0-2.95","10","Low_HMMActual","null","","","","Images/WhiteBeadChoiceCorrect.png","null"
"image-keyboard-response","308","553227","0.0-4.0-0.96","10","Low_HMMActual","223.1750000009779","","","","Images/NewTrialWC.png","39"
"image-keyboard-response","309","553644","0.0-4.0-1.96","10","Low_HMMActual","null","","","","Images/WhiteBeadChoice.png","null"
"image-keyboard-response","310","554350","0.0-4.0-2.96","10","Low_HMMActual","null","","","","Images/WhiteBeadChoiceCorrect.png","null"
"image-keyboard-response","311","554614","0.0-4.0-0.97","10","Low_HMMActual","260.76000000105705","","","","Images/NewTrialWC.png","39"
"image-keyboard-response","312","555030","0.0-4.0-1.97","10","Low_HMMActual","null","","","","Images/WhiteBeadChoice.png","null"
"image-keyboard-response","313","555737","0.0-4.0-2.97","10","Low_HMMActual","null","","","","Images/WhiteBeadChoiceWrong.png","null"
"image-keyboard-response","314","556232","0.0-4.0-0.98","10","Low_HMMActual","493.4249999986496","","","","Images/NewTrialBC.png","37"
"image-keyboard-response","315","556635","0.0-4.0-1.98","10","Low_HMMActual","null","","","","Images/BlackBeadChoice.png","null"
"image-keyboard-response","316","557345","0.0-4.0-2.98","10","Low_HMMActual","null","","","","Images/BlackBeadChoiceWrong.png","null"
"image-keyboard-response","317","557538","0.0-4.0-0.99","10","Low_HMMActual","190.38999999978114","","","","Images/NewTrialWC.png","39"
"image-keyboard-response","318","557953","0.0-4.0-1.99","10","Low_HMMActual","null","","","","Images/WhiteBeadChoice.png","null"
"image-keyboard-response","319","558663","0.0-4.0-2.99","10","Low_HMMActual","null","","","","Images/WhiteBeadChoiceCorrect.png","null"
"image-keyboard-response","320","558855","0.0-4.0-0.100","10","Low_HMMActual","190.3249999996042","","","","Images/NewTrialWC.png","39"
"image-keyboard-response","321","559271","0.0-4.0-1.100","10","Low_HMMActual","null","","","","Images/WhiteBeadChoice.png","null"
"image-keyboard-response","322","559977","0.0-4.0-2.100","10","Low_HMMActual","null","","","","Images/WhiteBeadChoiceWrong.png","null"
"image-keyboard-response","323","560293","0.0-4.0-0.101","10","Low_HMMActual","313.4399999998277","","","","Images/NewTrialBC.png","37"
"image-keyboard-response","324","560699","0.0-4.0-1.101","10","Low_HMMActual","null","","","","Images/BlackBeadChoice.png","null"
"image-keyboard-response","325","561416","0.0-4.0-2.101","10","Low_HMMActual","null","","","","Images/BlackBeadChoiceWrong.png","null"
"image-keyboard-response","326","562539","0.0-4.0-0.102","10","Low_HMMActual","1120.799999998766","","","","Images/NewTrialWC.png","39"
"image-keyboard-response","327","562956","0.0-4.0-1.102","10","Low_HMMActual","null","","","","Images/WhiteBeadChoice.png","null"
"image-keyboard-response","328","563662","0.0-4.0-2.102","10","Low_HMMActual","null","","","","Images/WhiteBeadChoiceCorrect.png","null"
"image-keyboard-response","329","563811","0.0-4.0-0.103","10","Low_HMMActual","147.2700000012992","","","","Images/NewTrialWC.png","39"
"image-keyboard-response","330","564222","0.0-4.0-1.103","10","Low_HMMActual","null","","","","Images/WhiteBeadChoice.png","null"
"image-keyboard-response","331","564925","0.0-4.0-2.103","10","Low_HMMActual","null","","","","Images/WhiteBeadChoiceCorrect.png","null"
"image-keyboard-response","332","564994","0.0-4.0-0.104","10","Low_HMMActual","67.48499999963678","","","","Images/NewTrialWC.png","39"
"image-keyboard-response","333","565399","0.0-4.0-1.104","10","Low_HMMActual","null","","","","Images/WhiteBeadChoice.png","null"
"image-keyboard-response","334","566114","0.0-4.0-2.104","10","Low_HMMActual","null","","","","Images/WhiteBeadChoiceCorrect.png","null"
"image-keyboard-response","335","566267","0.0-4.0-0.105","10","Low_HMMActual","149.47999999998137","","","","Images/NewTrialWC.png","39"
"image-keyboard-response","336","566683","0.0-4.0-1.105","10","Low_HMMActual","null","","","","Images/WhiteBeadChoice.png","null"
"image-keyboard-response","337","567395","0.0-4.0-2.105","10","Low_HMMActual","null","","","","Images/WhiteBeadChoiceCorrect.png","null"
"image-keyboard-response","338","567473","0.0-4.0-0.106","10","Low_HMMActual","75.09500000020489","","","","Images/NewTrialWC.png","39"
"image-keyboard-response","339","567883","0.0-4.0-1.106","10","Low_HMMActual","null","","","","Images/WhiteBeadChoice.png","null"
"image-keyboard-response","340","568590","0.0-4.0-2.106","10","Low_HMMActual","null","","","","Images/WhiteBeadChoiceCorrect.png","null"
"image-keyboard-response","341","568729","0.0-4.0-0.107","10","Low_HMMActual","136.4450000000652","","","","Images/NewTrialWC.png","39"
"image-keyboard-response","342","569141","0.0-4.0-1.107","10","Low_HMMActual","null","","","","Images/WhiteBeadChoice.png","null"
"image-keyboard-response","343","569847","0.0-4.0-2.107","10","Low_HMMActual","null","","","","Images/WhiteBeadChoiceCorrect.png","null"
"image-keyboard-response","344","569977","0.0-4.0-0.108","10","Low_HMMActual","127.81000000005588","","","","Images/NewTrialWC.png","39"
"image-keyboard-response","345","570393","0.0-4.0-1.108","10","Low_HMMActual","null","","","","Images/WhiteBeadChoice.png","null"
"image-keyboard-response","346","571107","0.0-4.0-2.108","10","Low_HMMActual","null","","","","Images/WhiteBeadChoiceCorrect.png","null"
"image-keyboard-response","347","571261","0.0-4.0-0.109","10","Low_HMMActual","152.62499999883585","","","","Images/NewTrialWC.png","39"
"image-keyboard-response","348","571678","0.0-4.0-1.109","10","Low_HMMActual","null","","","","Images/WhiteBeadChoice.png","null"
"image-keyboard-response","349","572381","0.0-4.0-2.109","10","Low_HMMActual","null","","","","Images/WhiteBeadChoiceWrong.png","null"
"image-keyboard-response","350","572611","0.0-4.0-0.110","10","Low_HMMActual","227.59499999845866","","","","Images/NewTrialBC.png","39"
"image-keyboard-response","351","573029","0.0-4.0-1.110","10","Low_HMMActual","null","","","","Images/WhiteBeadChoice.png","null"
"image-keyboard-response","352","573744","0.0-4.0-2.110","10","Low_HMMActual","null","","","","Images/WhiteBeadChoiceCorrect.png","null"
"image-keyboard-response","353","573952","0.0-4.0-0.111","10","Low_HMMActual","204.40000000060536","","","","Images/NewTrialWC.png","39"
"image-keyboard-response","354","574367","0.0-4.0-1.111","10","Low_HMMActual","null","","","","Images/WhiteBeadChoice.png","null"
"image-keyboard-response","355","575074","0.0-4.0-2.111","10","Low_HMMActual","null","","","","Images/WhiteBeadChoiceCorrect.png","null"
"image-keyboard-response","356","575186","0.0-4.0-0.112","10","Low_HMMActual","109.78999999864027","","","","Images/NewTrialWC.png","39"
"image-keyboard-response","357","575590","0.0-4.0-1.112","10","Low_HMMActual","null","","","","Images/WhiteBeadChoice.png","null"
"image-keyboard-response","358","576307","0.0-4.0-2.112","10","Low_HMMActual","null","","","","Images/WhiteBeadChoiceCorrect.png","null"
"image-keyboard-response","359","576309","0.0-4.0-0.113","10","Low_HMMActual","0.5199999995529652","","","","Images/NewTrialWC.png","39"
"image-keyboard-response","360","576725","0.0-4.0-1.113","10","Low_HMMActual","null","","","","Images/WhiteBeadChoice.png","null"
"image-keyboard-response","361","577428","0.0-4.0-2.113","10","Low_HMMActual","null","","","","Images/WhiteBeadChoiceCorrect.png","null"
"image-keyboard-response","362","577540","0.0-4.0-0.114","10","Low_HMMActual","109.87499999825377","","","","Images/NewTrialWC.png","39"
"image-keyboard-response","363","577959","0.0-4.0-1.114","10","Low_HMMActual","null","","","","Images/WhiteBeadChoice.png","null"
"image-keyboard-response","364","578673","0.0-4.0-2.114","10","Low_HMMActual","null","","","","Images/WhiteBeadChoiceCorrect.png","null"
"image-keyboard-response","365","578729","0.0-4.0-0.115","10","Low_HMMActual","53.8750000015134","","","","Images/NewTrialWC.png","39"
"image-keyboard-response","366","579133","0.0-4.0-1.115","10","Low_HMMActual","null","","","","Images/WhiteBeadChoice.png","null"
"image-keyboard-response","367","579843","0.0-4.0-2.115","10","Low_HMMActual","null","","","","Images/WhiteBeadChoiceCorrect.png","null"
"image-keyboard-response","368","579875","0.0-4.0-0.116","10","Low_HMMActual","29.769999999087304","","","","Images/NewTrialWC.png","39"
"image-keyboard-response","369","580282","0.0-4.0-1.116","10","Low_HMMActual","null","","","","Images/WhiteBeadChoice.png","null"
"image-keyboard-response","370","580985","0.0-4.0-2.116","10","Low_HMMActual","null","","","","Images/WhiteBeadChoiceCorrect.png","null"
"image-keyboard-response","371","581164","0.0-4.0-0.117","10","Low_HMMActual","177.06999999971595","","","","Images/NewTrialWC.png","39"
"image-keyboard-response","372","581569","0.0-4.0-1.117","10","Low_HMMActual","null","","","","Images/WhiteBeadChoice.png","null"
"image-keyboard-response","373","582280","0.0-4.0-2.117","10","Low_HMMActual","null","","","","Images/WhiteBeadChoiceCorrect.png","null"
"image-keyboard-response","374","582592","0.0-4.0-0.118","10","Low_HMMActual","309.84499999973923","","","","Images/NewTrialWC.png","37"
"image-keyboard-response","375","582997","0.0-4.0-1.118","10","Low_HMMActual","null","","","","Images/BlackBeadChoice.png","null"
"image-keyboard-response","376","583711","0.0-4.0-2.118","10","Low_HMMActual","null","","","","Images/BlackBeadChoiceWrong.png","null"
"image-keyboard-response","377","584094","0.0-4.0-0.119","10","Low_HMMActual","380.8000000008615","","","","Images/NewTrialWC.png","39"
"image-keyboard-response","378","584503","0.0-4.0-1.119","10","Low_HMMActual","null","","","","Images/WhiteBeadChoice.png","null"
"image-keyboard-response","379","585214","0.0-4.0-2.119","10","Low_HMMActual","null","","","","Images/WhiteBeadChoiceWrong.png","null"
"image-keyboard-response","380","585594","0.0-4.0-0.120","10","Low_HMMActual","378.03499999968335","","","","Images/NewTrialBC.png","37"
"image-keyboard-response","381","585999","0.0-4.0-1.120","10","Low_HMMActual","null","","","","Images/BlackBeadChoice.png","null"
"image-keyboard-response","382","586705","0.0-4.0-2.120","10","Low_HMMActual","null","","","","Images/BlackBeadChoiceCorrect.png","null"
"image-keyboard-response","383","586987","0.0-4.0-0.121","10","Low_HMMActual","280.09499999997206","","","","Images/NewTrialBC.png","37"
"image-keyboard-response","384","587404","0.0-4.0-1.121","10","Low_HMMActual","null","","","","Images/BlackBeadChoice.png","null"
"image-keyboard-response","385","588120","0.0-4.0-2.121","10","Low_HMMActual","null","","","","Images/BlackBeadChoiceWrong.png","null"
"image-keyboard-response","386","588607","0.0-4.0-0.122","10","Low_HMMActual","484.59499999985565","","","","Images/NewTrialWC.png","39"
"image-keyboard-response","387","589019","0.0-4.0-1.122","10","Low_HMMActual","null","","","","Images/WhiteBeadChoice.png","null"
"image-keyboard-response","388","589727","0.0-4.0-2.122","10","Low_HMMActual","null","","","","Images/WhiteBeadChoiceCorrect.png","null"
"image-keyboard-response","389","589939","0.0-4.0-0.123","10","Low_HMMActual","210.2550000017509","","","","Images/NewTrialWC.png","39"
"image-keyboard-response","390","590350","0.0-4.0-1.123","10","Low_HMMActual","null","","","","Images/WhiteBeadChoice.png","null"
"image-keyboard-response","391","591063","0.0-4.0-2.123","10","Low_HMMActual","null","","","","Images/WhiteBeadChoiceCorrect.png","null"
"image-keyboard-response","392","591201","0.0-4.0-0.124","10","Low_HMMActual","135.75499999930616","","","","Images/NewTrialWC.png","39"
"image-keyboard-response","393","591619","0.0-4.0-1.124","10","Low_HMMActual","null","","","","Images/WhiteBeadChoice.png","null"
"image-keyboard-response","394","592325","0.0-4.0-2.124","10","Low_HMMActual","null","","","","Images/WhiteBeadChoiceCorrect.png","null"
"image-keyboard-response","395","592415","0.0-4.0-0.125","10","Low_HMMActual","87.64499999955297","","","","Images/NewTrialWC.png","39"
"image-keyboard-response","396","592825","0.0-4.0-1.125","10","Low_HMMActual","null","","","","Images/WhiteBeadChoice.png","null"
"image-keyboard-response","397","593542","0.0-4.0-2.125","10","Low_HMMActual","null","","","","Images/WhiteBeadChoiceWrong.png","null"
"image-keyboard-response","398","593912","0.0-4.0-0.126","10","Low_HMMActual","367.5050000001211","","","","Images/NewTrialBC.png","37"
"image-keyboard-response","399","594315","0.0-4.0-1.126","10","Low_HMMActual","null","","","","Images/BlackBeadChoice.png","null"
"image-keyboard-response","400","595019","0.0-4.0-2.126","10","Low_HMMActual","null","","","","Images/BlackBeadChoiceWrong.png","null"
"image-keyboard-response","401","595355","0.0-4.0-0.127","10","Low_HMMActual","334.9550000001909","","","","Images/NewTrialWC.png","39"
"image-keyboard-response","402","595765","0.0-4.0-1.127","10","Low_HMMActual","null","","","","Images/WhiteBeadChoice.png","null"
"image-keyboard-response","403","596480","0.0-4.0-2.127","10","Low_HMMActual","null","","","","Images/WhiteBeadChoiceCorrect.png","null"
"image-keyboard-response","404","596622","0.0-4.0-0.128","10","Low_HMMActual","138.9149999995716","","","","Images/NewTrialWC.png","39"
"image-keyboard-response","405","597038","0.0-4.0-1.128","10","Low_HMMActual","null","","","","Images/WhiteBeadChoice.png","null"
"image-keyboard-response","406","597749","0.0-4.0-2.128","10","Low_HMMActual","null","","","","Images/WhiteBeadChoiceCorrect.png","null"
"image-keyboard-response","407","597940","0.0-4.0-0.129","10","Low_HMMActual","188.615000000922","","","","Images/NewTrialWC.png","39"
"image-keyboard-response","408","598355","0.0-4.0-1.129","10","Low_HMMActual","null","","","","Images/WhiteBeadChoice.png","null"
"image-keyboard-response","409","599068","0.0-4.0-2.129","10","Low_HMMActual","null","","","","Images/WhiteBeadChoiceCorrect.png","null"
"image-keyboard-response","410","599193","0.0-4.0-0.130","10","Low_HMMActual","123.43499999959022","","","","Images/NewTrialWC.png","39"
"image-keyboard-response","411","599596","0.0-4.0-1.130","10","Low_HMMActual","null","","","","Images/WhiteBeadChoice.png","null"
"image-keyboard-response","412","600309","0.0-4.0-2.130","10","Low_HMMActual","null","","","","Images/WhiteBeadChoiceCorrect.png","null"
"image-keyboard-response","413","600394","0.0-4.0-0.131","10","Low_HMMActual","81.92500000039581","","","","Images/NewTrialWC.png","39"
"image-keyboard-response","414","600799","0.0-4.0-1.131","10","Low_HMMActual","null","","","","Images/WhiteBeadChoice.png","null"
"image-keyboard-response","415","601516","0.0-4.0-2.131","10","Low_HMMActual","null","","","","Images/WhiteBeadChoiceCorrect.png","null"
"image-keyboard-response","416","601602","0.0-4.0-0.132","10","Low_HMMActual","84.14999999874271","","","","Images/NewTrialWC.png","39"
"image-keyboard-response","417","602011","0.0-4.0-1.132","10","Low_HMMActual","null","","","","Images/WhiteBeadChoice.png","null"
"image-keyboard-response","418","602721","0.0-4.0-2.132","10","Low_HMMActual","null","","","","Images/WhiteBeadChoiceCorrect.png","null"
"image-keyboard-response","419","602962","0.0-4.0-0.133","10","Low_HMMActual","239.5749999996042","","","","Images/NewTrialWC.png","39"
"image-keyboard-response","420","603369","0.0-4.0-1.133","10","Low_HMMActual","null","","","","Images/WhiteBeadChoice.png","null"
"image-keyboard-response","421","604082","0.0-4.0-2.133","10","Low_HMMActual","null","","","","Images/WhiteBeadChoiceCorrect.png","null"
"image-keyboard-response","422","604130","0.0-4.0-0.134","10","Low_HMMActual","46.27000000071712","","","","Images/NewTrialWC.png","39"
"image-keyboard-response","423","604545","0.0-4.0-1.134","10","Low_HMMActual","null","","","","Images/WhiteBeadChoice.png","null"
"image-keyboard-response","424","605256","0.0-4.0-2.134","10","Low_HMMActual","null","","","","Images/WhiteBeadChoiceWrong.png","null"
"image-keyboard-response","425","611240","0.0-4.0-0.135","10","Low_HMMActual","5981.154999999446","","","","Images/NewTrialBC.png","39"
"image-keyboard-response","426","611656","0.0-4.0-1.135","10","Low_HMMActual","null","","","","Images/WhiteBeadChoice.png","null"
"image-keyboard-response","427","612369","0.0-4.0-2.135","10","Low_HMMActual","null","","","","Images/WhiteBeadChoiceCorrect.png","null"
"image-keyboard-response","428","612480","0.0-4.0-0.136","10","Low_HMMActual","109.86000000045169","","","","Images/NewTrialWC.png","39"
"image-keyboard-response","429","612891","0.0-4.0-1.136","10","Low_HMMActual","null","","","","Images/WhiteBeadChoice.png","null"
"image-keyboard-response","430","613606","0.0-4.0-2.136","10","Low_HMMActual","null","","","","Images/WhiteBeadChoiceCorrect.png","null"
"image-keyboard-response","431","613828","0.0-4.0-0.137","10","Low_HMMActual","219.63999999931548","","","","Images/NewTrialWC.png","39"
"image-keyboard-response","432","614241","0.0-4.0-1.137","10","Low_HMMActual","null","","","","Images/WhiteBeadChoice.png","null"
"image-keyboard-response","433","614955","0.0-4.0-2.137","10","Low_HMMActual","null","","","","Images/WhiteBeadChoiceWrong.png","null"
"image-keyboard-response","434","615436","0.0-4.0-0.138","10","Low_HMMActual","478.49499999941327","","","","Images/NewTrialBC.png","39"
"image-keyboard-response","435","615848","0.0-4.0-1.138","10","Low_HMMActual","null","","","","Images/WhiteBeadChoice.png","null"
"image-keyboard-response","436","616555","0.0-4.0-2.138","10","Low_HMMActual","null","","","","Images/WhiteBeadChoiceCorrect.png","null"
"image-keyboard-response","437","616765","0.0-4.0-0.139","10","Low_HMMActual","207.5750000004191","","","","Images/NewTrialWC.png","39"
"image-keyboard-response","438","617167","0.0-4.0-1.139","10","Low_HMMActual","null","","","","Images/WhiteBeadChoice.png","null"
"image-keyboard-response","439","617871","0.0-4.0-2.139","10","Low_HMMActual","null","","","","Images/WhiteBeadChoiceCorrect.png","null"
"image-keyboard-response","440","618058","0.0-4.0-0.140","10","Low_HMMActual","185.77000000001863","","","","Images/NewTrialWC.png","39"
"image-keyboard-response","441","618462","0.0-4.0-1.140","10","Low_HMMActual","null","","","","Images/WhiteBeadChoice.png","null"
"image-keyboard-response","442","619176","0.0-4.0-2.140","10","Low_HMMActual","null","","","","Images/WhiteBeadChoiceWrong.png","null"
"image-keyboard-response","443","619698","0.0-4.0-0.141","10","Low_HMMActual","518.7900000001537","","","","Images/NewTrialBC.png","39"
"image-keyboard-response","444","620113","0.0-4.0-1.141","10","Low_HMMActual","null","","","","Images/WhiteBeadChoice.png","null"
"image-keyboard-response","445","620822","0.0-4.0-2.141","10","Low_HMMActual","null","","","","Images/WhiteBeadChoiceCorrect.png","null"
"image-keyboard-response","446","621342","0.0-4.0-0.142","10","Low_HMMActual","517.7049999984447","","","","Images/NewTrialWC.png","39"
"image-keyboard-response","447","621759","0.0-4.0-1.142","10","Low_HMMActual","null","","","","Images/WhiteBeadChoice.png","null"
"image-keyboard-response","448","622469","0.0-4.0-2.142","10","Low_HMMActual","null","","","","Images/WhiteBeadChoiceWrong.png","null"
"image-keyboard-response","449","622797","0.0-4.0-0.143","10","Low_HMMActual","325.0450000013225","","","","Images/NewTrialBC.png","37"
"image-keyboard-response","450","623200","0.0-4.0-1.143","10","Low_HMMActual","null","","","","Images/BlackBeadChoice.png","null"
"image-keyboard-response","451","623909","0.0-4.0-2.143","10","Low_HMMActual","null","","","","Images/BlackBeadChoiceWrong.png","null"
"image-keyboard-response","452","624214","0.0-4.0-0.144","10","Low_HMMActual","302.7650000003632","","","","Images/NewTrialWC.png","37"
"image-keyboard-response","453","624635","0.0-4.0-1.144","10","Low_HMMActual","null","","","","Images/BlackBeadChoice.png","null"
"image-keyboard-response","454","625351","0.0-4.0-2.144","10","Low_HMMActual","null","","","","Images/BlackBeadChoiceWrong.png","null"
"image-keyboard-response","455","625683","0.0-4.0-0.145","10","Low_HMMActual","329.6500000015367","","","","Images/NewTrialWC.png","39"
"image-keyboard-response","456","626090","0.0-4.0-1.145","10","Low_HMMActual","null","","","","Images/WhiteBeadChoice.png","null"
"image-keyboard-response","457","626796","0.0-4.0-2.145","10","Low_HMMActual","null","","","","Images/WhiteBeadChoiceCorrect.png","null"
"image-keyboard-response","458","627060","0.0-4.0-0.146","10","Low_HMMActual","261.7699999992037","","","","Images/NewTrialWC.png","39"
"image-keyboard-response","459","627473","0.0-4.0-1.146","10","Low_HMMActual","null","","","","Images/WhiteBeadChoice.png","null"
"image-keyboard-response","460","628183","0.0-4.0-2.146","10","Low_HMMActual","null","","","","Images/WhiteBeadChoiceCorrect.png","null"
"image-keyboard-response","461","628366","0.0-4.0-0.147","10","Low_HMMActual","180.7900000003865","","","","Images/NewTrialWC.png","39"
"image-keyboard-response","462","628774","0.0-4.0-1.147","10","Low_HMMActual","null","","","","Images/WhiteBeadChoice.png","null"
"image-keyboard-response","463","629490","0.0-4.0-2.147","10","Low_HMMActual","null","","","","Images/WhiteBeadChoiceCorrect.png","null"
"image-keyboard-response","464","629628","0.0-4.0-0.148","10","Low_HMMActual","134.88000000151806","","","","Images/NewTrialWC.png","39"
"image-keyboard-response","465","630041","0.0-4.0-1.148","10","Low_HMMActual","null","","","","Images/WhiteBeadChoice.png","null"
"image-keyboard-response","466","630751","0.0-4.0-2.148","10","Low_HMMActual","null","","","","Images/WhiteBeadChoiceCorrect.png","null"
"image-keyboard-response","467","631161","0.0-4.0-0.149","10","Low_HMMActual","407.2249999990454","","","","Images/NewTrialWC.png","39"
"image-keyboard-response","468","631576","0.0-4.0-1.149","10","Low_HMMActual","null","","","","Images/WhiteBeadChoice.png","null"
"image-keyboard-response","469","632290","0.0-4.0-2.149","10","Low_HMMActual","null","","","","Images/WhiteBeadChoiceCorrect.png","null"
"image-keyboard-response","470","632490","0.0-4.0-0.150","10","Low_HMMActual","197.60999999928754","","","","Images/NewTrialWC.png","39"
"image-keyboard-response","471","632905","0.0-4.0-1.150","10","Low_HMMActual","null","","","","Images/WhiteBeadChoice.png","null"
"image-keyboard-response","472","633615","0.0-4.0-2.150","10","Low_HMMActual","null","","","","Images/WhiteBeadChoiceWrong.png","null"
"image-keyboard-response","473","633920","0.0-4.0-0.151","10","Low_HMMActual","301.46999999845866","","","","Images/NewTrialBC.png","37"
"image-keyboard-response","474","634326","0.0-4.0-1.151","10","Low_HMMActual","null","","","","Images/BlackBeadChoice.png","null"
"image-keyboard-response","475","635059","0.0-4.0-2.151","10","Low_HMMActual","null","","","","Images/BlackBeadChoiceCorrect.png","null"
"image-keyboard-response","476","635267","0.0-4.0-0.152","10","Low_HMMActual","207.1950000008801","","","","Images/NewTrialBC.png","37"
"image-keyboard-response","477","635684","0.0-4.0-1.152","10","Low_HMMActual","null","","","","Images/BlackBeadChoice.png","null"
"image-keyboard-response","478","636391","0.0-4.0-2.152","10","Low_HMMActual","null","","","","Images/BlackBeadChoiceWrong.png","null"
"image-keyboard-response","479","636891","0.0-4.0-0.153","10","Low_HMMActual","497.66500000085216","","","","Images/NewTrialWC.png","39"
"image-keyboard-response","480","637294","0.0-4.0-1.153","10","Low_HMMActual","null","","","","Images/WhiteBeadChoice.png","null"
"image-keyboard-response","481","638005","0.0-4.0-2.153","10","Low_HMMActual","null","","","","Images/WhiteBeadChoiceWrong.png","null"
"image-keyboard-response","482","638710","0.0-4.0-0.154","10","Low_HMMActual","702.5900000007823","","","","Images/NewTrialBC.png","37"
"image-keyboard-response","483","639125","0.0-4.0-1.154","10","Low_HMMActual","null","","","","Images/BlackBeadChoice.png","null"
"image-keyboard-response","484","639839","0.0-4.0-2.154","10","Low_HMMActual","null","","","","Images/BlackBeadChoiceWrong.png","null"
"image-keyboard-response","485","641177","0.0-4.0-0.155","10","Low_HMMActual","1336.7149999995017","","","","Images/NewTrialWC.png","37"
"image-keyboard-response","486","641586","0.0-4.0-1.155","10","Low_HMMActual","null","","","","Images/BlackBeadChoice.png","null"
"image-keyboard-response","487","642298","0.0-4.0-2.155","10","Low_HMMActual","null","","","","Images/BlackBeadChoiceWrong.png","null"
"image-keyboard-response","488","642516","0.0-4.0-0.156","10","Low_HMMActual","215.86000000033528","","","","Images/NewTrialWC.png","39"
"image-keyboard-response","489","642922","0.0-4.0-1.156","10","Low_HMMActual","null","","","","Images/WhiteBeadChoice.png","null"
"image-keyboard-response","490","643626","0.0-4.0-2.156","10","Low_HMMActual","null","","","","Images/WhiteBeadChoiceCorrect.png","null"
"image-keyboard-response","491","643864","0.0-4.0-0.157","10","Low_HMMActual","235.05999999900814","","","","Images/NewTrialWC.png","39"
"image-keyboard-response","492","644278","0.0-4.0-1.157","10","Low_HMMActual","null","","","","Images/WhiteBeadChoice.png","null"
"image-keyboard-response","493","644992","0.0-4.0-2.157","10","Low_HMMActual","null","","","","Images/WhiteBeadChoiceCorrect.png","null"
"image-keyboard-response","494","645154","0.0-4.0-0.158","10","Low_HMMActual","161.1199999989476","","","","Images/NewTrialWC.png","39"
"image-keyboard-response","495","645565","0.0-4.0-1.158","10","Low_HMMActual","null","","","","Images/WhiteBeadChoice.png","null"
"image-keyboard-response","496","646282","0.0-4.0-2.158","10","Low_HMMActual","null","","","","Images/WhiteBeadChoiceCorrect.png","null"
"image-keyboard-response","497","646364","0.0-4.0-0.159","10","Low_HMMActual","78.48000000009779","","","","Images/NewTrialWC.png","39"
"image-keyboard-response","498","646770","0.0-4.0-1.159","10","Low_HMMActual","null","","","","Images/WhiteBeadChoice.png","null"
"image-keyboard-response","499","647473","0.0-4.0-2.159","10","Low_HMMActual","null","","","","Images/WhiteBeadChoiceWrong.png","null"
"image-keyboard-response","500","648059","0.0-4.0-0.160","10","Low_HMMActual","583.3999999995576","","","","Images/NewTrialBC.png","39"
"image-keyboard-response","501","648470","0.0-4.0-1.160","10","Low_HMMActual","null","","","","Images/WhiteBeadChoice.png","null"
"image-keyboard-response","502","649185","0.0-4.0-2.160","10","Low_HMMActual","null","","","","Images/WhiteBeadChoiceCorrect.png","null"
"image-keyboard-response","503","649334","0.0-4.0-0.161","10","Low_HMMActual","146.919999999227","","","","Images/NewTrialWC.png","39"
"image-keyboard-response","504","649745","0.0-4.0-1.161","10","Low_HMMActual","null","","","","Images/WhiteBeadChoice.png","null"
"image-keyboard-response","505","650455","0.0-4.0-2.161","10","Low_HMMActual","null","","","","Images/WhiteBeadChoiceCorrect.png","null"
"image-keyboard-response","506","650585","0.0-4.0-0.162","10","Low_HMMActual","126.86000000033528","","","","Images/NewTrialWC.png","39"
"image-keyboard-response","507","650995","0.0-4.0-1.162","10","Low_HMMActual","null","","","","Images/WhiteBeadChoice.png","null"
"image-keyboard-response","508","651712","0.0-4.0-2.162","10","Low_HMMActual","null","","","","Images/WhiteBeadChoiceWrong.png","null"
"image-keyboard-response","509","652122","0.0-4.0-0.163","10","Low_HMMActual","407.8900000003632","","","","Images/NewTrialBC.png","39"
"image-keyboard-response","510","652528","0.0-4.0-1.163","10","Low_HMMActual","null","","","","Images/WhiteBeadChoice.png","null"
"image-keyboard-response","511","653241","0.0-4.0-2.163","10","Low_HMMActual","null","","","","Images/WhiteBeadChoiceWrong.png","null"
"image-keyboard-response","512","653451","0.0-4.0-0.164","10","Low_HMMActual","207.875","","","","Images/NewTrialBC.png","37"
"image-keyboard-response","513","653863","0.0-4.0-1.164","10","Low_HMMActual","null","","","","Images/BlackBeadChoice.png","null"
"image-keyboard-response","514","654570","0.0-4.0-2.164","10","Low_HMMActual","null","","","","Images/BlackBeadChoiceWrong.png","null"
"image-keyboard-response","515","654911","0.0-4.0-0.165","10","Low_HMMActual","338.5899999993853","","","","Images/NewTrialWC.png","39"
"image-keyboard-response","516","655316","0.0-4.0-1.165","10","Low_HMMActual","null","","","","Images/WhiteBeadChoice.png","null"
"image-keyboard-response","517","656025","0.0-4.0-2.165","10","Low_HMMActual","null","","","","Images/WhiteBeadChoiceCorrect.png","null"
"image-keyboard-response","518","656268","0.0-4.0-0.166","10","Low_HMMActual","240.7299999995157","","","","Images/NewTrialWC.png","39"
"image-keyboard-response","519","656680","0.0-4.0-1.166","10","Low_HMMActual","null","","","","Images/WhiteBeadChoice.png","null"
"image-keyboard-response","520","657397","0.0-4.0-2.166","10","Low_HMMActual","null","","","","Images/WhiteBeadChoiceCorrect.png","null"
"image-keyboard-response","521","657509","0.0-4.0-0.167","10","Low_HMMActual","108.37999999965541","","","","Images/NewTrialWC.png","39"
"image-keyboard-response","522","657916","0.0-4.0-1.167","10","Low_HMMActual","null","","","","Images/WhiteBeadChoice.png","null"
"image-keyboard-response","523","658622","0.0-4.0-2.167","10","Low_HMMActual","null","","","","Images/WhiteBeadChoiceCorrect.png","null"
"image-keyboard-response","524","658761","0.0-4.0-0.168","10","Low_HMMActual","135.94000000017695","","","","Images/NewTrialWC.png","39"
"image-keyboard-response","525","659163","0.0-4.0-1.168","10","Low_HMMActual","null","","","","Images/WhiteBeadChoice.png","null"
"image-keyboard-response","526","659871","0.0-4.0-2.168","10","Low_HMMActual","null","","","","Images/WhiteBeadChoiceCorrect.png","null"
"image-keyboard-response","527","660116","0.0-4.0-0.169","10","Low_HMMActual","243.44000000017695","","","","Images/NewTrialWC.png","39"
"image-keyboard-response","528","660532","0.0-4.0-1.169","10","Low_HMMActual","null","","","","Images/WhiteBeadChoice.png","null"
"image-keyboard-response","529","661243","0.0-4.0-2.169","10","Low_HMMActual","null","","","","Images/WhiteBeadChoiceCorrect.png","null"
"image-keyboard-response","530","661509","0.0-4.0-0.170","10","Low_HMMActual","262.68500000145286","","","","Images/NewTrialWC.png","39"
"image-keyboard-response","531","661913","0.0-4.0-1.170","10","Low_HMMActual","null","","","","Images/WhiteBeadChoice.png","null"
"image-keyboard-response","532","662619","0.0-4.0-2.170","10","Low_HMMActual","null","","","","Images/WhiteBeadChoiceCorrect.png","null"
"image-keyboard-response","533","662803","0.0-4.0-0.171","10","Low_HMMActual","180.2400000016205","","","","Images/NewTrialWC.png","39"
"image-keyboard-response","534","663217","0.0-4.0-1.171","10","Low_HMMActual","null","","","","Images/WhiteBeadChoice.png","null"
"image-keyboard-response","535","663928","0.0-4.0-2.171","10","Low_HMMActual","null","","","","Images/WhiteBeadChoiceCorrect.png","null"
"image-keyboard-response","536","664091","0.0-4.0-0.172","10","Low_HMMActual","160.2549999988405","","","","Images/NewTrialWC.png","39"
"image-keyboard-response","537","664505","0.0-4.0-1.172","10","Low_HMMActual","null","","","","Images/WhiteBeadChoice.png","null"
"image-keyboard-response","538","665216","0.0-4.0-2.172","10","Low_HMMActual","null","","","","Images/WhiteBeadChoiceWrong.png","null"
"image-keyboard-response","539","665516","0.0-4.0-0.173","10","Low_HMMActual","297.7750000009546","","","","Images/NewTrialBC.png","37"
"image-keyboard-response","540","665922","0.0-4.0-1.173","10","Low_HMMActual","null","","","","Images/BlackBeadChoice.png","null"
"image-keyboard-response","541","666631","0.0-4.0-2.173","10","Low_HMMActual","null","","","","Images/BlackBeadChoiceWrong.png","null"
"image-keyboard-response","542","666655","0.0-4.0-0.174","10","Low_HMMActual","19.24000000138767","","","","Images/NewTrialWC.png","39"
"image-keyboard-response","543","667065","0.0-4.0-1.174","10","Low_HMMActual","null","","","","Images/WhiteBeadChoice.png","null"
"image-keyboard-response","544","667771","0.0-4.0-2.174","10","Low_HMMActual","71.549999998766","","","","Images/WhiteBeadChoiceCorrect.png","39"
"image-keyboard-response","545","668046","0.0-4.0-0.175","10","Low_HMMActual","273.2749999995576","","","","Images/NewTrialWC.png","39"
"image-keyboard-response","546","668452","0.0-4.0-1.175","10","Low_HMMActual","null","","","","Images/WhiteBeadChoice.png","null"
"image-keyboard-response","547","669165","0.0-4.0-2.175","10","Low_HMMActual","null","","","","Images/WhiteBeadChoiceCorrect.png","null"
"image-keyboard-response","548","669221","0.0-4.0-0.176","10","Low_HMMActual","55.05000000086147","","","","Images/NewTrialWC.png","39"
"image-keyboard-response","549","669625","0.0-4.0-1.176","10","Low_HMMActual","null","","","","Images/WhiteBeadChoice.png","null"
"image-keyboard-response","550","670336","0.0-4.0-2.176","10","Low_HMMActual","null","","","","Images/WhiteBeadChoiceCorrect.png","null"
"image-keyboard-response","551","670520","0.0-4.0-0.177","10","Low_HMMActual","181.6450000006007","","","","Images/NewTrialWC.png","39"
"image-keyboard-response","552","670928","0.0-4.0-1.177","10","Low_HMMActual","null","","","","Images/WhiteBeadChoice.png","null"
"image-keyboard-response","553","671646","0.0-4.0-2.177","10","Low_HMMActual","null","","","","Images/WhiteBeadChoiceWrong.png","null"
"image-keyboard-response","554","671998","0.0-4.0-0.178","10","Low_HMMActual","348.7150000000838","","","","Images/NewTrialBC.png","39"
"image-keyboard-response","555","672407","0.0-4.0-1.178","10","Low_HMMActual","null","","","","Images/WhiteBeadChoice.png","null"
"image-keyboard-response","556","673125","0.0-4.0-2.178","10","Low_HMMActual","null","","","","Images/WhiteBeadChoiceWrong.png","null"
"image-keyboard-response","557","673437","0.0-4.0-0.179","10","Low_HMMActual","309.94499999901745","","","","Images/NewTrialBC.png","37"
"image-keyboard-response","558","673848","0.0-4.0-1.179","10","Low_HMMActual","null","","","","Images/BlackBeadChoice.png","null"
"image-keyboard-response","559","674556","0.0-4.0-2.179","10","Low_HMMActual","null","","","","Images/BlackBeadChoiceWrong.png","null"
"image-keyboard-response","560","674987","0.0-4.0-0.180","10","Low_HMMActual","428.82500000088476","","","","Images/NewTrialWC.png","39"
"image-keyboard-response","561","675403","0.0-4.0-1.180","10","Low_HMMActual","null","","","","Images/WhiteBeadChoice.png","null"
"image-keyboard-response","562","676120","0.0-4.0-2.180","10","Low_HMMActual","null","","","","Images/WhiteBeadChoiceCorrect.png","null"
"image-keyboard-response","563","676298","0.0-4.0-0.181","10","Low_HMMActual","175.04000000003725","","","","Images/NewTrialWC.png","39"
"image-keyboard-response","564","676729","0.0-4.0-1.181","10","Low_HMMActual","null","","","","Images/WhiteBeadChoice.png","null"
"image-keyboard-response","565","677443","0.0-4.0-2.181","10","Low_HMMActual","null","","","","Images/WhiteBeadChoiceWrong.png","null"
"image-keyboard-response","566","677597","0.0-4.0-0.182","10","Low_HMMActual","149.69999999995343","","","","Images/NewTrialBC.png","37"
"image-keyboard-response","567","678013","0.0-4.0-1.182","10","Low_HMMActual","null","","","","Images/BlackBeadChoice.png","null"
"image-keyboard-response","568","678720","0.0-4.0-2.182","10","Low_HMMActual","null","","","","Images/BlackBeadChoiceWrong.png","null"
"image-keyboard-response","569","679083","0.0-4.0-0.183","10","Low_HMMActual","360.98499999928754","","","","Images/NewTrialWC.png","39"
"image-keyboard-response","570","679486","0.0-4.0-1.183","10","Low_HMMActual","null","","","","Images/WhiteBeadChoice.png","null"
"image-keyboard-response","571","680202","0.0-4.0-2.183","10","Low_HMMActual","null","","","","Images/WhiteBeadChoiceCorrect.png","null"
"image-keyboard-response","572","680344","0.0-4.0-0.184","10","Low_HMMActual","138.45000000030268","","","","Images/NewTrialWC.png","39"
"image-keyboard-response","573","680758","0.0-4.0-1.184","10","Low_HMMActual","null","","","","Images/WhiteBeadChoice.png","null"
"image-keyboard-response","574","681473","0.0-4.0-2.184","10","Low_HMMActual","null","","","","Images/WhiteBeadChoiceWrong.png","null"
"image-keyboard-response","575","681872","0.0-4.0-0.185","10","Low_HMMActual","396.41499999922235","","","","Images/NewTrialBC.png","39"
"image-keyboard-response","576","682279","0.0-4.0-1.185","10","Low_HMMActual","null","","","","Images/WhiteBeadChoice.png","null"
"image-keyboard-response","577","682983","0.0-4.0-2.185","10","Low_HMMActual","null","","","","Images/WhiteBeadChoiceCorrect.png","null"
"image-keyboard-response","578","683266","0.0-4.0-0.186","10","Low_HMMActual","279.8700000003446","","","","Images/NewTrialWC.png","37"
"image-keyboard-response","579","683681","0.0-4.0-1.186","10","Low_HMMActual","null","","","","Images/BlackBeadChoice.png","null"
"image-keyboard-response","580","684398","0.0-4.0-2.186","10","Low_HMMActual","null","","","","Images/BlackBeadChoiceWrong.png","null"
"image-keyboard-response","581","684678","0.0-4.0-0.187","10","Low_HMMActual","277.69499999890104","","","","Images/NewTrialWC.png","39"
"image-keyboard-response","582","685094","0.0-4.0-1.187","10","Low_HMMActual","null","","","","Images/WhiteBeadChoice.png","null"
"image-keyboard-response","583","685800","0.0-4.0-2.187","10","Low_HMMActual","null","","","","Images/WhiteBeadChoiceCorrect.png","null"
"image-keyboard-response","584","686045","0.0-4.0-0.188","10","Low_HMMActual","242.96499999938533","","","","Images/NewTrialWC.png","37"
"image-keyboard-response","585","686452","0.0-4.0-1.188","10","Low_HMMActual","null","","","","Images/BlackBeadChoice.png","null"
"image-keyboard-response","586","687161","0.0-4.0-2.188","10","Low_HMMActual","null","","","","Images/BlackBeadChoiceWrong.png","null"
"image-keyboard-response","587","687761","0.0-4.0-0.189","10","Low_HMMActual","596.9950000017416","","","","Images/NewTrialWC.png","39"
"image-keyboard-response","588","688165","0.0-4.0-1.189","10","Low_HMMActual","null","","","","Images/WhiteBeadChoice.png","null"
"image-keyboard-response","589","688871","0.0-4.0-2.189","10","Low_HMMActual","null","","","","Images/WhiteBeadChoiceCorrect.png","null"
"image-keyboard-response","590","688972","0.0-4.0-0.190","10","Low_HMMActual","98.44999999948777","","","","Images/NewTrialWC.png","39"
"image-keyboard-response","591","689384","0.0-4.0-1.190","10","Low_HMMActual","null","","","","Images/WhiteBeadChoice.png","null"
"image-keyboard-response","592","690095","0.0-4.0-2.190","10","Low_HMMActual","null","","","","Images/WhiteBeadChoiceCorrect.png","null"
"image-keyboard-response","593","690296","0.0-4.0-0.191","10","Low_HMMActual","198.16499999980442","","","","Images/NewTrialWC.png","39"
"image-keyboard-response","594","690701","0.0-4.0-1.191","10","Low_HMMActual","null","","","","Images/WhiteBeadChoice.png","null"
"image-keyboard-response","595","691412","0.0-4.0-2.191","10","Low_HMMActual","null","","","","Images/WhiteBeadChoiceWrong.png","null"
"image-keyboard-response","596","691817","0.0-4.0-0.192","10","Low_HMMActual","402.3099999994738","","","","Images/NewTrialBC.png","37"
"image-keyboard-response","597","692230","0.0-4.0-1.192","10","Low_HMMActual","null","","","","Images/BlackBeadChoice.png","null"
"image-keyboard-response","598","692938","0.0-4.0-2.192","10","Low_HMMActual","null","","","","Images/BlackBeadChoiceWrong.png","null"
"image-keyboard-response","599","693280","0.0-4.0-0.193","10","Low_HMMActual","339.7150000000838","","","","Images/NewTrialWC.png","39"
"image-keyboard-response","600","693696","0.0-4.0-1.193","10","Low_HMMActual","null","","","","Images/WhiteBeadChoice.png","null"
"image-keyboard-response","601","694402","0.0-4.0-2.193","10","Low_HMMActual","null","","","","Images/WhiteBeadChoiceWrong.png","null"
"image-keyboard-response","602","695019","0.0-4.0-0.194","10","Low_HMMActual","615.0299999989802","","","","Images/NewTrialBC.png","39"
"image-keyboard-response","603","695431","0.0-4.0-1.194","10","Low_HMMActual","null","","","","Images/WhiteBeadChoice.png","null"
"image-keyboard-response","604","696139","0.0-4.0-2.194","10","Low_HMMActual","null","","","","Images/WhiteBeadChoiceCorrect.png","null"
"image-keyboard-response","605","696326","0.0-4.0-0.195","10","Low_HMMActual","184.4849999997532","","","","Images/NewTrialWC.png","37"
"image-keyboard-response","606","696741","0.0-4.0-1.195","10","Low_HMMActual","null","","","","Images/BlackBeadChoice.png","null"
"image-keyboard-response","607","697453","0.0-4.0-2.195","10","Low_HMMActual","null","","","","Images/BlackBeadChoiceCorrect.png","null"
"image-keyboard-response","608","697702","0.0-4.0-0.196","10","Low_HMMActual","246.4649999983376","","","","Images/NewTrialBC.png","37"
"image-keyboard-response","609","698106","0.0-4.0-1.196","10","Low_HMMActual","null","","","","Images/BlackBeadChoice.png","null"
"image-keyboard-response","610","698815","0.0-4.0-2.196","10","Low_HMMActual","null","","","","Images/BlackBeadChoiceWrong.png","null"
"image-keyboard-response","611","699103","0.0-4.0-0.197","10","Low_HMMActual","285.14999999967404","","","","Images/NewTrialWC.png","39"
"image-keyboard-response","612","699506","0.0-4.0-1.197","10","Low_HMMActual","null","","","","Images/WhiteBeadChoice.png","null"
"image-keyboard-response","613","700210","0.0-4.0-2.197","10","Low_HMMActual","null","","","","Images/WhiteBeadChoiceCorrect.png","null"
"image-keyboard-response","614","700451","0.0-4.0-0.198","10","Low_HMMActual","238.72500000102445","","","","Images/NewTrialWC.png","39"
"image-keyboard-response","615","700854","0.0-4.0-1.198","10","Low_HMMActual","null","","","","Images/WhiteBeadChoice.png","null"
"image-keyboard-response","616","701565","0.0-4.0-2.198","10","Low_HMMActual","null","","","","Images/WhiteBeadChoiceCorrect.png","null"
"image-keyboard-response","617","706309","0.0-4.0-0.199","10","Low_HMMActual","4742.184999999125","","","","Images/NewTrialWC.png","39"
"image-keyboard-response","618","706712","0.0-4.0-1.199","10","Low_HMMActual","null","","","","Images/WhiteBeadChoice.png","null"
"image-keyboard-response","619","707431","0.0-4.0-2.199","10","Low_HMMActual","null","","","","Images/WhiteBeadChoiceCorrect.png","null"
"image-keyboard-response","620","716093","0.0-4.0-0.200","10","Low_HMMActual","8660.110000000685","","","","Images/NewTrialWC.png","39"
"image-keyboard-response","621","716496","0.0-4.0-1.200","10","Low_HMMActual","null","","","","Images/WhiteBeadChoice.png","null"
"image-keyboard-response","622","717201","0.0-4.0-2.200","10","Low_HMMActual","null","","","","Images/WhiteBeadChoiceCorrect.png","null"
"image-keyboard-response","623","717561","0.0-4.0-0.201","10","Low_HMMActual","357.6799999991199","","","","Images/NewTrialWC.png","39"
"image-keyboard-response","624","717968","0.0-4.0-1.201","10","Low_HMMActual","null","","","","Images/WhiteBeadChoice.png","null"
"image-keyboard-response","625","718676","0.0-4.0-2.201","10","Low_HMMActual","null","","","","Images/WhiteBeadChoiceWrong.png","null"
"image-keyboard-response","626","719518","0.0-4.0-0.202","10","Low_HMMActual","839.6499999999069","","","","Images/NewTrialBC.png","39"
"image-keyboard-response","627","719933","0.0-4.0-1.202","10","Low_HMMActual","null","","","","Images/WhiteBeadChoice.png","null"
"image-keyboard-response","628","720639","0.0-4.0-2.202","10","Low_HMMActual","null","","","","Images/WhiteBeadChoiceCorrect.png","null"
"image-keyboard-response","629","722944","0.0-4.0-0.203","10","Low_HMMActual","2300.284999999334","","","","Images/NewTrialWC.png","39"
"image-keyboard-response","630","723347","0.0-4.0-1.203","10","Low_HMMActual","null","","","","Images/WhiteBeadChoice.png","null"
"image-keyboard-response","631","724060","0.0-4.0-2.203","10","Low_HMMActual","null","","","","Images/WhiteBeadChoiceCorrect.png","null"
"image-keyboard-response","632","724908","0.0-4.0-0.204","10","Low_HMMActual","845.0800000008894","","","","Images/NewTrialWC.png","39"
"image-keyboard-response","633","725315","0.0-4.0-1.204","10","Low_HMMActual","null","","","","Images/WhiteBeadChoice.png","null"
"image-keyboard-response","634","726018","0.0-4.0-2.204","10","Low_HMMActual","null","","","","Images/WhiteBeadChoiceCorrect.png","null"
"image-keyboard-response","635","726847","0.0-4.0-0.205","10","Low_HMMActual","826.0799999989104","","","","Images/NewTrialWC.png","39"
"image-keyboard-response","636","727258","0.0-4.0-1.205","10","Low_HMMActual","null","","","","Images/WhiteBeadChoice.png","null"
"image-keyboard-response","637","727961","0.0-4.0-2.205","10","Low_HMMActual","null","","","","Images/WhiteBeadChoiceCorrect.png","null"
"image-keyboard-response","638","729254","0.0-4.0-0.206","10","Low_HMMActual","1291.2649999997811","","","","Images/NewTrialWC.png","39"
"image-keyboard-response","639","729656","0.0-4.0-1.206","10","Low_HMMActual","null","","","","Images/WhiteBeadChoice.png","null"
"image-keyboard-response","640","730373","0.0-4.0-2.206","10","Low_HMMActual","null","","","","Images/WhiteBeadChoiceWrong.png","null"
"image-keyboard-response","641","731125","0.0-4.0-0.207","10","Low_HMMActual","751.0300000011921","","","","Images/NewTrialBC.png","39"
"image-keyboard-response","642","731533","0.0-4.0-1.207","10","Low_HMMActual","null","","","","Images/WhiteBeadChoice.png","null"
"image-keyboard-response","643","732242","0.0-4.0-2.207","10","Low_HMMActual","null","","","","Images/WhiteBeadChoiceCorrect.png","null"
"image-keyboard-response","644","732981","0.0-4.0-0.208","10","Low_HMMActual","736.5850000005448","","","","Images/NewTrialWC.png","37"
"image-keyboard-response","645","733384","0.0-4.0-1.208","10","Low_HMMActual","null","","","","Images/BlackBeadChoice.png","null"
"image-keyboard-response","646","734091","0.0-4.0-2.208","10","Low_HMMActual","null","","","","Images/BlackBeadChoiceCorrect.png","null"
"image-keyboard-response","647","734513","0.0-4.0-0.209","10","Low_HMMActual","419.3849999991944","","","","Images/NewTrialBC.png","39"
"image-keyboard-response","648","734916","0.0-4.0-1.209","10","Low_HMMActual","null","","","","Images/WhiteBeadChoice.png","null"
"image-keyboard-response","649","735620","0.0-4.0-2.209","10","Low_HMMActual","null","","","","Images/WhiteBeadChoiceWrong.png","null"
"image-keyboard-response","650","735935","0.0-4.0-0.210","10","Low_HMMActual","311.4699999986915","","","","Images/NewTrialBC.png","37"
"image-keyboard-response","651","736344","0.0-4.0-1.210","10","Low_HMMActual","null","","","","Images/BlackBeadChoice.png","null"
"image-keyboard-response","652","737062","0.0-4.0-2.210","10","Low_HMMActual","null","","","","Images/BlackBeadChoiceCorrect.png","null"
"image-keyboard-response","653","737290","0.0-4.0-0.211","10","Low_HMMActual","225.21000000054482","","","","Images/NewTrialBC.png","37"
"image-keyboard-response","654","737697","0.0-4.0-1.211","10","Low_HMMActual","null","","","","Images/BlackBeadChoice.png","null"
"image-keyboard-response","655","738406","0.0-4.0-2.211","10","Low_HMMActual","null","","","","Images/BlackBeadChoiceCorrect.png","null"
"image-keyboard-response","656","738554","0.0-4.0-0.212","10","Low_HMMActual","146.18499999959022","","","","Images/NewTrialBC.png","37"
"image-keyboard-response","657","738970","0.0-4.0-1.212","10","Low_HMMActual","null","","","","Images/BlackBeadChoice.png","null"
"image-keyboard-response","658","739681","0.0-4.0-2.212","10","Low_HMMActual","null","","","","Images/BlackBeadChoiceCorrect.png","null"
"image-keyboard-response","659","739766","0.0-4.0-0.213","10","Low_HMMActual","82.8399999991525","","","","Images/NewTrialBC.png","37"
"image-keyboard-response","660","740173","0.0-4.0-1.213","10","Low_HMMActual","null","","","","Images/BlackBeadChoice.png","null"
"image-keyboard-response","661","740887","0.0-4.0-2.213","10","Low_HMMActual","null","","","","Images/BlackBeadChoiceWrong.png","null"
"image-keyboard-response","662","741155","0.0-4.0-0.214","10","Low_HMMActual","265.84499999985565","","","","Images/NewTrialWC.png","39"
"image-keyboard-response","663","741573","0.0-4.0-1.214","10","Low_HMMActual","null","","","","Images/WhiteBeadChoice.png","null"
"image-keyboard-response","664","742286","0.0-4.0-2.214","10","Low_HMMActual","null","","","","Images/WhiteBeadChoiceWrong.png","null"
"image-keyboard-response","665","742569","0.0-4.0-0.215","10","Low_HMMActual","280.7499999998836","","","","Images/NewTrialBC.png","37"
"image-keyboard-response","666","742981","0.0-4.0-1.215","10","Low_HMMActual","null","","","","Images/BlackBeadChoice.png","null"
"image-keyboard-response","667","743686","0.0-4.0-2.215","10","Low_HMMActual","null","","","","Images/BlackBeadChoiceCorrect.png","null"
"image-keyboard-response","668","743797","0.0-4.0-0.216","10","Low_HMMActual","108.56999999843538","","","","Images/NewTrialBC.png","37"
"image-keyboard-response","669","744207","0.0-4.0-1.216","10","Low_HMMActual","null","","","","Images/BlackBeadChoice.png","null"
"image-keyboard-response","670","744924","0.0-4.0-2.216","10","Low_HMMActual","null","","","","Images/BlackBeadChoiceCorrect.png","null"
"image-keyboard-response","671","744977","0.0-4.0-0.217","10","Low_HMMActual","51.339999999967404","","","","Images/NewTrialBC.png","37"
"image-keyboard-response","672","745379","0.0-4.0-1.217","10","Low_HMMActual","null","","","","Images/BlackBeadChoice.png","null"
"image-keyboard-response","673","746082","0.0-4.0-2.217","10","Low_HMMActual","null","","","","Images/BlackBeadChoiceCorrect.png","null"
"image-keyboard-response","674","746216","0.0-4.0-0.218","10","Low_HMMActual","130.70000000146683","","","","Images/NewTrialBC.png","37"
"image-keyboard-response","675","746624","0.0-4.0-1.218","10","Low_HMMActual","null","","","","Images/BlackBeadChoice.png","null"
"image-keyboard-response","676","747337","0.0-4.0-2.218","10","Low_HMMActual","null","","","","Images/BlackBeadChoiceWrong.png","null"
"image-keyboard-response","677","747593","0.0-4.0-0.219","10","Low_HMMActual","253.35499999893364","","","","Images/NewTrialWC.png","37"
"image-keyboard-response","678","748000","0.0-4.0-1.219","10","Low_HMMActual","null","","","","Images/BlackBeadChoice.png","null"
"image-keyboard-response","679","748708","0.0-4.0-2.219","10","Low_HMMActual","null","","","","Images/BlackBeadChoiceWrong.png","null"
"image-keyboard-response","680","748998","0.0-4.0-0.220","10","Low_HMMActual","288.0050000003539","","","","Images/NewTrialWC.png","39"
"image-keyboard-response","681","749401","0.0-4.0-1.220","10","Low_HMMActual","null","","","","Images/WhiteBeadChoice.png","null"
"image-keyboard-response","682","750119","0.0-4.0-2.220","10","Low_HMMActual","null","","","","Images/WhiteBeadChoiceWrong.png","null"
"image-keyboard-response","683","750417","0.0-4.0-0.221","10","Low_HMMActual","294.99000000033993","","","","Images/NewTrialBC.png","37"
"image-keyboard-response","684","750829","0.0-4.0-1.221","10","Low_HMMActual","null","","","","Images/BlackBeadChoice.png","null"
"image-keyboard-response","685","751531","0.0-4.0-2.221","10","Low_HMMActual","null","","","","Images/BlackBeadChoiceCorrect.png","null"
"image-keyboard-response","686","751773","0.0-4.0-0.222","10","Low_HMMActual","239.40999999828637","","","","Images/NewTrialBC.png","37"
"image-keyboard-response","687","752186","0.0-4.0-1.222","10","Low_HMMActual","null","","","","Images/BlackBeadChoice.png","null"
"image-keyboard-response","688","752891","0.0-4.0-2.222","10","Low_HMMActual","null","","","","Images/BlackBeadChoiceWrong.png","null"
"image-keyboard-response","689","753111","0.0-4.0-0.223","10","Low_HMMActual","216.91499999910593","","","","Images/NewTrialWC.png","37"
"image-keyboard-response","690","753514","0.0-4.0-1.223","10","Low_HMMActual","null","","","","Images/BlackBeadChoice.png","null"
"image-keyboard-response","691","754225","0.0-4.0-2.223","10","Low_HMMActual","null","","","","Images/BlackBeadChoiceCorrect.png","null"
"image-keyboard-response","692","754400","0.0-4.0-0.224","10","Low_HMMActual","171.53999999933876","","","","Images/NewTrialBC.png","37"
"image-keyboard-response","693","754810","0.0-4.0-1.224","10","Low_HMMActual","null","","","","Images/BlackBeadChoice.png","null"
"image-keyboard-response","694","755532","0.0-4.0-2.224","10","Low_HMMActual","null","","","","Images/BlackBeadChoiceCorrect.png","null"
"image-keyboard-response","695","755748","0.0-4.0-0.225","10","Low_HMMActual","212.22499999927823","","","","Images/NewTrialBC.png","37"
"image-keyboard-response","696","756167","0.0-4.0-1.225","10","Low_HMMActual","null","","","","Images/BlackBeadChoice.png","null"
"image-keyboard-response","697","756879","0.0-4.0-2.225","10","Low_HMMActual","null","","","","Images/BlackBeadChoiceCorrect.png","null"
"image-keyboard-response","698","757116","0.0-4.0-0.226","10","Low_HMMActual","235.8349999994971","","","","Images/NewTrialBC.png","37"
"image-keyboard-response","699","757530","0.0-4.0-1.226","10","Low_HMMActual","null","","","","Images/BlackBeadChoice.png","null"
"image-keyboard-response","700","758239","0.0-4.0-2.226","10","Low_HMMActual","null","","","","Images/BlackBeadChoiceCorrect.png","null"
"image-keyboard-response","701","758330","0.0-4.0-0.227","10","Low_HMMActual","87.84499999997206","","","","Images/NewTrialBC.png","37"
"image-keyboard-response","702","758733","0.0-4.0-1.227","10","Low_HMMActual","null","","","","Images/BlackBeadChoice.png","null"
"image-keyboard-response","703","759444","0.0-4.0-2.227","10","Low_HMMActual","null","","","","Images/BlackBeadChoiceCorrect.png","null"
"image-keyboard-response","704","759661","0.0-4.0-0.228","10","Low_HMMActual","212.83499999844935","","","","Images/NewTrialBC.png","37"
"image-keyboard-response","705","760067","0.0-4.0-1.228","10","Low_HMMActual","null","","","","Images/BlackBeadChoice.png","null"
"image-keyboard-response","706","760770","0.0-4.0-2.228","10","Low_HMMActual","null","","","","Images/BlackBeadChoiceCorrect.png","null"
"image-keyboard-response","707","761102","0.0-4.0-0.229","10","Low_HMMActual","329.28499999979977","","","","Images/NewTrialBC.png","37"
"image-keyboard-response","708","761515","0.0-4.0-1.229","10","Low_HMMActual","null","","","","Images/BlackBeadChoice.png","null"
"image-keyboard-response","709","762230","0.0-4.0-2.229","10","Low_HMMActual","null","","","","Images/BlackBeadChoiceWrong.png","null"
"image-keyboard-response","710","762625","0.0-4.0-0.230","10","Low_HMMActual","392.48499999847263","","","","Images/NewTrialWC.png","37"
"image-keyboard-response","711","763042","0.0-4.0-1.230","10","Low_HMMActual","null","","","","Images/BlackBeadChoice.png","null"
"image-keyboard-response","712","763753","0.0-4.0-2.230","10","Low_HMMActual","null","","","","Images/BlackBeadChoiceCorrect.png","null"
"image-keyboard-response","713","763993","0.0-4.0-0.231","10","Low_HMMActual","238.65499999921303","","","","Images/NewTrialBC.png","37"
"image-keyboard-response","714","764398","0.0-4.0-1.231","10","Low_HMMActual","null","","","","Images/BlackBeadChoice.png","null"
"image-keyboard-response","715","765113","0.0-4.0-2.231","10","Low_HMMActual","null","","","","Images/BlackBeadChoiceCorrect.png","null"
"image-keyboard-response","716","765344","0.0-4.0-0.232","10","Low_HMMActual","229.69000000006054","","","","Images/NewTrialBC.png","37"
"image-keyboard-response","717","765747","0.0-4.0-1.232","10","Low_HMMActual","null","","","","Images/BlackBeadChoice.png","null"
"image-keyboard-response","718","766451","0.0-4.0-2.232","10","Low_HMMActual","null","","","","Images/BlackBeadChoiceCorrect.png","null"
"image-keyboard-response","719","766804","0.0-4.0-0.233","10","Low_HMMActual","349.75499999918975","","","","Images/NewTrialBC.png","37"
"image-keyboard-response","720","767209","0.0-4.0-1.233","10","Low_HMMActual","null","","","","Images/BlackBeadChoice.png","null"
"image-keyboard-response","721","767922","0.0-4.0-2.233","10","Low_HMMActual","null","","","","Images/BlackBeadChoiceCorrect.png","null"
