"trial_type","trial_index","time_elapsed","internal_node_id","Script_Picker","Block_Type","rt","url","responses","question_order","stimulus","key_press"
"pavlovia","0","8","0.0-0.0","13","High_HMMActual","","","","","",""
"external-html","1","343792","0.0-1.0-0.0","13","High_HMMActual","343529.8000000039","consent.html","","","",""
"survey-multi-choice","2","371934","0.0-1.0-1.0","13","High_HMMActual","28130.90000000375","","{""Q0"":""Female"",""Q1"":""American Indian or Alaskan Native""}","[0,1]","",""
"survey-text","3","409291","0.0-1.0-2.0","13","High_HMMActual","37345.39999999106","","{""Q0"":""32""}","","",""
"survey-text","4","425208","0.0-1.0-3.0","13","High_HMMActual","15808.99999999383","","{""Q0"":""5f0e458d61b751179515827e""}","","",""
"html-keyboard-response","5","609167","0.0-2.0-0.0","13","High_HMMActual","183852.89999999804","","","","<div class=""container"" style=""height:800px;width:800px;display:flex;flex-direction:column;justify-content:center;align-items:center;text-align:center;font-weight:normal;font-family:Arial;font-size:20px""><p>In this task you will see black or white beads being pulled from jars. <br><br>On each trial, a bead will be pulled from one of two jars. Once you see this bead, your goal is to predict the color of NEXT bead that will be pulled. <br> <br>Every time you correctly guess the color of the NEXT bead, you will get a point. <br><br>Press the SPACEBAR to continue.</p><div>","32"
"html-keyboard-response","6","626836","0.0-2.0-1.0","13","High_HMMActual","17666.700000001583","","","","<div class=""container"" style=""height:800px;width:800px;display:flex;flex-direction:column;justify-content:center;align-items:center;text-align:center;font-weight:normal;font-family:Arial;font-size:20px""><p>Jars are filled with 85% white or black beads and 15% of the opposite color mixed in<br><br>Press the SPACEBAR to continue. </p><div>","32"
"image-keyboard-response","7","638866","0.0-2.0-2.0","13","High_HMMActual","12021.500000002561","","","","resources/WhiteJar_HMM.png","32"
"image-keyboard-response","8","643847","0.0-2.0-3.0","13","High_HMMActual","4975.900000004913","","","","resources/BlackJar_HMM.png","32"
"html-keyboard-response","9","706111","0.0-2.0-4.0","13","High_HMMActual","62261.40000000305","","","","<div class=""container"" style=""height:800px;width:800px;display:flex;flex-direction:column;justify-content:center;align-items:center;text-align:center;font-weight:normal;font-family:Arial;font-size:20px""><p>There will be two blocks of trials. Each block will contain 500 trials. <br><br>Here are examples of what you will see on each trial.<br><br>Press the SPACEBAR to continue. </p><div>","32"
"image-keyboard-response","10","718397","0.0-2.0-5.0","13","High_HMMActual","12282.999999995809","","","","Images/NoChoice.png","32"
"html-keyboard-response","11","831361","0.0-2.0-6.0","13","High_HMMActual","112960.70000001055","","","","<div class=""container"" style=""height:800px;width:800px;display:flex;flex-direction:column;justify-content:center;align-items:center;text-align:center;font-weight:normal;font-family:Arial;font-size:20px""><p> The jar the beads are pulled from is NOT choosen at random on each trial.<br><br>After each prediction, there will be a chance that the jars will switch, and that the next bead will be pulled from the opposite jar as the previous trial.<br><br>In each block, the chance that a jar will switch will either be LOW (the jars will not switch very often), or HIGH (the jars will switch almost all the time).<br><br>At the start of each block, you will be told the probability that the jars will switch on each trial. This switch probability will stay constant throughout the block.<br><br>Press the SPACEBAR to continue. </p><div>","32"
"image-keyboard-response","12","853863","0.0-2.0-7.0","13","High_HMMActual","22498.600000006263","","","","Images/TutorialWhiteJarDrawHMMC.png","32"
"image-keyboard-response","13","856273","0.0-2.0-8.0","13","High_HMMActual","2405.399999988731","","","","Images/TutorialBlackJarDrawHMMC.png","32"
"image-keyboard-response","14","858501","0.0-2.0-9.0","13","High_HMMActual","2223.599999997532","","","","Images/TutorialBlackJarDrawHMMI.png","32"
"html-keyboard-response","15","951880","0.0-2.0-10.0","13","High_HMMActual","93375.89999999909","","","","<div class=""container"" style=""height:800px;width:800px;display:flex;flex-direction:column;justify-content:center;align-items:center;text-align:center;font-weight:normal;font-family:Arial;font-size:20px""><p> As you observed, a white bead was pulled from a 85% white jar, the jars switched and a black bead was pulled from the 85% black jar, but then low-probability white bead was pulled from the 90% black jar. <br><br>In these mixed-jar blocks, you will first have to figure out which jar the current bead was pulled from, then use the jar switch probability to predict the color of the next bead.<br><br>Press SPACEBAR to conitnue.</p><div>","32"
"html-keyboard-response","16","961223","0.0-2.0-11.0","13","High_HMMActual","9337.900000013178","","","","<div class=""container"" style=""height:800px;width:800px;display:flex;flex-direction:column;justify-content:center;align-items:center;text-align:center;font-weight:normal;font-family:Arial;font-size:20px""><p> You will now be given a 2 question quiz to make sure you understand the fundamentals. </p><div>","32"
"image-keyboard-response","17","1010717","0.0-2.0-12.0","13","High_HMMActual","49489.099999991595","","","","Images/TutorialQuestion1.png","39"
"image-keyboard-response","18","1089048","0.0-2.0-13.0","13","High_HMMActual","76158.19999999064","","","","Images/TutorialQuestion2.png","38"
"html-keyboard-response","19","1161884","0.0-3.0","13","High_HMMActual","71070.30000000657","","","","<div class=""container"" style=""height:800px;width:800px;display:flex;flex-direction:column;justify-content:center;align-items:center;text-align:center;font-weight:normal;font-family:Arial;font-size:20px""><p>Loading episode&hellip;</p><div>","32"
"image-keyboard-response","20","1175090","0.0-4.0-0.0","13","High_HMMActual","13200.899999996182","","","","Images/NoChoice.png","37"
"image-keyboard-response","21","1175345","0.0-4.0-1.0","13","High_HMMActual","null","","","","Images/BlackBeadChoice.png","null"
"image-keyboard-response","22","1175850","0.0-4.0-2.0","13","High_HMMActual","null","","","","Images/BlackBeadChoiceWrong.png","null"
"image-keyboard-response","23","1186584","0.0-4.0-0.1","13","High_HMMActual","10725.89999999036","","","","Images/NewTrialWC.png","39"
"image-keyboard-response","24","1186837","0.0-4.0-1.1","13","High_HMMActual","null","","","","Images/WhiteBeadChoice.png","null"
"image-keyboard-response","25","1187341","0.0-4.0-2.1","13","High_HMMActual","null","","","","Images/WhiteBeadChoiceWrong.png","null"
"image-keyboard-response","26","1191557","0.0-4.0-0.2","13","High_HMMActual","4209.999999992084","","","","Images/NewTrialBC.png","37"
"image-keyboard-response","27","1191811","0.0-4.0-1.2","13","High_HMMActual","null","","","","Images/BlackBeadChoice.png","null"
"image-keyboard-response","28","1192314","0.0-4.0-2.2","13","High_HMMActual","null","","","","Images/BlackBeadChoiceCorrect.png","null"
"image-keyboard-response","29","1194749","0.0-4.0-0.3","13","High_HMMActual","2432.3000000005122","","","","Images/NewTrialBC.png","39"
"image-keyboard-response","30","1195003","0.0-4.0-1.3","13","High_HMMActual","null","","","","Images/WhiteBeadChoice.png","null"
"image-keyboard-response","31","1195506","0.0-4.0-2.3","13","High_HMMActual","null","","","","Images/WhiteBeadChoiceCorrect.png","null"
"image-keyboard-response","32","1197440","0.0-4.0-0.4","13","High_HMMActual","1930.599999992177","","","","Images/NewTrialWC.png","37"
"image-keyboard-response","33","1197693","0.0-4.0-1.4","13","High_HMMActual","null","","","","Images/BlackBeadChoice.png","null"
"image-keyboard-response","34","1198198","0.0-4.0-2.4","13","High_HMMActual","null","","","","Images/BlackBeadChoiceWrong.png","null"
"image-keyboard-response","35","1202614","0.0-4.0-0.5","13","High_HMMActual","4409.400000004098","","","","Images/NewTrialWC.png","37"
"image-keyboard-response","36","1202867","0.0-4.0-1.5","13","High_HMMActual","null","","","","Images/BlackBeadChoice.png","null"
"image-keyboard-response","37","1203371","0.0-4.0-2.5","13","High_HMMActual","null","","","","Images/BlackBeadChoiceWrong.png","null"
"image-keyboard-response","38","1205756","0.0-4.0-0.6","13","High_HMMActual","2381.599999993341","","","","Images/NewTrialWC.png","37"
"image-keyboard-response","39","1206009","0.0-4.0-1.6","13","High_HMMActual","null","","","","Images/BlackBeadChoice.png","null"
"image-keyboard-response","40","1206512","0.0-4.0-2.6","13","High_HMMActual","null","","","","Images/BlackBeadChoiceCorrect.png","null"
"image-keyboard-response","41","1207836","0.0-4.0-0.7","13","High_HMMActual","1318.899999998277","","","","Images/NewTrialBC.png","39"
"image-keyboard-response","42","1208089","0.0-4.0-1.7","13","High_HMMActual","null","","","","Images/WhiteBeadChoice.png","null"
"image-keyboard-response","43","1208593","0.0-4.0-2.7","13","High_HMMActual","null","","","","Images/WhiteBeadChoiceCorrect.png","null"
"image-keyboard-response","44","1212422","0.0-4.0-0.8","13","High_HMMActual","3826.899999999907","","","","Images/NewTrialWC.png","39"
"image-keyboard-response","45","1212676","0.0-4.0-1.8","13","High_HMMActual","null","","","","Images/WhiteBeadChoice.png","null"
"image-keyboard-response","46","1213181","0.0-4.0-2.8","13","High_HMMActual","null","","","","Images/WhiteBeadChoiceWrong.png","null"
"image-keyboard-response","47","1214603","0.0-4.0-0.9","13","High_HMMActual","1418.7000000092667","","","","Images/NewTrialBC.png","37"
"image-keyboard-response","48","1214857","0.0-4.0-1.9","13","High_HMMActual","null","","","","Images/BlackBeadChoice.png","null"
"image-keyboard-response","49","1215367","0.0-4.0-2.9","13","High_HMMActual","null","","","","Images/BlackBeadChoiceWrong.png","null"
"image-keyboard-response","50","1216682","0.0-4.0-0.10","13","High_HMMActual","1307.6000000000931","","","","Images/NewTrialWC.png","37"
"image-keyboard-response","51","1216936","0.0-4.0-1.10","13","High_HMMActual","null","","","","Images/BlackBeadChoice.png","null"
"image-keyboard-response","52","1217439","0.0-4.0-2.10","13","High_HMMActual","null","","","","Images/BlackBeadChoiceCorrect.png","null"
"image-keyboard-response","53","1219024","0.0-4.0-0.11","13","High_HMMActual","1582.1999999897089","","","","Images/NewTrialBC.png","39"
"image-keyboard-response","54","1219276","0.0-4.0-1.11","13","High_HMMActual","null","","","","Images/WhiteBeadChoice.png","null"
"image-keyboard-response","55","1219780","0.0-4.0-2.11","13","High_HMMActual","null","","","","Images/WhiteBeadChoiceCorrect.png","null"
"image-keyboard-response","56","1220870","0.0-4.0-0.12","13","High_HMMActual","1087.7999999937601","","","","Images/NewTrialWC.png","37"
"image-keyboard-response","57","1221123","0.0-4.0-1.12","13","High_HMMActual","null","","","","Images/BlackBeadChoice.png","null"
"image-keyboard-response","58","1221628","0.0-4.0-2.12","13","High_HMMActual","null","","","","Images/BlackBeadChoiceCorrect.png","null"
"image-keyboard-response","59","1222467","0.0-4.0-0.13","13","High_HMMActual","836.5000000048894","","","","Images/NewTrialBC.png","39"
"image-keyboard-response","60","1222721","0.0-4.0-1.13","13","High_HMMActual","null","","","","Images/WhiteBeadChoice.png","null"
"image-keyboard-response","61","1223226","0.0-4.0-2.13","13","High_HMMActual","null","","","","Images/WhiteBeadChoiceCorrect.png","null"
"image-keyboard-response","62","1223714","0.0-4.0-0.14","13","High_HMMActual","485.40000000502914","","","","Images/NewTrialWC.png","37"
"image-keyboard-response","63","1223966","0.0-4.0-1.14","13","High_HMMActual","null","","","","Images/BlackBeadChoice.png","null"
"image-keyboard-response","64","1224470","0.0-4.0-2.14","13","High_HMMActual","null","","","","Images/BlackBeadChoiceCorrect.png","null"
"image-keyboard-response","65","1226258","0.0-4.0-0.15","13","High_HMMActual","1781.3000000023749","","","","Images/NewTrialBC.png","39"
"image-keyboard-response","66","1226512","0.0-4.0-1.15","13","High_HMMActual","null","","","","Images/WhiteBeadChoice.png","null"
"image-keyboard-response","67","1227015","0.0-4.0-2.15","13","High_HMMActual","null","","","","Images/WhiteBeadChoiceCorrect.png","null"
"image-keyboard-response","68","1228221","0.0-4.0-0.16","13","High_HMMActual","1202.7999999991152","","","","Images/NewTrialWC.png","37"
"image-keyboard-response","69","1228477","0.0-4.0-1.16","13","High_HMMActual","null","","","","Images/BlackBeadChoice.png","null"
"image-keyboard-response","70","1228979","0.0-4.0-2.16","13","High_HMMActual","null","","","","Images/BlackBeadChoiceCorrect.png","null"
"image-keyboard-response","71","1234174","0.0-4.0-0.17","13","High_HMMActual","5192.399999999907","","","","Images/NewTrialBC.png","39"
"image-keyboard-response","72","1234428","0.0-4.0-1.17","13","High_HMMActual","null","","","","Images/WhiteBeadChoice.png","null"
"image-keyboard-response","73","1234931","0.0-4.0-2.17","13","High_HMMActual","null","","","","Images/WhiteBeadChoiceWrong.png","null"
"image-keyboard-response","74","1236986","0.0-4.0-0.18","13","High_HMMActual","2051.800000000978","","","","Images/NewTrialBC.png","39"
"image-keyboard-response","75","1237239","0.0-4.0-1.18","13","High_HMMActual","null","","","","Images/WhiteBeadChoice.png","null"
"image-keyboard-response","76","1237744","0.0-4.0-2.18","13","High_HMMActual","null","","","","Images/WhiteBeadChoiceWrong.png","null"
"image-keyboard-response","77","1240444","0.0-4.0-0.19","13","High_HMMActual","2696.700000000419","","","","Images/NewTrialBC.png","39"
"image-keyboard-response","78","1240698","0.0-4.0-1.19","13","High_HMMActual","null","","","","Images/WhiteBeadChoice.png","null"
"image-keyboard-response","79","1241201","0.0-4.0-2.19","13","High_HMMActual","null","","","","Images/WhiteBeadChoiceWrong.png","null"
"image-keyboard-response","80","1241823","0.0-4.0-0.20","13","High_HMMActual","619.2000000008848","","","","Images/NewTrialBC.png","39"
"image-keyboard-response","81","1242076","0.0-4.0-1.20","13","High_HMMActual","null","","","","Images/WhiteBeadChoice.png","null"
"image-keyboard-response","82","1242579","0.0-4.0-2.20","13","High_HMMActual","null","","","","Images/WhiteBeadChoiceWrong.png","null"
"image-keyboard-response","83","1242604","0.0-4.0-0.21","13","High_HMMActual","22.700000001350418","","","","Images/NewTrialBC.png","39"
"image-keyboard-response","84","1242857","0.0-4.0-1.21","13","High_HMMActual","null","","","","Images/WhiteBeadChoice.png","null"
"image-keyboard-response","85","1243359","0.0-4.0-2.21","13","High_HMMActual","null","","","","Images/WhiteBeadChoiceCorrect.png","null"
"image-keyboard-response","86","1245566","0.0-4.0-0.22","13","High_HMMActual","2203.899999992922","","","","Images/NewTrialWC.png","37"
"image-keyboard-response","87","1245820","0.0-4.0-1.22","13","High_HMMActual","null","","","","Images/BlackBeadChoice.png","null"
"image-keyboard-response","88","1246324","0.0-4.0-2.22","13","High_HMMActual","null","","","","Images/BlackBeadChoiceCorrect.png","null"
"image-keyboard-response","89","1247711","0.0-4.0-0.23","13","High_HMMActual","1383.899999985937","","","","Images/NewTrialBC.png","39"
"image-keyboard-response","90","1247964","0.0-4.0-1.23","13","High_HMMActual","null","","","","Images/WhiteBeadChoice.png","null"
"image-keyboard-response","91","1248467","0.0-4.0-2.23","13","High_HMMActual","null","","","","Images/WhiteBeadChoiceCorrect.png","null"
"image-keyboard-response","92","1249106","0.0-4.0-0.24","13","High_HMMActual","636.2000000081025","","","","Images/NewTrialWC.png","37"
"image-keyboard-response","93","1249358","0.0-4.0-1.24","13","High_HMMActual","null","","","","Images/BlackBeadChoice.png","null"
"image-keyboard-response","94","1249861","0.0-4.0-2.24","13","High_HMMActual","null","","","","Images/BlackBeadChoiceWrong.png","null"
"image-keyboard-response","95","1250670","0.0-4.0-0.25","13","High_HMMActual","806.7000000008848","","","","Images/NewTrialWC.png","39"
"image-keyboard-response","96","1250922","0.0-4.0-1.25","13","High_HMMActual","null","","","","Images/WhiteBeadChoice.png","null"
"image-keyboard-response","97","1251426","0.0-4.0-2.25","13","High_HMMActual","null","","","","Images/WhiteBeadChoiceCorrect.png","null"
"image-keyboard-response","98","1252052","0.0-4.0-0.26","13","High_HMMActual","622.6000000024214","","","","Images/NewTrialWC.png","37"
"image-keyboard-response","99","1252304","0.0-4.0-1.26","13","High_HMMActual","null","","","","Images/BlackBeadChoice.png","null"
"image-keyboard-response","100","1252807","0.0-4.0-2.26","13","High_HMMActual","null","","","","Images/BlackBeadChoiceWrong.png","null"
"image-keyboard-response","101","1253051","0.0-4.0-0.27","13","High_HMMActual","240.0000000053551","","","","Images/NewTrialWC.png","37"
"image-keyboard-response","102","1253304","0.0-4.0-1.27","13","High_HMMActual","null","","","","Images/BlackBeadChoice.png","null"
"image-keyboard-response","103","1253808","0.0-4.0-2.27","13","High_HMMActual","null","","","","Images/BlackBeadChoiceWrong.png","null"
"image-keyboard-response","104","1254378","0.0-4.0-0.28","13","High_HMMActual","563.0000000090804","","","","Images/NewTrialWC.png","37"
"image-keyboard-response","105","1254631","0.0-4.0-1.28","13","High_HMMActual","null","","","","Images/BlackBeadChoice.png","null"
"image-keyboard-response","106","1255135","0.0-4.0-2.28","13","High_HMMActual","null","","","","Images/BlackBeadChoiceCorrect.png","null"
"image-keyboard-response","107","1255743","0.0-4.0-0.29","13","High_HMMActual","605.5000000051223","","","","Images/NewTrialBC.png","39"
"image-keyboard-response","108","1255996","0.0-4.0-1.29","13","High_HMMActual","null","","","","Images/WhiteBeadChoice.png","null"
"image-keyboard-response","109","1256499","0.0-4.0-2.29","13","High_HMMActual","null","","","","Images/WhiteBeadChoiceCorrect.png","null"
"image-keyboard-response","110","1257006","0.0-4.0-0.30","13","High_HMMActual","504.5000000100117","","","","Images/NewTrialWC.png","37"
"image-keyboard-response","111","1257259","0.0-4.0-1.30","13","High_HMMActual","null","","","","Images/BlackBeadChoice.png","null"
"image-keyboard-response","112","1257763","0.0-4.0-2.30","13","High_HMMActual","null","","","","Images/BlackBeadChoiceCorrect.png","null"
"image-keyboard-response","113","1258569","0.0-4.0-0.31","13","High_HMMActual","803.7999999942258","","","","Images/NewTrialBC.png","39"
"image-keyboard-response","114","1258822","0.0-4.0-1.31","13","High_HMMActual","null","","","","Images/WhiteBeadChoice.png","null"
"image-keyboard-response","115","1259325","0.0-4.0-2.31","13","High_HMMActual","null","","","","Images/WhiteBeadChoiceWrong.png","null"
"image-keyboard-response","116","1260783","0.0-4.0-0.32","13","High_HMMActual","1454.899999997113","","","","Images/NewTrialBC.png","39"
"image-keyboard-response","117","1261036","0.0-4.0-1.32","13","High_HMMActual","null","","","","Images/WhiteBeadChoice.png","null"
"image-keyboard-response","118","1261540","0.0-4.0-2.32","13","High_HMMActual","null","","","","Images/WhiteBeadChoiceWrong.png","null"
"image-keyboard-response","119","1261696","0.0-4.0-0.33","13","High_HMMActual","153.30000000540167","","","","Images/NewTrialBC.png","39"
"image-keyboard-response","120","1261949","0.0-4.0-1.33","13","High_HMMActual","null","","","","Images/WhiteBeadChoice.png","null"
"image-keyboard-response","121","1262453","0.0-4.0-2.33","13","High_HMMActual","null","","","","Images/WhiteBeadChoiceCorrect.png","null"
"image-keyboard-response","122","1263094","0.0-4.0-0.34","13","High_HMMActual","636.8999999978114","","","","Images/NewTrialWC.png","37"
"image-keyboard-response","123","1263346","0.0-4.0-1.34","13","High_HMMActual","null","","","","Images/BlackBeadChoice.png","null"
"image-keyboard-response","124","1263849","0.0-4.0-2.34","13","High_HMMActual","null","","","","Images/BlackBeadChoiceCorrect.png","null"
"image-keyboard-response","125","1264689","0.0-4.0-0.35","13","High_HMMActual","835.5000000009313","","","","Images/NewTrialBC.png","37"
"image-keyboard-response","126","1264941","0.0-4.0-1.35","13","High_HMMActual","null","","","","Images/BlackBeadChoice.png","null"
"image-keyboard-response","127","1265444","0.0-4.0-2.35","13","High_HMMActual","null","","","","Images/BlackBeadChoiceWrong.png","null"
"image-keyboard-response","128","1268335","0.0-4.0-0.36","13","High_HMMActual","2884.200000000419","","","","Images/NewTrialWC.png","37"
"image-keyboard-response","129","1268588","0.0-4.0-1.36","13","High_HMMActual","null","","","","Images/BlackBeadChoice.png","null"
"image-keyboard-response","130","1269092","0.0-4.0-2.36","13","High_HMMActual","null","","","","Images/BlackBeadChoiceCorrect.png","null"
"image-keyboard-response","131","1269945","0.0-4.0-0.37","13","High_HMMActual","850.5000000004657","","","","Images/NewTrialBC.png","39"
"image-keyboard-response","132","1270199","0.0-4.0-1.37","13","High_HMMActual","null","","","","Images/WhiteBeadChoice.png","null"
"image-keyboard-response","133","1270703","0.0-4.0-2.37","13","High_HMMActual","null","","","","Images/WhiteBeadChoiceCorrect.png","null"
"image-keyboard-response","134","1271791","0.0-4.0-0.38","13","High_HMMActual","1084.1000000075437","","","","Images/NewTrialWC.png","37"
"image-keyboard-response","135","1272045","0.0-4.0-1.38","13","High_HMMActual","null","","","","Images/BlackBeadChoice.png","null"
"image-keyboard-response","136","1272547","0.0-4.0-2.38","13","High_HMMActual","null","","","","Images/BlackBeadChoiceCorrect.png","null"
"image-keyboard-response","137","1275800","0.0-4.0-0.39","13","High_HMMActual","3249.300000010524","","","","Images/NewTrialBC.png","39"
"image-keyboard-response","138","1276054","0.0-4.0-1.39","13","High_HMMActual","null","","","","Images/WhiteBeadChoice.png","null"
"image-keyboard-response","139","1276558","0.0-4.0-2.39","13","High_HMMActual","null","","","","Images/WhiteBeadChoiceCorrect.png","null"
"image-keyboard-response","140","1278191","0.0-4.0-0.40","13","High_HMMActual","1629.8000000098255","","","","Images/NewTrialWC.png","37"
"image-keyboard-response","141","1278443","0.0-4.0-1.40","13","High_HMMActual","null","","","","Images/BlackBeadChoice.png","null"
"image-keyboard-response","142","1278947","0.0-4.0-2.40","13","High_HMMActual","null","","","","Images/BlackBeadChoiceCorrect.png","null"
"image-keyboard-response","143","1281370","0.0-4.0-0.41","13","High_HMMActual","2420.599999997532","","","","Images/NewTrialBC.png","39"
"image-keyboard-response","144","1281623","0.0-4.0-1.41","13","High_HMMActual","null","","","","Images/WhiteBeadChoice.png","null"
"image-keyboard-response","145","1282128","0.0-4.0-2.41","13","High_HMMActual","null","","","","Images/WhiteBeadChoiceCorrect.png","null"
"image-keyboard-response","146","1282731","0.0-4.0-0.42","13","High_HMMActual","600.2000000006519","","","","Images/NewTrialWC.png","37"
"image-keyboard-response","147","1282985","0.0-4.0-1.42","13","High_HMMActual","null","","","","Images/BlackBeadChoice.png","null"
"image-keyboard-response","148","1283488","0.0-4.0-2.42","13","High_HMMActual","null","","","","Images/BlackBeadChoiceCorrect.png","null"
"image-keyboard-response","149","1284246","0.0-4.0-0.43","13","High_HMMActual","755.2000000141561","","","","Images/NewTrialBC.png","39"
"image-keyboard-response","150","1284499","0.0-4.0-1.43","13","High_HMMActual","null","","","","Images/WhiteBeadChoice.png","null"
"image-keyboard-response","151","1285004","0.0-4.0-2.43","13","High_HMMActual","null","","","","Images/WhiteBeadChoiceWrong.png","null"
"image-keyboard-response","152","1285177","0.0-4.0-0.44","13","High_HMMActual","170.2999999979511","","","","Images/NewTrialBC.png","39"
"image-keyboard-response","153","1285429","0.0-4.0-1.44","13","High_HMMActual","null","","","","Images/WhiteBeadChoice.png","null"
"image-keyboard-response","154","1285933","0.0-4.0-2.44","13","High_HMMActual","null","","","","Images/WhiteBeadChoiceWrong.png","null"
"image-keyboard-response","155","1285976","0.0-4.0-0.45","13","High_HMMActual","35.499999998137355","","","","Images/NewTrialBC.png","39"
"image-keyboard-response","156","1286232","0.0-4.0-1.45","13","High_HMMActual","null","","","","Images/WhiteBeadChoice.png","null"
"image-keyboard-response","157","1286736","0.0-4.0-2.45","13","High_HMMActual","null","","","","Images/WhiteBeadChoiceCorrect.png","null"
"image-keyboard-response","158","1287272","0.0-4.0-0.46","13","High_HMMActual","532.0999999968335","","","","Images/NewTrialWC.png","37"
"image-keyboard-response","159","1287525","0.0-4.0-1.46","13","High_HMMActual","null","","","","Images/BlackBeadChoice.png","null"
"image-keyboard-response","160","1288029","0.0-4.0-2.46","13","High_HMMActual","null","","","","Images/BlackBeadChoiceCorrect.png","null"
"image-keyboard-response","161","1288870","0.0-4.0-0.47","13","High_HMMActual","836.9999999995343","","","","Images/NewTrialBC.png","39"
"image-keyboard-response","162","1289123","0.0-4.0-1.47","13","High_HMMActual","null","","","","Images/WhiteBeadChoice.png","null"
"image-keyboard-response","163","1289628","0.0-4.0-2.47","13","High_HMMActual","null","","","","Images/WhiteBeadChoiceCorrect.png","null"
"image-keyboard-response","164","1290186","0.0-4.0-0.48","13","High_HMMActual","554.6999999934342","","","","Images/NewTrialWC.png","37"
"image-keyboard-response","165","1290438","0.0-4.0-1.48","13","High_HMMActual","null","","","","Images/BlackBeadChoice.png","null"
"image-keyboard-response","166","1290941","0.0-4.0-2.48","13","High_HMMActual","null","","","","Images/BlackBeadChoiceCorrect.png","null"
"image-keyboard-response","167","1291978","0.0-4.0-0.49","13","High_HMMActual","1034.7000000036787","","","","Images/NewTrialBC.png","39"
"image-keyboard-response","168","1292230","0.0-4.0-1.49","13","High_HMMActual","null","","","","Images/WhiteBeadChoice.png","null"
"image-keyboard-response","169","1292733","0.0-4.0-2.49","13","High_HMMActual","null","","","","Images/WhiteBeadChoiceCorrect.png","null"
"image-keyboard-response","170","1293175","0.0-4.0-0.50","13","High_HMMActual","438.800000003539","","","","Images/NewTrialWC.png","37"
"image-keyboard-response","171","1293428","0.0-4.0-1.50","13","High_HMMActual","null","","","","Images/BlackBeadChoice.png","null"
"image-keyboard-response","172","1293932","0.0-4.0-2.50","13","High_HMMActual","null","","","","Images/BlackBeadChoiceCorrect.png","null"
"image-keyboard-response","173","1295103","0.0-4.0-0.51","13","High_HMMActual","1168.9000000040978","","","","Images/NewTrialBC.png","39"
"image-keyboard-response","174","1295355","0.0-4.0-1.51","13","High_HMMActual","null","","","","Images/WhiteBeadChoice.png","null"
"image-keyboard-response","175","1295859","0.0-4.0-2.51","13","High_HMMActual","null","","","","Images/WhiteBeadChoiceCorrect.png","null"
"image-keyboard-response","176","1296386","0.0-4.0-0.52","13","High_HMMActual","524.0999999949709","","","","Images/NewTrialWC.png","37"
"image-keyboard-response","177","1296639","0.0-4.0-1.52","13","High_HMMActual","null","","","","Images/BlackBeadChoice.png","null"
"image-keyboard-response","178","1297144","0.0-4.0-2.52","13","High_HMMActual","null","","","","Images/BlackBeadChoiceCorrect.png","null"
"image-keyboard-response","179","1301143","0.0-4.0-0.53","13","High_HMMActual","3995.9999999990687","","","","Images/NewTrialBC.png","39"
"image-keyboard-response","180","1301397","0.0-4.0-1.53","13","High_HMMActual","null","","","","Images/WhiteBeadChoice.png","null"
"image-keyboard-response","181","1301902","0.0-4.0-2.53","13","High_HMMActual","null","","","","Images/WhiteBeadChoiceWrong.png","null"
"image-keyboard-response","182","1302040","0.0-4.0-0.54","13","High_HMMActual","134.89999998989515","","","","Images/NewTrialBC.png","39"
"image-keyboard-response","183","1302294","0.0-4.0-1.54","13","High_HMMActual","null","","","","Images/WhiteBeadChoice.png","null"
"image-keyboard-response","184","1302798","0.0-4.0-2.54","13","High_HMMActual","null","","","","Images/WhiteBeadChoiceWrong.png","null"
"image-keyboard-response","185","1302888","0.0-4.0-0.55","13","High_HMMActual","87.40000000409782","","","","Images/NewTrialBC.png","39"
"image-keyboard-response","186","1303141","0.0-4.0-1.55","13","High_HMMActual","null","","","","Images/WhiteBeadChoice.png","null"
"image-keyboard-response","187","1303644","0.0-4.0-2.55","13","High_HMMActual","null","","","","Images/WhiteBeadChoiceCorrect.png","null"
"image-keyboard-response","188","1304269","0.0-4.0-0.56","13","High_HMMActual","621.7999999932945","","","","Images/NewTrialWC.png","37"
"image-keyboard-response","189","1304523","0.0-4.0-1.56","13","High_HMMActual","null","","","","Images/BlackBeadChoice.png","null"
"image-keyboard-response","190","1305026","0.0-4.0-2.56","13","High_HMMActual","null","","","","Images/BlackBeadChoiceCorrect.png","null"
"image-keyboard-response","191","1305384","0.0-4.0-0.57","13","High_HMMActual","354.60000000614673","","","","Images/NewTrialBC.png","37"
"image-keyboard-response","192","1305637","0.0-4.0-1.57","13","High_HMMActual","null","","","","Images/BlackBeadChoice.png","null"
"image-keyboard-response","193","1306141","0.0-4.0-2.57","13","High_HMMActual","null","","","","Images/BlackBeadChoiceCorrect.png","null"
"image-keyboard-response","194","1306678","0.0-4.0-0.58","13","High_HMMActual","532.5999999914784","","","","Images/NewTrialBC.png","39"
"image-keyboard-response","195","1306932","0.0-4.0-1.58","13","High_HMMActual","null","","","","Images/WhiteBeadChoice.png","null"
"image-keyboard-response","196","1307437","0.0-4.0-2.58","13","High_HMMActual","null","","","","Images/WhiteBeadChoiceWrong.png","null"
"image-keyboard-response","197","1307545","0.0-4.0-0.59","13","High_HMMActual","100.89999999036081","","","","Images/NewTrialBC.png","39"
"image-keyboard-response","198","1307798","0.0-4.0-1.59","13","High_HMMActual","null","","","","Images/WhiteBeadChoice.png","null"
"image-keyboard-response","199","1308302","0.0-4.0-2.59","13","High_HMMActual","null","","","","Images/WhiteBeadChoiceWrong.png","null"
"image-keyboard-response","200","1308426","0.0-4.0-0.60","13","High_HMMActual","116.39999999897555","","","","Images/NewTrialBC.png","39"
"image-keyboard-response","201","1308680","0.0-4.0-1.60","13","High_HMMActual","null","","","","Images/WhiteBeadChoice.png","null"
"image-keyboard-response","202","1309184","0.0-4.0-2.60","13","High_HMMActual","null","","","","Images/WhiteBeadChoiceWrong.png","null"
"image-keyboard-response","203","1309622","0.0-4.0-0.61","13","High_HMMActual","431.8000000056345","","","","Images/NewTrialBC.png","39"
"image-keyboard-response","204","1309876","0.0-4.0-1.61","13","High_HMMActual","null","","","","Images/WhiteBeadChoice.png","null"
"image-keyboard-response","205","1310381","0.0-4.0-2.61","13","High_HMMActual","null","","","","Images/WhiteBeadChoiceCorrect.png","null"
"image-keyboard-response","206","1311005","0.0-4.0-0.62","13","High_HMMActual","616.0000000088476","","","","Images/NewTrialWC.png","37"
"image-keyboard-response","207","1311259","0.0-4.0-1.62","13","High_HMMActual","null","","","","Images/BlackBeadChoice.png","null"
"image-keyboard-response","208","1311763","0.0-4.0-2.62","13","High_HMMActual","null","","","","Images/BlackBeadChoiceCorrect.png","null"
"image-keyboard-response","209","1312982","0.0-4.0-0.63","13","High_HMMActual","1211.2000000050757","","","","Images/NewTrialBC.png","39"
"image-keyboard-response","210","1313235","0.0-4.0-1.63","13","High_HMMActual","null","","","","Images/WhiteBeadChoice.png","null"
"image-keyboard-response","211","1313739","0.0-4.0-2.63","13","High_HMMActual","null","","","","Images/WhiteBeadChoiceWrong.png","null"
"image-keyboard-response","212","1313798","0.0-4.0-0.64","13","High_HMMActual","55.99999999674037","","","","Images/NewTrialBC.png","39"
"image-keyboard-response","213","1314051","0.0-4.0-1.64","13","High_HMMActual","null","","","","Images/WhiteBeadChoice.png","null"
"image-keyboard-response","214","1314554","0.0-4.0-2.64","13","High_HMMActual","426.2000000018161","","","","Images/WhiteBeadChoiceWrong.png","39"
"image-keyboard-response","215","1315643","0.0-4.0-0.65","13","High_HMMActual","1086.5999999949709","","","","Images/NewTrialBC.png","39"
"image-keyboard-response","216","1315896","0.0-4.0-1.65","13","High_HMMActual","null","","","","Images/WhiteBeadChoice.png","null"
"image-keyboard-response","217","1316399","0.0-4.0-2.65","13","High_HMMActual","null","","","","Images/WhiteBeadChoiceCorrect.png","null"
"image-keyboard-response","218","1317104","0.0-4.0-0.66","13","High_HMMActual","702.900000003865","","","","Images/NewTrialWC.png","37"
"image-keyboard-response","219","1317357","0.0-4.0-1.66","13","High_HMMActual","null","","","","Images/BlackBeadChoice.png","null"
"image-keyboard-response","220","1317859","0.0-4.0-2.66","13","High_HMMActual","493.7999999965541","","","","Images/BlackBeadChoiceWrong.png","37"
"image-keyboard-response","221","1318968","0.0-4.0-0.67","13","High_HMMActual","1106.2000000092667","","","","Images/NewTrialWC.png","37"
"image-keyboard-response","222","1319222","0.0-4.0-1.67","13","High_HMMActual","null","","","","Images/BlackBeadChoice.png","null"
"image-keyboard-response","223","1319725","0.0-4.0-2.67","13","High_HMMActual","null","","","","Images/BlackBeadChoiceWrong.png","null"
"image-keyboard-response","224","1319734","0.0-4.0-0.68","13","High_HMMActual","3.700000001117587","","","","Images/NewTrialWC.png","37"
"image-keyboard-response","225","1319988","0.0-4.0-1.68","13","High_HMMActual","null","","","","Images/BlackBeadChoice.png","null"
"image-keyboard-response","226","1320492","0.0-4.0-2.68","13","High_HMMActual","null","","","","Images/BlackBeadChoiceWrong.png","null"
"image-keyboard-response","227","1320681","0.0-4.0-0.69","13","High_HMMActual","181.20000000623986","","","","Images/NewTrialWC.png","37"
"image-keyboard-response","228","1320935","0.0-4.0-1.69","13","High_HMMActual","null","","","","Images/BlackBeadChoice.png","null"
"image-keyboard-response","229","1321439","0.0-4.0-2.69","13","High_HMMActual","null","","","","Images/BlackBeadChoiceCorrect.png","null"
"image-keyboard-response","230","1322013","0.0-4.0-0.70","13","High_HMMActual","566.900000005262","","","","Images/NewTrialBC.png","39"
"image-keyboard-response","231","1322266","0.0-4.0-1.70","13","High_HMMActual","null","","","","Images/WhiteBeadChoice.png","null"
"image-keyboard-response","232","1322770","0.0-4.0-2.70","13","High_HMMActual","324.4000000124797","","","","Images/WhiteBeadChoiceCorrect.png","39"
"image-keyboard-response","233","1323374","0.0-4.0-0.71","13","High_HMMActual","600.9000000047963","","","","Images/NewTrialWC.png","39"
"image-keyboard-response","234","1323628","0.0-4.0-1.71","13","High_HMMActual","null","","","","Images/WhiteBeadChoice.png","null"
"image-keyboard-response","235","1324133","0.0-4.0-2.71","13","High_HMMActual","null","","","","Images/WhiteBeadChoiceWrong.png","null"
"image-keyboard-response","236","1324690","0.0-4.0-0.72","13","High_HMMActual","550.1000000075437","","","","Images/NewTrialBC.png","39"
"image-keyboard-response","237","1324944","0.0-4.0-1.72","13","High_HMMActual","null","","","","Images/WhiteBeadChoice.png","null"
"image-keyboard-response","238","1325449","0.0-4.0-2.72","13","High_HMMActual","null","","","","Images/WhiteBeadChoiceWrong.png","null"
"image-keyboard-response","239","1325622","0.0-4.0-0.73","13","High_HMMActual","166.1000000021886","","","","Images/NewTrialBC.png","39"
"image-keyboard-response","240","1325877","0.0-4.0-1.73","13","High_HMMActual","null","","","","Images/WhiteBeadChoice.png","null"
"image-keyboard-response","241","1326382","0.0-4.0-2.73","13","High_HMMActual","null","","","","Images/WhiteBeadChoiceCorrect.png","null"
"image-keyboard-response","242","1326554","0.0-4.0-0.74","13","High_HMMActual","164.40000000875443","","","","Images/NewTrialWC.png","39"
"image-keyboard-response","243","1326809","0.0-4.0-1.74","13","High_HMMActual","null","","","","Images/WhiteBeadChoice.png","null"
"image-keyboard-response","244","1327313","0.0-4.0-2.74","13","High_HMMActual","null","","","","Images/WhiteBeadChoiceCorrect.png","null"
"image-keyboard-response","245","1327801","0.0-4.0-0.75","13","High_HMMActual","481.1000000045169","","","","Images/NewTrialWC.png","37"
"image-keyboard-response","246","1328055","0.0-4.0-1.75","13","High_HMMActual","null","","","","Images/BlackBeadChoice.png","null"
"image-keyboard-response","247","1328558","0.0-4.0-2.75","13","High_HMMActual","null","","","","Images/BlackBeadChoiceCorrect.png","null"
"image-keyboard-response","248","1329828","0.0-4.0-0.76","13","High_HMMActual","1266.8000000123866","","","","Images/NewTrialBC.png","39"
"image-keyboard-response","249","1330081","0.0-4.0-1.76","13","High_HMMActual","null","","","","Images/WhiteBeadChoice.png","null"
"image-keyboard-response","250","1330585","0.0-4.0-2.76","13","High_HMMActual","null","","","","Images/WhiteBeadChoiceCorrect.png","null"
"image-keyboard-response","251","1331026","0.0-4.0-0.77","13","High_HMMActual","436.3000000012107","","","","Images/NewTrialWC.png","37"
"image-keyboard-response","252","1331280","0.0-4.0-1.77","13","High_HMMActual","null","","","","Images/BlackBeadChoice.png","null"
"image-keyboard-response","253","1331783","0.0-4.0-2.77","13","High_HMMActual","null","","","","Images/BlackBeadChoiceCorrect.png","null"
"image-keyboard-response","254","1332191","0.0-4.0-0.78","13","High_HMMActual","404.50000000419095","","","","Images/NewTrialBC.png","39"
"image-keyboard-response","255","1332444","0.0-4.0-1.78","13","High_HMMActual","null","","","","Images/WhiteBeadChoice.png","null"
"image-keyboard-response","256","1332948","0.0-4.0-2.78","13","High_HMMActual","null","","","","Images/WhiteBeadChoiceWrong.png","null"
"image-keyboard-response","257","1333054","0.0-4.0-0.79","13","High_HMMActual","103.60000000242144","","","","Images/NewTrialBC.png","39"
"image-keyboard-response","258","1333308","0.0-4.0-1.79","13","High_HMMActual","null","","","","Images/WhiteBeadChoice.png","null"
"image-keyboard-response","259","1333813","0.0-4.0-2.79","13","High_HMMActual","null","","","","Images/WhiteBeadChoiceWrong.png","null"
"image-keyboard-response","260","1333821","0.0-4.0-0.80","13","High_HMMActual","1.799999998183921","","","","Images/NewTrialBC.png","39"
"image-keyboard-response","261","1334073","0.0-4.0-1.80","13","High_HMMActual","null","","","","Images/WhiteBeadChoice.png","null"
"image-keyboard-response","262","1334578","0.0-4.0-2.80","13","High_HMMActual","null","","","","Images/WhiteBeadChoiceCorrect.png","null"
"image-keyboard-response","263","1335102","0.0-4.0-0.81","13","High_HMMActual","516.3000000028405","","","","Images/NewTrialWC.png","37"
"image-keyboard-response","264","1335356","0.0-4.0-1.81","13","High_HMMActual","null","","","","Images/BlackBeadChoice.png","null"
"image-keyboard-response","265","1335860","0.0-4.0-2.81","13","High_HMMActual","null","","","","Images/BlackBeadChoiceCorrect.png","null"
"image-keyboard-response","266","1335882","0.0-4.0-0.82","13","High_HMMActual","15.80000000842847","","","","Images/NewTrialBC.png","37"
"image-keyboard-response","267","1336136","0.0-4.0-1.82","13","High_HMMActual","null","","","","Images/BlackBeadChoice.png","null"
"image-keyboard-response","268","1336641","0.0-4.0-2.82","13","High_HMMActual","null","","","","Images/BlackBeadChoiceWrong.png","null"
"image-keyboard-response","269","1337944","0.0-4.0-0.83","13","High_HMMActual","1296.100000007078","","","","Images/NewTrialWC.png","37"
"image-keyboard-response","270","1338198","0.0-4.0-1.83","13","High_HMMActual","null","","","","Images/BlackBeadChoice.png","null"
"image-keyboard-response","271","1338703","0.0-4.0-2.83","13","High_HMMActual","null","","","","Images/BlackBeadChoiceCorrect.png","null"
"image-keyboard-response","272","1339907","0.0-4.0-0.84","13","High_HMMActual","1199.5000000023283","","","","Images/NewTrialBC.png","39"
"image-keyboard-response","273","1340160","0.0-4.0-1.84","13","High_HMMActual","null","","","","Images/WhiteBeadChoice.png","null"
"image-keyboard-response","274","1340664","0.0-4.0-2.84","13","High_HMMActual","138.80000000074506","","","","Images/WhiteBeadChoiceCorrect.png","39"
"image-keyboard-response","275","1341567","0.0-4.0-0.85","13","High_HMMActual","898.9000000001397","","","","Images/NewTrialWC.png","37"
"image-keyboard-response","276","1341819","0.0-4.0-1.85","13","High_HMMActual","null","","","","Images/BlackBeadChoice.png","null"
"image-keyboard-response","277","1342322","0.0-4.0-2.85","13","High_HMMActual","null","","","","Images/BlackBeadChoiceWrong.png","null"
"image-keyboard-response","278","1342364","0.0-4.0-0.86","13","High_HMMActual","38.50000000977889","","","","Images/NewTrialWC.png","37"
"image-keyboard-response","279","1342617","0.0-4.0-1.86","13","High_HMMActual","null","","","","Images/BlackBeadChoice.png","null"
"image-keyboard-response","280","1343120","0.0-4.0-2.86","13","High_HMMActual","null","","","","Images/BlackBeadChoiceWrong.png","null"
"image-keyboard-response","281","1348520","0.0-4.0-0.87","13","High_HMMActual","5396.099999997998","","","","Images/NewTrialWC.png","37"
"image-keyboard-response","282","1348773","0.0-4.0-1.87","13","High_HMMActual","null","","","","Images/BlackBeadChoice.png","null"
"image-keyboard-response","283","1349278","0.0-4.0-2.87","13","High_HMMActual","null","","","","Images/BlackBeadChoiceWrong.png","null"
"image-keyboard-response","284","1350431","0.0-4.0-0.88","13","High_HMMActual","1149.5999999896158","","","","Images/NewTrialWC.png","37"
"image-keyboard-response","285","1350685","0.0-4.0-1.88","13","High_HMMActual","null","","","","Images/BlackBeadChoice.png","null"
"image-keyboard-response","286","1351189","0.0-4.0-2.88","13","High_HMMActual","null","","","","Images/BlackBeadChoiceWrong.png","null"
"image-keyboard-response","287","1354372","0.0-4.0-0.89","13","High_HMMActual","3179.999999993015","","","","Images/NewTrialWC.png","37"
"image-keyboard-response","288","1354626","0.0-4.0-1.89","13","High_HMMActual","null","","","","Images/BlackBeadChoice.png","null"
"image-keyboard-response","289","1355130","0.0-4.0-2.89","13","High_HMMActual","null","","","","Images/BlackBeadChoiceWrong.png","null"
"image-keyboard-response","290","1355569","0.0-4.0-0.90","13","High_HMMActual","435.89999999664724","","","","Images/NewTrialWC.png","37"
"image-keyboard-response","291","1355821","0.0-4.0-1.90","13","High_HMMActual","null","","","","Images/BlackBeadChoice.png","null"
"image-keyboard-response","292","1356325","0.0-4.0-2.90","13","High_HMMActual","459.30000000214204","","","","Images/BlackBeadChoiceWrong.png","37"
"image-keyboard-response","293","1357082","0.0-4.0-0.91","13","High_HMMActual","755.0000000046566","","","","Images/NewTrialWC.png","37"
"image-keyboard-response","294","1357335","0.0-4.0-1.91","13","High_HMMActual","null","","","","Images/BlackBeadChoice.png","null"
"image-keyboard-response","295","1357838","0.0-4.0-2.91","13","High_HMMActual","493.69999999180436","","","","Images/BlackBeadChoiceWrong.png","37"
"image-keyboard-response","296","1359061","0.0-4.0-0.92","13","High_HMMActual","1221.1000000096392","","","","Images/NewTrialWC.png","37"
"image-keyboard-response","297","1359315","0.0-4.0-1.92","13","High_HMMActual","null","","","","Images/BlackBeadChoice.png","null"
"image-keyboard-response","298","1359819","0.0-4.0-2.92","13","High_HMMActual","null","","","","Images/BlackBeadChoiceCorrect.png","null"
"image-keyboard-response","299","1360693","0.0-4.0-0.93","13","High_HMMActual","870.5999999949709","","","","Images/NewTrialBC.png","39"
"image-keyboard-response","300","1360946","0.0-4.0-1.93","13","High_HMMActual","null","","","","Images/WhiteBeadChoice.png","null"
"image-keyboard-response","301","1361450","0.0-4.0-2.93","13","High_HMMActual","null","","","","Images/WhiteBeadChoiceWrong.png","null"
"image-keyboard-response","302","1364566","0.0-4.0-0.94","13","High_HMMActual","3114.0999999917112","","","","Images/NewTrialBC.png","39"
"image-keyboard-response","303","1364820","0.0-4.0-1.94","13","High_HMMActual","null","","","","Images/WhiteBeadChoice.png","null"
"image-keyboard-response","304","1365323","0.0-4.0-2.94","13","High_HMMActual","null","","","","Images/WhiteBeadChoiceCorrect.png","null"
"image-keyboard-response","305","1366048","0.0-4.0-0.95","13","High_HMMActual","722.0999999991618","","","","Images/NewTrialWC.png","37"
"image-keyboard-response","306","1366302","0.0-4.0-1.95","13","High_HMMActual","null","","","","Images/BlackBeadChoice.png","null"
"image-keyboard-response","307","1366813","0.0-4.0-2.95","13","High_HMMActual","null","","","","Images/BlackBeadChoiceWrong.png","null"
"image-keyboard-response","308","1366910","0.0-4.0-0.96","13","High_HMMActual","94.49999999208376","","","","Images/NewTrialWC.png","37"
"image-keyboard-response","309","1367164","0.0-4.0-1.96","13","High_HMMActual","null","","","","Images/BlackBeadChoice.png","null"
"image-keyboard-response","310","1367667","0.0-4.0-2.96","13","High_HMMActual","null","","","","Images/BlackBeadChoiceWrong.png","null"
"image-keyboard-response","311","1368042","0.0-4.0-0.97","13","High_HMMActual","371.4999999937136","","","","Images/NewTrialWC.png","37"
"image-keyboard-response","312","1368295","0.0-4.0-1.97","13","High_HMMActual","null","","","","Images/BlackBeadChoice.png","null"
"image-keyboard-response","313","1368798","0.0-4.0-2.97","13","High_HMMActual","460.4000000106171","","","","Images/BlackBeadChoiceWrong.png","37"
"image-keyboard-response","314","1369522","0.0-4.0-0.98","13","High_HMMActual","721.0999999952037","","","","Images/NewTrialWC.png","37"
"image-keyboard-response","315","1369775","0.0-4.0-1.98","13","High_HMMActual","null","","","","Images/BlackBeadChoice.png","null"
"image-keyboard-response","316","1370280","0.0-4.0-2.98","13","High_HMMActual","null","","","","Images/BlackBeadChoiceWrong.png","null"
"image-keyboard-response","317","1370322","0.0-4.0-0.99","13","High_HMMActual","34.299999999348074","","","","Images/NewTrialWC.png","37"
"image-keyboard-response","318","1370576","0.0-4.0-1.99","13","High_HMMActual","null","","","","Images/BlackBeadChoice.png","null"
"image-keyboard-response","319","1371081","0.0-4.0-2.99","13","High_HMMActual","null","","","","Images/BlackBeadChoiceCorrect.png","null"
"image-keyboard-response","320","1371586","0.0-4.0-0.100","13","High_HMMActual","496.8999999980442","","","","Images/NewTrialBC.png","39"
"image-keyboard-response","321","1371840","0.0-4.0-1.100","13","High_HMMActual","null","","","","Images/WhiteBeadChoice.png","null"
"image-keyboard-response","322","1372346","0.0-4.0-2.100","13","High_HMMActual","null","","","","Images/WhiteBeadChoiceCorrect.png","null"
"image-keyboard-response","323","1373661","0.0-4.0-0.101","13","High_HMMActual","1307.7999999949243","","","","Images/NewTrialWC.png","37"
"image-keyboard-response","324","1373915","0.0-4.0-1.101","13","High_HMMActual","null","","","","Images/BlackBeadChoice.png","null"
"image-keyboard-response","325","1374418","0.0-4.0-2.101","13","High_HMMActual","null","","","","Images/BlackBeadChoiceCorrect.png","null"
"image-keyboard-response","326","1376407","0.0-4.0-0.102","13","High_HMMActual","1985.7999999946915","","","","Images/NewTrialBC.png","39"
"image-keyboard-response","327","1376659","0.0-4.0-1.102","13","High_HMMActual","null","","","","Images/WhiteBeadChoice.png","null"
"image-keyboard-response","328","1377163","0.0-4.0-2.102","13","High_HMMActual","null","","","","Images/WhiteBeadChoiceCorrect.png","null"
"image-keyboard-response","329","1378972","0.0-4.0-0.103","13","High_HMMActual","1804.4999999983702","","","","Images/NewTrialWC.png","37"
"image-keyboard-response","330","1379226","0.0-4.0-1.103","13","High_HMMActual","null","","","","Images/BlackBeadChoice.png","null"
"image-keyboard-response","331","1379730","0.0-4.0-2.103","13","High_HMMActual","null","","","","Images/BlackBeadChoiceCorrect.png","null"
"image-keyboard-response","332","1380747","0.0-4.0-0.104","13","High_HMMActual","1011.4000000029337","","","","Images/NewTrialBC.png","39"
"image-keyboard-response","333","1381001","0.0-4.0-1.104","13","High_HMMActual","null","","","","Images/WhiteBeadChoice.png","null"
"image-keyboard-response","334","1381505","0.0-4.0-2.104","13","High_HMMActual","null","","","","Images/WhiteBeadChoiceCorrect.png","null"
"image-keyboard-response","335","1381861","0.0-4.0-0.105","13","High_HMMActual","353.7000000067055","","","","Images/NewTrialWC.png","37"
"image-keyboard-response","336","1382114","0.0-4.0-1.105","13","High_HMMActual","null","","","","Images/BlackBeadChoice.png","null"
"image-keyboard-response","337","1382616","0.0-4.0-2.105","13","High_HMMActual","null","","","","Images/BlackBeadChoiceCorrect.png","null"
"image-keyboard-response","338","1383724","0.0-4.0-0.106","13","High_HMMActual","1104.800000000745","","","","Images/NewTrialBC.png","39"
"image-keyboard-response","339","1383977","0.0-4.0-1.106","13","High_HMMActual","null","","","","Images/WhiteBeadChoice.png","null"
"image-keyboard-response","340","1384481","0.0-4.0-2.106","13","High_HMMActual","null","","","","Images/WhiteBeadChoiceCorrect.png","null"
"image-keyboard-response","341","1385206","0.0-4.0-0.107","13","High_HMMActual","722.2000000039116","","","","Images/NewTrialWC.png","39"
"image-keyboard-response","342","1385460","0.0-4.0-1.107","13","High_HMMActual","null","","","","Images/WhiteBeadChoice.png","null"
"image-keyboard-response","343","1385963","0.0-4.0-2.107","13","High_HMMActual","null","","","","Images/WhiteBeadChoiceWrong.png","null"
"image-keyboard-response","344","1386601","0.0-4.0-0.108","13","High_HMMActual","634.7000000094995","","","","Images/NewTrialBC.png","39"
"image-keyboard-response","345","1386853","0.0-4.0-1.108","13","High_HMMActual","null","","","","Images/WhiteBeadChoice.png","null"
"image-keyboard-response","346","1387356","0.0-4.0-2.108","13","High_HMMActual","null","","","","Images/WhiteBeadChoiceCorrect.png","null"
"image-keyboard-response","347","1387948","0.0-4.0-0.109","13","High_HMMActual","589.5000000018626","","","","Images/NewTrialWC.png","37"
"image-keyboard-response","348","1388202","0.0-4.0-1.109","13","High_HMMActual","null","","","","Images/BlackBeadChoice.png","null"
"image-keyboard-response","349","1388707","0.0-4.0-2.109","13","High_HMMActual","null","","","","Images/BlackBeadChoiceCorrect.png","null"
"image-keyboard-response","350","1389726","0.0-4.0-0.110","13","High_HMMActual","1016.099999993341","","","","Images/NewTrialBC.png","39"
"image-keyboard-response","351","1389979","0.0-4.0-1.110","13","High_HMMActual","null","","","","Images/WhiteBeadChoice.png","null"
"image-keyboard-response","352","1390483","0.0-4.0-2.110","13","High_HMMActual","null","","","","Images/WhiteBeadChoiceCorrect.png","null"
"image-keyboard-response","353","1401751","0.0-4.0-0.111","13","High_HMMActual","11265.30000001355","","","","Images/NewTrialWC.png","37"
"image-keyboard-response","354","1402004","0.0-4.0-1.111","13","High_HMMActual","null","","","","Images/BlackBeadChoice.png","null"
"image-keyboard-response","355","1402508","0.0-4.0-2.111","13","High_HMMActual","null","","","","Images/BlackBeadChoiceCorrect.png","null"
"image-keyboard-response","356","1403965","0.0-4.0-0.112","13","High_HMMActual","1453.9999999981374","","","","Images/NewTrialBC.png","39"
"image-keyboard-response","357","1404219","0.0-4.0-1.112","13","High_HMMActual","null","","","","Images/WhiteBeadChoice.png","null"
"image-keyboard-response","358","1404723","0.0-4.0-2.112","13","High_HMMActual","null","","","","Images/WhiteBeadChoiceCorrect.png","null"
"image-keyboard-response","359","1405893","0.0-4.0-0.113","13","High_HMMActual","1167.0000000011642","","","","Images/NewTrialWC.png","37"
"image-keyboard-response","360","1406146","0.0-4.0-1.113","13","High_HMMActual","null","","","","Images/BlackBeadChoice.png","null"
"image-keyboard-response","361","1406649","0.0-4.0-2.113","13","High_HMMActual","null","","","","Images/BlackBeadChoiceCorrect.png","null"
"image-keyboard-response","362","1407236","0.0-4.0-0.114","13","High_HMMActual","584.5000000116415","","","","Images/NewTrialBC.png","39"
"image-keyboard-response","363","1407489","0.0-4.0-1.114","13","High_HMMActual","null","","","","Images/WhiteBeadChoice.png","null"
"image-keyboard-response","364","1407993","0.0-4.0-2.114","13","High_HMMActual","null","","","","Images/WhiteBeadChoiceCorrect.png","null"
"image-keyboard-response","365","1408752","0.0-4.0-0.115","13","High_HMMActual","756.1000000131316","","","","Images/NewTrialWC.png","37"
"image-keyboard-response","366","1409005","0.0-4.0-1.115","13","High_HMMActual","null","","","","Images/BlackBeadChoice.png","null"
"image-keyboard-response","367","1409510","0.0-4.0-2.115","13","High_HMMActual","null","","","","Images/BlackBeadChoiceCorrect.png","null"
"image-keyboard-response","368","1410631","0.0-4.0-0.116","13","High_HMMActual","1117.4000000029337","","","","Images/NewTrialBC.png","39"
"image-keyboard-response","369","1410884","0.0-4.0-1.116","13","High_HMMActual","null","","","","Images/WhiteBeadChoice.png","null"
"image-keyboard-response","370","1411387","0.0-4.0-2.116","13","High_HMMActual","null","","","","Images/WhiteBeadChoiceCorrect.png","null"
"image-keyboard-response","371","1412491","0.0-4.0-0.117","13","High_HMMActual","1100.399999995716","","","","Images/NewTrialWC.png","37"
"image-keyboard-response","372","1412743","0.0-4.0-1.117","13","High_HMMActual","null","","","","Images/BlackBeadChoice.png","null"
"image-keyboard-response","373","1413247","0.0-4.0-2.117","13","High_HMMActual","null","","","","Images/BlackBeadChoiceCorrect.png","null"
"image-keyboard-response","374","1414622","0.0-4.0-0.118","13","High_HMMActual","1371.8000000081956","","","","Images/NewTrialBC.png","39"
"image-keyboard-response","375","1414875","0.0-4.0-1.118","13","High_HMMActual","null","","","","Images/WhiteBeadChoice.png","null"
"image-keyboard-response","376","1415379","0.0-4.0-2.118","13","High_HMMActual","null","","","","Images/WhiteBeadChoiceCorrect.png","null"
"image-keyboard-response","377","1417049","0.0-4.0-0.119","13","High_HMMActual","1667.4000000057276","","","","Images/NewTrialWC.png","37"
"image-keyboard-response","378","1417302","0.0-4.0-1.119","13","High_HMMActual","null","","","","Images/BlackBeadChoice.png","null"
"image-keyboard-response","379","1417806","0.0-4.0-2.119","13","High_HMMActual","null","","","","Images/BlackBeadChoiceCorrect.png","null"
"image-keyboard-response","380","1422598","0.0-4.0-0.120","13","High_HMMActual","4788.700000004843","","","","Images/NewTrialBC.png","39"
"image-keyboard-response","381","1422852","0.0-4.0-1.120","13","High_HMMActual","null","","","","Images/WhiteBeadChoice.png","null"
"image-keyboard-response","382","1423355","0.0-4.0-2.120","13","High_HMMActual","null","","","","Images/WhiteBeadChoiceWrong.png","null"
"image-keyboard-response","383","1424182","0.0-4.0-0.121","13","High_HMMActual","824.0000000076834","","","","Images/NewTrialBC.png","39"
"image-keyboard-response","384","1424435","0.0-4.0-1.121","13","High_HMMActual","null","","","","Images/WhiteBeadChoice.png","null"
"image-keyboard-response","385","1424938","0.0-4.0-2.121","13","High_HMMActual","null","","","","Images/WhiteBeadChoiceWrong.png","null"
"image-keyboard-response","386","1425862","0.0-4.0-0.122","13","High_HMMActual","921.0000000023283","","","","Images/NewTrialBC.png","39"
"image-keyboard-response","387","1426115","0.0-4.0-1.122","13","High_HMMActual","null","","","","Images/WhiteBeadChoice.png","null"
"image-keyboard-response","388","1426619","0.0-4.0-2.122","13","High_HMMActual","null","","","","Images/WhiteBeadChoiceCorrect.png","null"
"image-keyboard-response","389","1428193","0.0-4.0-0.123","13","High_HMMActual","1571.2999999958556","","","","Images/NewTrialWC.png","37"
"image-keyboard-response","390","1428447","0.0-4.0-1.123","13","High_HMMActual","null","","","","Images/BlackBeadChoice.png","null"
"image-keyboard-response","391","1428950","0.0-4.0-2.123","13","High_HMMActual","null","","","","Images/BlackBeadChoiceCorrect.png","null"
"image-keyboard-response","392","1430738","0.0-4.0-0.124","13","High_HMMActual","1784.2000000090338","","","","Images/NewTrialBC.png","39"
"image-keyboard-response","393","1430991","0.0-4.0-1.124","13","High_HMMActual","null","","","","Images/WhiteBeadChoice.png","null"
"image-keyboard-response","394","1431495","0.0-4.0-2.124","13","High_HMMActual","null","","","","Images/WhiteBeadChoiceCorrect.png","null"
"image-keyboard-response","395","1434113","0.0-4.0-0.125","13","High_HMMActual","2613.8999999966472","","","","Images/NewTrialWC.png","37"
"image-keyboard-response","396","1434366","0.0-4.0-1.125","13","High_HMMActual","null","","","","Images/BlackBeadChoice.png","null"
"image-keyboard-response","397","1434870","0.0-4.0-2.125","13","High_HMMActual","null","","","","Images/BlackBeadChoiceCorrect.png","null"
"image-keyboard-response","398","1435609","0.0-4.0-0.126","13","High_HMMActual","736.6999999941327","","","","Images/NewTrialBC.png","39"
"image-keyboard-response","399","1435862","0.0-4.0-1.126","13","High_HMMActual","null","","","","Images/WhiteBeadChoice.png","null"
"image-keyboard-response","400","1436366","0.0-4.0-2.126","13","High_HMMActual","null","","","","Images/WhiteBeadChoiceCorrect.png","null"
"image-keyboard-response","401","1436740","0.0-4.0-0.127","13","High_HMMActual","368.5999999870546","","","","Images/NewTrialWC.png","37"
"image-keyboard-response","402","1436993","0.0-4.0-1.127","13","High_HMMActual","null","","","","Images/BlackBeadChoice.png","null"
"image-keyboard-response","403","1437497","0.0-4.0-2.127","13","High_HMMActual","null","","","","Images/BlackBeadChoiceCorrect.png","null"
"image-keyboard-response","404","1437854","0.0-4.0-0.128","13","High_HMMActual","353.6000000021886","","","","Images/NewTrialBC.png","39"
"image-keyboard-response","405","1438108","0.0-4.0-1.128","13","High_HMMActual","null","","","","Images/WhiteBeadChoice.png","null"
"image-keyboard-response","406","1438613","0.0-4.0-2.128","13","High_HMMActual","null","","","","Images/WhiteBeadChoiceWrong.png","null"
"image-keyboard-response","407","1438952","0.0-4.0-0.129","13","High_HMMActual","332.3999999992084","","","","Images/NewTrialBC.png","39"
"image-keyboard-response","408","1439205","0.0-4.0-1.129","13","High_HMMActual","null","","","","Images/WhiteBeadChoice.png","null"
"image-keyboard-response","409","1439709","0.0-4.0-2.129","13","High_HMMActual","null","","","","Images/WhiteBeadChoiceWrong.png","null"
"image-keyboard-response","410","1440249","0.0-4.0-0.130","13","High_HMMActual","535.2999999886379","","","","Images/NewTrialBC.png","39"
"image-keyboard-response","411","1440503","0.0-4.0-1.130","13","High_HMMActual","null","","","","Images/WhiteBeadChoice.png","null"
"image-keyboard-response","412","1441007","0.0-4.0-2.130","13","High_HMMActual","null","","","","Images/WhiteBeadChoiceCorrect.png","null"
"image-keyboard-response","413","1441578","0.0-4.0-0.131","13","High_HMMActual","562.6000000047497","","","","Images/NewTrialWC.png","37"
"image-keyboard-response","414","1441831","0.0-4.0-1.131","13","High_HMMActual","null","","","","Images/BlackBeadChoice.png","null"
"image-keyboard-response","415","1442336","0.0-4.0-2.131","13","High_HMMActual","null","","","","Images/BlackBeadChoiceCorrect.png","null"
"image-keyboard-response","416","1443010","0.0-4.0-0.132","13","High_HMMActual","666.1000000019558","","","","Images/NewTrialBC.png","39"
"image-keyboard-response","417","1443263","0.0-4.0-1.132","13","High_HMMActual","null","","","","Images/WhiteBeadChoice.png","null"
"image-keyboard-response","418","1443767","0.0-4.0-2.132","13","High_HMMActual","null","","","","Images/WhiteBeadChoiceCorrect.png","null"
"image-keyboard-response","419","1444222","0.0-4.0-0.133","13","High_HMMActual","452.1999999997206","","","","Images/NewTrialWC.png","37"
"image-keyboard-response","420","1444475","0.0-4.0-1.133","13","High_HMMActual","null","","","","Images/BlackBeadChoice.png","null"
"image-keyboard-response","421","1444978","0.0-4.0-2.133","13","High_HMMActual","null","","","","Images/BlackBeadChoiceCorrect.png","null"
"image-keyboard-response","422","1445285","0.0-4.0-0.134","13","High_HMMActual","304.5000000128057","","","","Images/NewTrialBC.png","39"
"image-keyboard-response","423","1445538","0.0-4.0-1.134","13","High_HMMActual","null","","","","Images/WhiteBeadChoice.png","null"
"image-keyboard-response","424","1446042","0.0-4.0-2.134","13","High_HMMActual","null","","","","Images/WhiteBeadChoiceWrong.png","null"
"image-keyboard-response","425","1449795","0.0-4.0-0.135","13","High_HMMActual","3749.2999999958556","","","","Images/NewTrialBC.png","39"
"image-keyboard-response","426","1450049","0.0-4.0-1.135","13","High_HMMActual","null","","","","Images/WhiteBeadChoice.png","null"
"image-keyboard-response","427","1450553","0.0-4.0-2.135","13","High_HMMActual","null","","","","Images/WhiteBeadChoiceWrong.png","null"
"image-keyboard-response","428","1450625","0.0-4.0-0.136","13","High_HMMActual","69.19999999785796","","","","Images/NewTrialBC.png","39"
"image-keyboard-response","429","1450878","0.0-4.0-1.136","13","High_HMMActual","null","","","","Images/WhiteBeadChoice.png","null"
"image-keyboard-response","430","1451381","0.0-4.0-2.136","13","High_HMMActual","null","","","","Images/WhiteBeadChoiceCorrect.png","null"
"image-keyboard-response","431","1452005","0.0-4.0-0.137","13","High_HMMActual","620.9000000089873","","","","Images/NewTrialWC.png","37"
"image-keyboard-response","432","1452257","0.0-4.0-1.137","13","High_HMMActual","null","","","","Images/BlackBeadChoice.png","null"
"image-keyboard-response","433","1452760","0.0-4.0-2.137","13","High_HMMActual","null","","","","Images/BlackBeadChoiceCorrect.png","null"
"image-keyboard-response","434","1452854","0.0-4.0-0.138","13","High_HMMActual","90.90000001015142","","","","Images/NewTrialBC.png","37"
"image-keyboard-response","435","1453107","0.0-4.0-1.138","13","High_HMMActual","null","","","","Images/BlackBeadChoice.png","null"
"image-keyboard-response","436","1453611","0.0-4.0-2.138","13","High_HMMActual","null","","","","Images/BlackBeadChoiceWrong.png","null"
"image-keyboard-response","437","1454020","0.0-4.0-0.139","13","High_HMMActual","400.80000000307336","","","","Images/NewTrialWC.png","39"
"image-keyboard-response","438","1454275","0.0-4.0-1.139","13","High_HMMActual","null","","","","Images/WhiteBeadChoice.png","null"
"image-keyboard-response","439","1454780","0.0-4.0-2.139","13","High_HMMActual","null","","","","Images/WhiteBeadChoiceWrong.png","null"
"image-keyboard-response","440","1455929","0.0-4.0-0.140","13","High_HMMActual","1142.200000002049","","","","Images/NewTrialBC.png","39"
"image-keyboard-response","441","1456183","0.0-4.0-1.140","13","High_HMMActual","null","","","","Images/WhiteBeadChoice.png","null"
"image-keyboard-response","442","1456687","0.0-4.0-2.140","13","High_HMMActual","null","","","","Images/WhiteBeadChoiceCorrect.png","null"
"image-keyboard-response","443","1458991","0.0-4.0-0.141","13","High_HMMActual","2301.0999999970663","","","","Images/NewTrialWC.png","37"
"image-keyboard-response","444","1459245","0.0-4.0-1.141","13","High_HMMActual","null","","","","Images/BlackBeadChoice.png","null"
"image-keyboard-response","445","1459748","0.0-4.0-2.141","13","High_HMMActual","null","","","","Images/BlackBeadChoiceCorrect.png","null"
"image-keyboard-response","446","1461052","0.0-4.0-0.142","13","High_HMMActual","1300.3000000026077","","","","Images/NewTrialBC.png","39"
"image-keyboard-response","447","1461305","0.0-4.0-1.142","13","High_HMMActual","null","","","","Images/WhiteBeadChoice.png","null"
"image-keyboard-response","448","1461810","0.0-4.0-2.142","13","High_HMMActual","null","","","","Images/WhiteBeadChoiceCorrect.png","null"
"image-keyboard-response","449","1462900","0.0-4.0-0.143","13","High_HMMActual","1086.1999999906402","","","","Images/NewTrialWC.png","37"
"image-keyboard-response","450","1463153","0.0-4.0-1.143","13","High_HMMActual","null","","","","Images/BlackBeadChoice.png","null"
"image-keyboard-response","451","1463658","0.0-4.0-2.143","13","High_HMMActual","null","","","","Images/BlackBeadChoiceCorrect.png","null"
"image-keyboard-response","452","1464925","0.0-4.0-0.144","13","High_HMMActual","1259.9999999948777","","","","Images/NewTrialBC.png","39"
"image-keyboard-response","453","1465179","0.0-4.0-1.144","13","High_HMMActual","null","","","","Images/WhiteBeadChoice.png","null"
"image-keyboard-response","454","1465684","0.0-4.0-2.144","13","High_HMMActual","null","","","","Images/WhiteBeadChoiceCorrect.png","null"
"image-keyboard-response","455","1466539","0.0-4.0-0.145","13","High_HMMActual","852.8999999980442","","","","Images/NewTrialWC.png","37"
"image-keyboard-response","456","1466792","0.0-4.0-1.145","13","High_HMMActual","null","","","","Images/BlackBeadChoice.png","null"
"image-keyboard-response","457","1467295","0.0-4.0-2.145","13","High_HMMActual","null","","","","Images/BlackBeadChoiceCorrect.png","null"
"image-keyboard-response","458","1469019","0.0-4.0-0.146","13","High_HMMActual","1721.0000000048894","","","","Images/NewTrialBC.png","39"
"image-keyboard-response","459","1469273","0.0-4.0-1.146","13","High_HMMActual","null","","","","Images/WhiteBeadChoice.png","null"
"image-keyboard-response","460","1469777","0.0-4.0-2.146","13","High_HMMActual","null","","","","Images/WhiteBeadChoiceCorrect.png","null"
"image-keyboard-response","461","1470914","0.0-4.0-0.147","13","High_HMMActual","1134.3999999952503","","","","Images/NewTrialWC.png","37"
"image-keyboard-response","462","1471167","0.0-4.0-1.147","13","High_HMMActual","null","","","","Images/BlackBeadChoice.png","null"
"image-keyboard-response","463","1471672","0.0-4.0-2.147","13","High_HMMActual","null","","","","Images/BlackBeadChoiceCorrect.png","null"
"image-keyboard-response","464","1472942","0.0-4.0-0.148","13","High_HMMActual","1265.5999999986961","","","","Images/NewTrialBC.png","39"
"image-keyboard-response","465","1473196","0.0-4.0-1.148","13","High_HMMActual","null","","","","Images/WhiteBeadChoice.png","null"
"image-keyboard-response","466","1473700","0.0-4.0-2.148","13","High_HMMActual","null","","","","Images/WhiteBeadChoiceCorrect.png","null"
"image-keyboard-response","467","1474639","0.0-4.0-0.149","13","High_HMMActual","936.0000000016298","","","","Images/NewTrialWC.png","37"
"image-keyboard-response","468","1474893","0.0-4.0-1.149","13","High_HMMActual","null","","","","Images/BlackBeadChoice.png","null"
"image-keyboard-response","469","1475398","0.0-4.0-2.149","13","High_HMMActual","null","","","","Images/BlackBeadChoiceCorrect.png","null"
"image-keyboard-response","470","1477033","0.0-4.0-0.150","13","High_HMMActual","1631.5000000030268","","","","Images/NewTrialBC.png","39"
"image-keyboard-response","471","1477286","0.0-4.0-1.150","13","High_HMMActual","null","","","","Images/WhiteBeadChoice.png","null"
"image-keyboard-response","472","1477790","0.0-4.0-2.150","13","High_HMMActual","null","","","","Images/WhiteBeadChoiceCorrect.png","null"
"image-keyboard-response","473","1478946","0.0-4.0-0.151","13","High_HMMActual","1153.000000005588","","","","Images/NewTrialWC.png","37"
"image-keyboard-response","474","1479200","0.0-4.0-1.151","13","High_HMMActual","null","","","","Images/BlackBeadChoice.png","null"
"image-keyboard-response","475","1479704","0.0-4.0-2.151","13","High_HMMActual","null","","","","Images/BlackBeadChoiceCorrect.png","null"
"image-keyboard-response","476","1480856","0.0-4.0-0.152","13","High_HMMActual","1149.0999999952037","","","","Images/NewTrialBC.png","39"
"image-keyboard-response","477","1481109","0.0-4.0-1.152","13","High_HMMActual","null","","","","Images/WhiteBeadChoice.png","null"
"image-keyboard-response","478","1481612","0.0-4.0-2.152","13","High_HMMActual","null","","","","Images/WhiteBeadChoiceWrong.png","null"
"image-keyboard-response","479","1481970","0.0-4.0-0.153","13","High_HMMActual","355.20000000554137","","","","Images/NewTrialBC.png","39"
"image-keyboard-response","480","1482223","0.0-4.0-1.153","13","High_HMMActual","null","","","","Images/WhiteBeadChoice.png","null"
"image-keyboard-response","481","1482727","0.0-4.0-2.153","13","High_HMMActual","null","","","","Images/WhiteBeadChoiceCorrect.png","null"
"image-keyboard-response","482","1483435","0.0-4.0-0.154","13","High_HMMActual","706.2999999907333","","","","Images/NewTrialWC.png","37"
"image-keyboard-response","483","1483689","0.0-4.0-1.154","13","High_HMMActual","null","","","","Images/BlackBeadChoice.png","null"
"image-keyboard-response","484","1484193","0.0-4.0-2.154","13","High_HMMActual","null","","","","Images/BlackBeadChoiceWrong.png","null"
"image-keyboard-response","485","1485283","0.0-4.0-0.155","13","High_HMMActual","1087.0999999896158","","","","Images/NewTrialWC.png","37"
"image-keyboard-response","486","1485536","0.0-4.0-1.155","13","High_HMMActual","null","","","","Images/BlackBeadChoice.png","null"
"image-keyboard-response","487","1486040","0.0-4.0-2.155","13","High_HMMActual","null","","","","Images/BlackBeadChoiceCorrect.png","null"
"image-keyboard-response","488","1486926","0.0-4.0-0.156","13","High_HMMActual","883.399999991525","","","","Images/NewTrialBC.png","39"
"image-keyboard-response","489","1487179","0.0-4.0-1.156","13","High_HMMActual","null","","","","Images/WhiteBeadChoice.png","null"
"image-keyboard-response","490","1487682","0.0-4.0-2.156","13","High_HMMActual","null","","","","Images/WhiteBeadChoiceCorrect.png","null"
"image-keyboard-response","491","1491334","0.0-4.0-0.157","13","High_HMMActual","3648.400000005495","","","","Images/NewTrialWC.png","37"
"image-keyboard-response","492","1491587","0.0-4.0-1.157","13","High_HMMActual","null","","","","Images/BlackBeadChoice.png","null"
"image-keyboard-response","493","1492090","0.0-4.0-2.157","13","High_HMMActual","null","","","","Images/BlackBeadChoiceCorrect.png","null"
"image-keyboard-response","494","1494943","0.0-4.0-0.158","13","High_HMMActual","2849.4999999965075","","","","Images/NewTrialBC.png","39"
"image-keyboard-response","495","1495199","0.0-4.0-1.158","13","High_HMMActual","null","","","","Images/WhiteBeadChoice.png","null"
"image-keyboard-response","496","1495703","0.0-4.0-2.158","13","High_HMMActual","null","","","","Images/WhiteBeadChoiceCorrect.png","null"
"image-keyboard-response","497","1496522","0.0-4.0-0.159","13","High_HMMActual","815.5000000116415","","","","Images/NewTrialWC.png","37"
"image-keyboard-response","498","1496776","0.0-4.0-1.159","13","High_HMMActual","null","","","","Images/BlackBeadChoice.png","null"
"image-keyboard-response","499","1497279","0.0-4.0-2.159","13","High_HMMActual","null","","","","Images/BlackBeadChoiceCorrect.png","null"
"image-keyboard-response","500","1502743","0.0-4.0-0.160","13","High_HMMActual","5460.999999995809","","","","Images/NewTrialBC.png","39"
"image-keyboard-response","501","1502996","0.0-4.0-1.160","13","High_HMMActual","null","","","","Images/WhiteBeadChoice.png","null"
"image-keyboard-response","502","1503500","0.0-4.0-2.160","13","High_HMMActual","null","","","","Images/WhiteBeadChoiceCorrect.png","null"
"image-keyboard-response","503","1504170","0.0-4.0-0.161","13","High_HMMActual","662.4999999911524","","","","Images/NewTrialWC.png","37"
"image-keyboard-response","504","1504423","0.0-4.0-1.161","13","High_HMMActual","null","","","","Images/BlackBeadChoice.png","null"
"image-keyboard-response","505","1504926","0.0-4.0-2.161","13","High_HMMActual","null","","","","Images/BlackBeadChoiceWrong.png","null"
"image-keyboard-response","506","1508100","0.0-4.0-0.162","13","High_HMMActual","3170.4999999927823","","","","Images/NewTrialWC.png","37"
"image-keyboard-response","507","1508354","0.0-4.0-1.162","13","High_HMMActual","null","","","","Images/BlackBeadChoice.png","null"
"image-keyboard-response","508","1508857","0.0-4.0-2.162","13","High_HMMActual","null","","","","Images/BlackBeadChoiceWrong.png","null"
"image-keyboard-response","509","1511189","0.0-4.0-0.163","13","High_HMMActual","2328.5000000032596","","","","Images/NewTrialWC.png","37"
"image-keyboard-response","510","1511442","0.0-4.0-1.163","13","High_HMMActual","null","","","","Images/BlackBeadChoice.png","null"
"image-keyboard-response","511","1511947","0.0-4.0-2.163","13","High_HMMActual","null","","","","Images/BlackBeadChoiceCorrect.png","null"
"image-keyboard-response","512","1549390","0.0-4.0-0.164","13","High_HMMActual","37439.599999997765","","","","Images/NewTrialBC.png","39"
"image-keyboard-response","513","1549644","0.0-4.0-1.164","13","High_HMMActual","null","","","","Images/WhiteBeadChoice.png","null"
"image-keyboard-response","514","1550149","0.0-4.0-2.164","13","High_HMMActual","null","","","","Images/WhiteBeadChoiceCorrect.png","null"
"image-keyboard-response","515","1550669","0.0-4.0-0.165","13","High_HMMActual","516.6999999929685","","","","Images/NewTrialWC.png","37"
"image-keyboard-response","516","1550922","0.0-4.0-1.165","13","High_HMMActual","null","","","","Images/BlackBeadChoice.png","null"
"image-keyboard-response","517","1551426","0.0-4.0-2.165","13","High_HMMActual","null","","","","Images/BlackBeadChoiceWrong.png","null"
"image-keyboard-response","518","1553280","0.0-4.0-0.166","13","High_HMMActual","1850.399999995716","","","","Images/NewTrialWC.png","37"
"image-keyboard-response","519","1553533","0.0-4.0-1.166","13","High_HMMActual","null","","","","Images/BlackBeadChoice.png","null"
"image-keyboard-response","520","1554038","0.0-4.0-2.166","13","High_HMMActual","null","","","","Images/BlackBeadChoiceWrong.png","null"
"image-keyboard-response","521","1554277","0.0-4.0-0.167","13","High_HMMActual","236.19999999925494","","","","Images/NewTrialWC.png","37"
"image-keyboard-response","522","1554530","0.0-4.0-1.167","13","High_HMMActual","null","","","","Images/BlackBeadChoice.png","null"
"image-keyboard-response","523","1555033","0.0-4.0-2.167","13","High_HMMActual","null","","","","Images/BlackBeadChoiceCorrect.png","null"
"image-keyboard-response","524","1555290","0.0-4.0-0.168","13","High_HMMActual","254.00000000093132","","","","Images/NewTrialBC.png","39"
"image-keyboard-response","525","1555543","0.0-4.0-1.168","13","High_HMMActual","null","","","","Images/WhiteBeadChoice.png","null"
"image-keyboard-response","526","1556047","0.0-4.0-2.168","13","High_HMMActual","null","","","","Images/WhiteBeadChoiceCorrect.png","null"
"image-keyboard-response","527","1556389","0.0-4.0-0.169","13","High_HMMActual","339.2000000020489","","","","Images/NewTrialWC.png","37"
"image-keyboard-response","528","1556643","0.0-4.0-1.169","13","High_HMMActual","null","","","","Images/BlackBeadChoice.png","null"
"image-keyboard-response","529","1557147","0.0-4.0-2.169","13","High_HMMActual","null","","","","Images/BlackBeadChoiceCorrect.png","null"
"image-keyboard-response","530","1557418","0.0-4.0-0.170","13","High_HMMActual","267.89999999152496","","","","Images/NewTrialBC.png","37"
"image-keyboard-response","531","1557671","0.0-4.0-1.170","13","High_HMMActual","null","","","","Images/BlackBeadChoice.png","null"
"image-keyboard-response","532","1558174","0.0-4.0-2.170","13","High_HMMActual","null","","","","Images/BlackBeadChoiceCorrect.png","null"
"image-keyboard-response","533","1559382","0.0-4.0-0.171","13","High_HMMActual","1204.89999999688","","","","Images/NewTrialBC.png","39"
"image-keyboard-response","534","1559635","0.0-4.0-1.171","13","High_HMMActual","null","","","","Images/WhiteBeadChoice.png","null"
"image-keyboard-response","535","1560139","0.0-4.0-2.171","13","High_HMMActual","null","","","","Images/WhiteBeadChoiceWrong.png","null"
"image-keyboard-response","536","1560646","0.0-4.0-0.172","13","High_HMMActual","503.9000000106171","","","","Images/NewTrialBC.png","39"
"image-keyboard-response","537","1560899","0.0-4.0-1.172","13","High_HMMActual","null","","","","Images/WhiteBeadChoice.png","null"
"image-keyboard-response","538","1561403","0.0-4.0-2.172","13","High_HMMActual","null","","","","Images/WhiteBeadChoiceWrong.png","null"
"image-keyboard-response","539","1561411","0.0-4.0-0.173","13","High_HMMActual","5.599999989382923","","","","Images/NewTrialBC.png","39"
"image-keyboard-response","540","1561665","0.0-4.0-1.173","13","High_HMMActual","null","","","","Images/WhiteBeadChoice.png","null"
"image-keyboard-response","541","1562170","0.0-4.0-2.173","13","High_HMMActual","457.89999999385327","","","","Images/WhiteBeadChoiceWrong.png","39"
"image-keyboard-response","542","1562975","0.0-4.0-0.174","13","High_HMMActual","801.4000000113156","","","","Images/NewTrialBC.png","39"
"image-keyboard-response","543","1563229","0.0-4.0-1.174","13","High_HMMActual","null","","","","Images/WhiteBeadChoice.png","null"
"image-keyboard-response","544","1563734","0.0-4.0-2.174","13","High_HMMActual","null","","","","Images/WhiteBeadChoiceCorrect.png","null"
"image-keyboard-response","545","1564156","0.0-4.0-0.175","13","High_HMMActual","414.00000000419095","","","","Images/NewTrialWC.png","37"
"image-keyboard-response","546","1564409","0.0-4.0-1.175","13","High_HMMActual","null","","","","Images/BlackBeadChoice.png","null"
"image-keyboard-response","547","1564912","0.0-4.0-2.175","13","High_HMMActual","null","","","","Images/BlackBeadChoiceCorrect.png","null"
"image-keyboard-response","548","1565286","0.0-4.0-0.176","13","High_HMMActual","365.300000004936","","","","Images/NewTrialBC.png","39"
"image-keyboard-response","549","1565539","0.0-4.0-1.176","13","High_HMMActual","null","","","","Images/WhiteBeadChoice.png","null"
"image-keyboard-response","550","1566043","0.0-4.0-2.176","13","High_HMMActual","null","","","","Images/WhiteBeadChoiceCorrect.png","null"
"image-keyboard-response","551","1566282","0.0-4.0-0.177","13","High_HMMActual","234.2999999965541","","","","Images/NewTrialWC.png","37"
"image-keyboard-response","552","1566536","0.0-4.0-1.177","13","High_HMMActual","null","","","","Images/BlackBeadChoice.png","null"
"image-keyboard-response","553","1567040","0.0-4.0-2.177","13","High_HMMActual","null","","","","Images/BlackBeadChoiceWrong.png","null"
"image-keyboard-response","554","1567713","0.0-4.0-0.178","13","High_HMMActual","665.8000000023749","","","","Images/NewTrialWC.png","37"
"image-keyboard-response","555","1567966","0.0-4.0-1.178","13","High_HMMActual","null","","","","Images/BlackBeadChoice.png","null"
"image-keyboard-response","556","1568469","0.0-4.0-2.178","13","High_HMMActual","408.80000000447035","","","","Images/BlackBeadChoiceWrong.png","37"
"image-keyboard-response","557","1569227","0.0-4.0-0.179","13","High_HMMActual","755.099999994738","","","","Images/NewTrialWC.png","37"
"image-keyboard-response","558","1569481","0.0-4.0-1.179","13","High_HMMActual","null","","","","Images/BlackBeadChoice.png","null"
"image-keyboard-response","559","1569985","0.0-4.0-2.179","13","High_HMMActual","null","","","","Images/BlackBeadChoiceCorrect.png","null"
"image-keyboard-response","560","1570375","0.0-4.0-0.180","13","High_HMMActual","381.00000000861473","","","","Images/NewTrialBC.png","39"
"image-keyboard-response","561","1570628","0.0-4.0-1.180","13","High_HMMActual","null","","","","Images/WhiteBeadChoice.png","null"
"image-keyboard-response","562","1571133","0.0-4.0-2.180","13","High_HMMActual","null","","","","Images/WhiteBeadChoiceCorrect.png","null"
"image-keyboard-response","563","1572074","0.0-4.0-0.181","13","High_HMMActual","930.9999999967404","","","","Images/NewTrialWC.png","37"
"image-keyboard-response","564","1572327","0.0-4.0-1.181","13","High_HMMActual","null","","","","Images/BlackBeadChoice.png","null"
"image-keyboard-response","565","1572831","0.0-4.0-2.181","13","High_HMMActual","null","","","","Images/BlackBeadChoiceCorrect.png","null"
"image-keyboard-response","566","1573832","0.0-4.0-0.182","13","High_HMMActual","996.7000000034459","","","","Images/NewTrialBC.png","39"
"image-keyboard-response","567","1574085","0.0-4.0-1.182","13","High_HMMActual","null","","","","Images/WhiteBeadChoice.png","null"
"image-keyboard-response","568","1574589","0.0-4.0-2.182","13","High_HMMActual","null","","","","Images/WhiteBeadChoiceCorrect.png","null"
"image-keyboard-response","569","1574729","0.0-4.0-0.183","13","High_HMMActual","137.10000000707805","","","","Images/NewTrialWC.png","37"
"image-keyboard-response","570","1574983","0.0-4.0-1.183","13","High_HMMActual","null","","","","Images/BlackBeadChoice.png","null"
"image-keyboard-response","571","1575486","0.0-4.0-2.183","13","High_HMMActual","null","","","","Images/BlackBeadChoiceCorrect.png","null"
"image-keyboard-response","572","1575847","0.0-4.0-0.184","13","High_HMMActual","355.8999999947846","","","","Images/NewTrialBC.png","39"
"image-keyboard-response","573","1576100","0.0-4.0-1.184","13","High_HMMActual","null","","","","Images/WhiteBeadChoice.png","null"
"image-keyboard-response","574","1576604","0.0-4.0-2.184","13","High_HMMActual","null","","","","Images/WhiteBeadChoiceCorrect.png","null"
"image-keyboard-response","575","1576959","0.0-4.0-0.185","13","High_HMMActual","352.1000000035856","","","","Images/NewTrialWC.png","37"
"image-keyboard-response","576","1577213","0.0-4.0-1.185","13","High_HMMActual","null","","","","Images/BlackBeadChoice.png","null"
"image-keyboard-response","577","1577717","0.0-4.0-2.185","13","High_HMMActual","null","","","","Images/BlackBeadChoiceCorrect.png","null"
"image-keyboard-response","578","1577806","0.0-4.0-0.186","13","High_HMMActual","86.10000000032596","","","","Images/NewTrialBC.png","39"
"image-keyboard-response","579","1578059","0.0-4.0-1.186","13","High_HMMActual","null","","","","Images/WhiteBeadChoice.png","null"
"image-keyboard-response","580","1578562","0.0-4.0-2.186","13","High_HMMActual","null","","","","Images/WhiteBeadChoiceCorrect.png","null"
"image-keyboard-response","581","1579688","0.0-4.0-0.187","13","High_HMMActual","1122.1000000077765","","","","Images/NewTrialWC.png","37"
"image-keyboard-response","582","1579941","0.0-4.0-1.187","13","High_HMMActual","null","","","","Images/BlackBeadChoice.png","null"
"image-keyboard-response","583","1580443","0.0-4.0-2.187","13","High_HMMActual","null","","","","Images/BlackBeadChoiceCorrect.png","null"
"image-keyboard-response","584","1580750","0.0-4.0-0.188","13","High_HMMActual","303.89999999897555","","","","Images/NewTrialBC.png","39"
"image-keyboard-response","585","1581003","0.0-4.0-1.188","13","High_HMMActual","null","","","","Images/WhiteBeadChoice.png","null"
"image-keyboard-response","586","1581506","0.0-4.0-2.188","13","High_HMMActual","null","","","","Images/WhiteBeadChoiceCorrect.png","null"
"image-keyboard-response","587","1581863","0.0-4.0-0.189","13","High_HMMActual","354.59999999124557","","","","Images/NewTrialWC.png","37"
"image-keyboard-response","588","1582116","0.0-4.0-1.189","13","High_HMMActual","null","","","","Images/BlackBeadChoice.png","null"
"image-keyboard-response","589","1582619","0.0-4.0-2.189","13","High_HMMActual","null","","","","Images/BlackBeadChoiceCorrect.png","null"
"image-keyboard-response","590","1582947","0.0-4.0-0.190","13","High_HMMActual","324.9999999969732","","","","Images/NewTrialBC.png","39"
"image-keyboard-response","591","1583201","0.0-4.0-1.190","13","High_HMMActual","null","","","","Images/WhiteBeadChoice.png","null"
"image-keyboard-response","592","1583706","0.0-4.0-2.190","13","High_HMMActual","null","","","","Images/WhiteBeadChoiceCorrect.png","null"
"image-keyboard-response","593","1584275","0.0-4.0-0.191","13","High_HMMActual","560.5999999970663","","","","Images/NewTrialWC.png","37"
"image-keyboard-response","594","1584528","0.0-4.0-1.191","13","High_HMMActual","null","","","","Images/BlackBeadChoice.png","null"
"image-keyboard-response","595","1585031","0.0-4.0-2.191","13","High_HMMActual","null","","","","Images/BlackBeadChoiceCorrect.png","null"
"image-keyboard-response","596","1585374","0.0-4.0-0.192","13","High_HMMActual","335.7000000104308","","","","Images/NewTrialBC.png","39"
"image-keyboard-response","597","1585628","0.0-4.0-1.192","13","High_HMMActual","null","","","","Images/WhiteBeadChoice.png","null"
"image-keyboard-response","598","1586131","0.0-4.0-2.192","13","High_HMMActual","null","","","","Images/WhiteBeadChoiceCorrect.png","null"
"image-keyboard-response","599","1586421","0.0-4.0-0.193","13","High_HMMActual","281.79999999701977","","","","Images/NewTrialWC.png","37"
"image-keyboard-response","600","1586674","0.0-4.0-1.193","13","High_HMMActual","null","","","","Images/BlackBeadChoice.png","null"
"image-keyboard-response","601","1587178","0.0-4.0-2.193","13","High_HMMActual","null","","","","Images/BlackBeadChoiceCorrect.png","null"
"image-keyboard-response","602","1587469","0.0-4.0-0.194","13","High_HMMActual","285.49999999813735","","","","Images/NewTrialBC.png","39"
"image-keyboard-response","603","1587722","0.0-4.0-1.194","13","High_HMMActual","null","","","","Images/WhiteBeadChoice.png","null"
"image-keyboard-response","604","1588227","0.0-4.0-2.194","13","High_HMMActual","null","","","","Images/WhiteBeadChoiceCorrect.png","null"
"image-keyboard-response","605","1589464","0.0-4.0-0.195","13","High_HMMActual","1229.7000000106636","","","","Images/NewTrialWC.png","37"
"image-keyboard-response","606","1589717","0.0-4.0-1.195","13","High_HMMActual","null","","","","Images/BlackBeadChoice.png","null"
"image-keyboard-response","607","1590222","0.0-4.0-2.195","13","High_HMMActual","null","","","","Images/BlackBeadChoiceCorrect.png","null"
"image-keyboard-response","608","1593322","0.0-4.0-0.196","13","High_HMMActual","3097.6999999983236","","","","Images/NewTrialBC.png","39"
"image-keyboard-response","609","1593577","0.0-4.0-1.196","13","High_HMMActual","null","","","","Images/WhiteBeadChoice.png","null"
"image-keyboard-response","610","1594081","0.0-4.0-2.196","13","High_HMMActual","null","","","","Images/WhiteBeadChoiceCorrect.png","null"
"image-keyboard-response","611","1595568","0.0-4.0-0.197","13","High_HMMActual","1483.2000000025146","","","","Images/NewTrialWC.png","37"
"image-keyboard-response","612","1595821","0.0-4.0-1.197","13","High_HMMActual","null","","","","Images/BlackBeadChoice.png","null"
"image-keyboard-response","613","1596325","0.0-4.0-2.197","13","High_HMMActual","null","","","","Images/BlackBeadChoiceCorrect.png","null"
"image-keyboard-response","614","1597745","0.0-4.0-0.198","13","High_HMMActual","1412.8000000054017","","","","Images/NewTrialBC.png","39"
"image-keyboard-response","615","1597997","0.0-4.0-1.198","13","High_HMMActual","null","","","","Images/WhiteBeadChoice.png","null"
"image-keyboard-response","616","1598501","0.0-4.0-2.198","13","High_HMMActual","null","","","","Images/WhiteBeadChoiceCorrect.png","null"
"image-keyboard-response","617","1598910","0.0-4.0-0.199","13","High_HMMActual","405.8999999980442","","","","Images/NewTrialWC.png","37"
"image-keyboard-response","618","1599163","0.0-4.0-1.199","13","High_HMMActual","null","","","","Images/BlackBeadChoice.png","null"
"image-keyboard-response","619","1599667","0.0-4.0-2.199","13","High_HMMActual","null","","","","Images/BlackBeadChoiceCorrect.png","null"
"image-keyboard-response","620","1599928","0.0-4.0-0.200","13","High_HMMActual","252.7999999874737","","","","Images/NewTrialBC.png","39"
"image-keyboard-response","621","1600182","0.0-4.0-1.200","13","High_HMMActual","null","","","","Images/WhiteBeadChoice.png","null"
"image-keyboard-response","622","1600687","0.0-4.0-2.200","13","High_HMMActual","null","","","","Images/WhiteBeadChoiceCorrect.png","null"
"image-keyboard-response","623","1600708","0.0-4.0-0.201","13","High_HMMActual","12.400000006891787","","","","Images/NewTrialWC.png","37"
"image-keyboard-response","624","1600961","0.0-4.0-1.201","13","High_HMMActual","null","","","","Images/BlackBeadChoice.png","null"
"image-keyboard-response","625","1601466","0.0-4.0-2.201","13","High_HMMActual","null","","","","Images/BlackBeadChoiceCorrect.png","null"
"image-keyboard-response","626","1601971","0.0-4.0-0.202","13","High_HMMActual","497.7999999972526","","","","Images/NewTrialBC.png","39"
"image-keyboard-response","627","1602225","0.0-4.0-1.202","13","High_HMMActual","null","","","","Images/WhiteBeadChoice.png","null"
"image-keyboard-response","628","1602731","0.0-4.0-2.202","13","High_HMMActual","null","","","","Images/WhiteBeadChoiceWrong.png","null"
"image-keyboard-response","629","1603319","0.0-4.0-0.203","13","High_HMMActual","580.6000000012573","","","","Images/NewTrialBC.png","37"
"image-keyboard-response","630","1603574","0.0-4.0-1.203","13","High_HMMActual","null","","","","Images/BlackBeadChoice.png","null"
"image-keyboard-response","631","1604078","0.0-4.0-2.203","13","High_HMMActual","null","","","","Images/BlackBeadChoiceCorrect.png","null"
"image-keyboard-response","632","1604948","0.0-4.0-0.204","13","High_HMMActual","862.1000000131316","","","","Images/NewTrialBC.png","39"
"image-keyboard-response","633","1605202","0.0-4.0-1.204","13","High_HMMActual","null","","","","Images/WhiteBeadChoice.png","null"
"image-keyboard-response","634","1605706","0.0-4.0-2.204","13","High_HMMActual","null","","","","Images/WhiteBeadChoiceCorrect.png","null"
"image-keyboard-response","635","1605910","0.0-4.0-0.205","13","High_HMMActual","200.4000000017695","","","","Images/NewTrialWC.png","37"
"image-keyboard-response","636","1606163","0.0-4.0-1.205","13","High_HMMActual","null","","","","Images/BlackBeadChoice.png","null"
"image-keyboard-response","637","1606667","0.0-4.0-2.205","13","High_HMMActual","null","","","","Images/BlackBeadChoiceCorrect.png","null"
"image-keyboard-response","638","1607656","0.0-4.0-0.206","13","High_HMMActual","981.4999999944121","","","","Images/NewTrialBC.png","39"
"image-keyboard-response","639","1607910","0.0-4.0-1.206","13","High_HMMActual","null","","","","Images/WhiteBeadChoice.png","null"
"image-keyboard-response","640","1608414","0.0-4.0-2.206","13","High_HMMActual","null","","","","Images/WhiteBeadChoiceCorrect.png","null"
"image-keyboard-response","641","1608687","0.0-4.0-0.207","13","High_HMMActual","269.7000000043772","","","","Images/NewTrialWC.png","37"
"image-keyboard-response","642","1608940","0.0-4.0-1.207","13","High_HMMActual","null","","","","Images/BlackBeadChoice.png","null"
"image-keyboard-response","643","1609443","0.0-4.0-2.207","13","High_HMMActual","null","","","","Images/BlackBeadChoiceCorrect.png","null"
"image-keyboard-response","644","1610402","0.0-4.0-0.208","13","High_HMMActual","951.5000000100117","","","","Images/NewTrialBC.png","39"
"image-keyboard-response","645","1610656","0.0-4.0-1.208","13","High_HMMActual","null","","","","Images/WhiteBeadChoice.png","null"
"image-keyboard-response","646","1611161","0.0-4.0-2.208","13","High_HMMActual","null","","","","Images/WhiteBeadChoiceWrong.png","null"
"image-keyboard-response","647","1611663","0.0-4.0-0.209","13","High_HMMActual","498.09999999706633","","","","Images/NewTrialBC.png","37"
"image-keyboard-response","648","1611916","0.0-4.0-1.209","13","High_HMMActual","null","","","","Images/BlackBeadChoice.png","null"
"image-keyboard-response","649","1612421","0.0-4.0-2.209","13","High_HMMActual","null","","","","Images/BlackBeadChoiceWrong.png","null"
"image-keyboard-response","650","1613459","0.0-4.0-0.210","13","High_HMMActual","1031.0000000025611","","","","Images/NewTrialWC.png","37"
"image-keyboard-response","651","1613713","0.0-4.0-1.210","13","High_HMMActual","null","","","","Images/BlackBeadChoice.png","null"
"image-keyboard-response","652","1614216","0.0-4.0-2.210","13","High_HMMActual","null","","","","Images/BlackBeadChoiceWrong.png","null"
"image-keyboard-response","653","1614774","0.0-4.0-0.211","13","High_HMMActual","553.8999999989755","","","","Images/NewTrialWC.png","37"
"image-keyboard-response","654","1615028","0.0-4.0-1.211","13","High_HMMActual","null","","","","Images/BlackBeadChoice.png","null"
"image-keyboard-response","655","1615533","0.0-4.0-2.211","13","High_HMMActual","null","","","","Images/BlackBeadChoiceWrong.png","null"
"image-keyboard-response","656","1615638","0.0-4.0-0.212","13","High_HMMActual","96.99999999417923","","","","Images/NewTrialWC.png","37"
"image-keyboard-response","657","1615890","0.0-4.0-1.212","13","High_HMMActual","null","","","","Images/BlackBeadChoice.png","null"
"image-keyboard-response","658","1616393","0.0-4.0-2.212","13","High_HMMActual","392.99999999650754","","","","Images/BlackBeadChoiceWrong.png","37"
"image-keyboard-response","659","1617119","0.0-4.0-0.213","13","High_HMMActual","721.6000000045169","","","","Images/NewTrialWC.png","37"
"image-keyboard-response","660","1617372","0.0-4.0-1.213","13","High_HMMActual","null","","","","Images/BlackBeadChoice.png","null"
"image-keyboard-response","661","1617875","0.0-4.0-2.213","13","High_HMMActual","460.5000000009313","","","","Images/BlackBeadChoiceWrong.png","37"
"image-keyboard-response","662","1618433","0.0-4.0-0.214","13","High_HMMActual","554.499999998603","","","","Images/NewTrialWC.png","37"
"image-keyboard-response","663","1618687","0.0-4.0-1.214","13","High_HMMActual","null","","","","Images/BlackBeadChoice.png","null"
"image-keyboard-response","664","1619191","0.0-4.0-2.214","13","High_HMMActual","null","","","","Images/BlackBeadChoiceCorrect.png","null"
"image-keyboard-response","665","1619698","0.0-4.0-0.215","13","High_HMMActual","501.80000001285225","","","","Images/NewTrialBC.png","39"
"image-keyboard-response","666","1619953","0.0-4.0-1.215","13","High_HMMActual","null","","","","Images/WhiteBeadChoice.png","null"
"image-keyboard-response","667","1620458","0.0-4.0-2.215","13","High_HMMActual","null","","","","Images/WhiteBeadChoiceCorrect.png","null"
"image-keyboard-response","668","1621494","0.0-4.0-0.216","13","High_HMMActual","1028.000000005588","","","","Images/NewTrialWC.png","37"
"image-keyboard-response","669","1621749","0.0-4.0-1.216","13","High_HMMActual","null","","","","Images/BlackBeadChoice.png","null"
"image-keyboard-response","670","1622253","0.0-4.0-2.216","13","High_HMMActual","null","","","","Images/BlackBeadChoiceCorrect.png","null"
"image-keyboard-response","671","1623604","0.0-4.0-0.217","13","High_HMMActual","1341.2000000097323","","","","Images/NewTrialBC.png","39"
"image-keyboard-response","672","1623857","0.0-4.0-1.217","13","High_HMMActual","null","","","","Images/WhiteBeadChoice.png","null"
"image-keyboard-response","673","1624360","0.0-4.0-2.217","13","High_HMMActual","null","","","","Images/WhiteBeadChoiceCorrect.png","null"
"image-keyboard-response","674","1625566","0.0-4.0-0.218","13","High_HMMActual","1203.9999999981374","","","","Images/NewTrialWC.png","37"
"image-keyboard-response","675","1625820","0.0-4.0-1.218","13","High_HMMActual","null","","","","Images/BlackBeadChoice.png","null"
"image-keyboard-response","676","1626323","0.0-4.0-2.218","13","High_HMMActual","null","","","","Images/BlackBeadChoiceCorrect.png","null"
"image-keyboard-response","677","1628930","0.0-4.0-0.219","13","High_HMMActual","2604.0000000065193","","","","Images/NewTrialBC.png","39"
"image-keyboard-response","678","1629184","0.0-4.0-1.219","13","High_HMMActual","null","","","","Images/WhiteBeadChoice.png","null"
"image-keyboard-response","679","1629688","0.0-4.0-2.219","13","High_HMMActual","null","","","","Images/WhiteBeadChoiceWrong.png","null"
"image-keyboard-response","680","1629807","0.0-4.0-0.220","13","High_HMMActual","114.99999999068677","","","","Images/NewTrialBC.png","39"
"image-keyboard-response","681","1630060","0.0-4.0-1.220","13","High_HMMActual","null","","","","Images/WhiteBeadChoice.png","null"
"image-keyboard-response","682","1630563","0.0-4.0-2.220","13","High_HMMActual","null","","","","Images/WhiteBeadChoiceCorrect.png","null"
"image-keyboard-response","683","1630939","0.0-4.0-0.221","13","High_HMMActual","372.1999999980908","","","","Images/NewTrialWC.png","37"
"image-keyboard-response","684","1631193","0.0-4.0-1.221","13","High_HMMActual","null","","","","Images/BlackBeadChoice.png","null"
"image-keyboard-response","685","1631697","0.0-4.0-2.221","13","High_HMMActual","null","","","","Images/BlackBeadChoiceCorrect.png","null"
"image-keyboard-response","686","1632618","0.0-4.0-0.222","13","High_HMMActual","917.3999999910593","","","","Images/NewTrialBC.png","39"
"image-keyboard-response","687","1632872","0.0-4.0-1.222","13","High_HMMActual","null","","","","Images/WhiteBeadChoice.png","null"
"image-keyboard-response","688","1633376","0.0-4.0-2.222","13","High_HMMActual","null","","","","Images/WhiteBeadChoiceWrong.png","null"
"image-keyboard-response","689","1633455","0.0-4.0-0.223","13","High_HMMActual","73.40000000828877","","","","Images/NewTrialBC.png","39"
"image-keyboard-response","690","1633709","0.0-4.0-1.223","13","High_HMMActual","null","","","","Images/WhiteBeadChoice.png","null"
"image-keyboard-response","691","1634215","0.0-4.0-2.223","13","High_HMMActual","null","","","","Images/WhiteBeadChoiceWrong.png","null"
"image-keyboard-response","692","1635182","0.0-4.0-0.224","13","High_HMMActual","958.8999999980442","","","","Images/NewTrialBC.png","39"
"image-keyboard-response","693","1635436","0.0-4.0-1.224","13","High_HMMActual","null","","","","Images/WhiteBeadChoice.png","null"
"image-keyboard-response","694","1635941","0.0-4.0-2.224","13","High_HMMActual","null","","","","Images/WhiteBeadChoiceCorrect.png","null"
"image-keyboard-response","695","1636310","0.0-4.0-0.225","13","High_HMMActual","365.0000000053551","","","","Images/NewTrialWC.png","37"
"image-keyboard-response","696","1636563","0.0-4.0-1.225","13","High_HMMActual","null","","","","Images/BlackBeadChoice.png","null"
"image-keyboard-response","697","1637066","0.0-4.0-2.225","13","High_HMMActual","null","","","","Images/BlackBeadChoiceCorrect.png","null"
"image-keyboard-response","698","1638605","0.0-4.0-0.226","13","High_HMMActual","1535.600000002887","","","","Images/NewTrialBC.png","39"
"image-keyboard-response","699","1638859","0.0-4.0-1.226","13","High_HMMActual","null","","","","Images/WhiteBeadChoice.png","null"
"image-keyboard-response","700","1639363","0.0-4.0-2.226","13","High_HMMActual","null","","","","Images/WhiteBeadChoiceCorrect.png","null"
"image-keyboard-response","701","1639884","0.0-4.0-0.227","13","High_HMMActual","517.8999999917578","","","","Images/NewTrialWC.png","37"
"image-keyboard-response","702","1640137","0.0-4.0-1.227","13","High_HMMActual","null","","","","Images/BlackBeadChoice.png","null"
"image-keyboard-response","703","1640641","0.0-4.0-2.227","13","High_HMMActual","null","","","","Images/BlackBeadChoiceCorrect.png","null"
"image-keyboard-response","704","1641881","0.0-4.0-0.228","13","High_HMMActual","1233.8000000016764","","","","Images/NewTrialBC.png","39"
"image-keyboard-response","705","1642134","0.0-4.0-1.228","13","High_HMMActual","null","","","","Images/WhiteBeadChoice.png","null"
"image-keyboard-response","706","1642639","0.0-4.0-2.228","13","High_HMMActual","null","","","","Images/WhiteBeadChoiceCorrect.png","null"
"image-keyboard-response","707","1643077","0.0-4.0-0.229","13","High_HMMActual","435.7000000018161","","","","Images/NewTrialWC.png","37"
"image-keyboard-response","708","1643330","0.0-4.0-1.229","13","High_HMMActual","null","","","","Images/BlackBeadChoice.png","null"
"image-keyboard-response","709","1643834","0.0-4.0-2.229","13","High_HMMActual","null","","","","Images/BlackBeadChoiceWrong.png","null"
"image-keyboard-response","710","1648090","0.0-4.0-0.230","13","High_HMMActual","4250.400000004331","","","","Images/NewTrialWC.png","37"
