"trial_type","trial_index","time_elapsed","internal_node_id","Script_Picker","Block_Type","rt","url","responses","question_order","stimulus","key_press"
"pavlovia","0","5","0.0-0.0","4","High_HMMActual","","","","","",""
"external-html","1","40752","0.0-1.0-0.0","4","High_HMMActual","40638.81500000025","consent.html","","","",""
"survey-multi-choice","2","87215","0.0-1.0-1.0","4","High_HMMActual","46457.31999999953","","{""Q0"":""Female"",""Q1"":""White""}","[0,1]","",""
"survey-text","3","91764","0.0-1.0-2.0","4","High_HMMActual","4538.995000000796","","{""Q0"":""35""}","","",""
"survey-text","4","96328","0.0-1.0-3.0","4","High_HMMActual","4459.335000001374","","{""Q0"":""5d612ae16512d700159face7""}","","",""
"html-keyboard-response","5","122853","0.0-2.0-0.0","4","High_HMMActual","26418.734999999288","","","","<div class=""container"" style=""height:800px;width:800px;display:flex;flex-direction:column;justify-content:center;align-items:center;text-align:center;font-weight:normal;font-family:Arial;font-size:20px""><p>In this task you will see black or white beads being pulled from jars. <br><br>On each trial, a bead will be pulled from one of two jars. Once you see this bead, your goal is to predict the color of NEXT bead that will be pulled. <br> <br>Every time you correctly guess the color of the NEXT bead, you will get a point. <br><br>Press the SPACEBAR to continue.</p><div>","32"
"html-keyboard-response","6","136596","0.0-2.0-1.0","4","High_HMMActual","13741.434999999896","","","","<div class=""container"" style=""height:800px;width:800px;display:flex;flex-direction:column;justify-content:center;align-items:center;text-align:center;font-weight:normal;font-family:Arial;font-size:20px""><p>Jars are filled with 85% white or black beads and 15% of the opposite color mixed in<br><br>Press the SPACEBAR to continue. </p><div>","32"
"image-keyboard-response","7","142637","0.0-2.0-2.0","4","High_HMMActual","6037.395000001183","","","","resources/WhiteJar_HMM.png","32"
"image-keyboard-response","8","146162","0.0-2.0-3.0","4","High_HMMActual","3522.324999999895","","","","resources/BlackJar_HMM.png","32"
"html-keyboard-response","9","157638","0.0-2.0-4.0","4","High_HMMActual","11474.754999999248","","","","<div class=""container"" style=""height:800px;width:800px;display:flex;flex-direction:column;justify-content:center;align-items:center;text-align:center;font-weight:normal;font-family:Arial;font-size:20px""><p>There will be two blocks of trials. Each block will contain 500 trials. <br><br>Here are examples of what you will see on each trial.<br><br>Press the SPACEBAR to continue. </p><div>","32"
"image-keyboard-response","10","161727","0.0-2.0-5.0","4","High_HMMActual","4086.5250000006054","","","","Images/NoChoice.png","32"
"html-keyboard-response","11","196634","0.0-2.0-6.0","4","High_HMMActual","34906.064999999246","","","","<div class=""container"" style=""height:800px;width:800px;display:flex;flex-direction:column;justify-content:center;align-items:center;text-align:center;font-weight:normal;font-family:Arial;font-size:20px""><p> The jar the beads are pulled from is NOT choosen at random on each trial.<br><br>After each prediction, there will be a chance that the jars will switch, and that the next bead will be pulled from the opposite jar as the previous trial.<br><br>In each block, the chance that a jar will switch will either be LOW (the jars will not switch very often), or HIGH (the jars will switch almost all the time).<br><br>At the start of each block, you will be told the probability that the jars will switch on each trial. This switch probability will stay constant throughout the block.<br><br>Press the SPACEBAR to continue. </p><div>","32"
"image-keyboard-response","12","219031","0.0-2.0-7.0","4","High_HMMActual","22394.949999999895","","","","Images/TutorialWhiteJarDrawHMMC.png","32"
"image-keyboard-response","13","223359","0.0-2.0-8.0","4","High_HMMActual","4324.964999999793","","","","Images/TutorialBlackJarDrawHMMC.png","32"
"image-keyboard-response","14","226446","0.0-2.0-9.0","4","High_HMMActual","3085.919999999518","","","","Images/TutorialBlackJarDrawHMMI.png","32"
"html-keyboard-response","15","253329","0.0-2.0-10.0","4","High_HMMActual","26881.004999999248","","","","<div class=""container"" style=""height:800px;width:800px;display:flex;flex-direction:column;justify-content:center;align-items:center;text-align:center;font-weight:normal;font-family:Arial;font-size:20px""><p> As you observed, a white bead was pulled from a 85% white jar, the jars switched and a black bead was pulled from the 85% black jar, but then low-probability white bead was pulled from the 90% black jar. <br><br>In these mixed-jar blocks, you will first have to figure out which jar the current bead was pulled from, then use the jar switch probability to predict the color of the next bead.<br><br>Press SPACEBAR to conitnue.</p><div>","32"
"html-keyboard-response","16","258096","0.0-2.0-11.0","4","High_HMMActual","4764.850000001374","","","","<div class=""container"" style=""height:800px;width:800px;display:flex;flex-direction:column;justify-content:center;align-items:center;text-align:center;font-weight:normal;font-family:Arial;font-size:20px""><p> You will now be given a 2 question quiz to make sure you understand the fundamentals. </p><div>","32"
"image-keyboard-response","17","368303","0.0-2.0-12.0","4","High_HMMActual","110204.68000000075","","","","Images/TutorialQuestion1.png","39"
"image-keyboard-response","18","393128","0.0-2.0-13.0","4","High_HMMActual","22109.08000000019","","","","Images/TutorialQuestion2.png","38"
"html-keyboard-response","19","442823","0.0-3.0","4","High_HMMActual","47941.14500000066","","","","<div class=""container"" style=""height:800px;width:800px;display:flex;flex-direction:column;justify-content:center;align-items:center;text-align:center;font-weight:normal;font-family:Arial;font-size:20px""><p>Loading episode&hellip;</p><div>","32"
"image-keyboard-response","20","476570","0.0-4.0-0.0","4","High_HMMActual","33743.98999999906","","","","Images/NoChoice.png","39"
"image-keyboard-response","21","476824","0.0-4.0-1.0","4","High_HMMActual","205.20499999838648","","","","Images/WhiteBeadChoice.png","39"
"image-keyboard-response","22","477328","0.0-4.0-2.0","4","High_HMMActual","null","","","","Images/WhiteBeadChoiceWrong.png","null"
"image-keyboard-response","23","483768","0.0-4.0-0.1","4","High_HMMActual","6437.0849999996135","","","","Images/NewTrialBC.png","37"
"image-keyboard-response","24","484021","0.0-4.0-1.1","4","High_HMMActual","null","","","","Images/BlackBeadChoice.png","null"
"image-keyboard-response","25","484523","0.0-4.0-2.1","4","High_HMMActual","null","","","","Images/BlackBeadChoiceWrong.png","null"
"image-keyboard-response","26","492460","0.0-4.0-0.2","4","High_HMMActual","7934.71000000136","","","","Images/NewTrialWC.png","39"
"image-keyboard-response","27","492712","0.0-4.0-1.2","4","High_HMMActual","null","","","","Images/WhiteBeadChoice.png","null"
"image-keyboard-response","28","493215","0.0-4.0-2.2","4","High_HMMActual","null","","","","Images/WhiteBeadChoiceWrong.png","null"
"image-keyboard-response","29","497075","0.0-4.0-0.3","4","High_HMMActual","3857.144999999902","","","","Images/NewTrialBC.png","39"
"image-keyboard-response","30","497328","0.0-4.0-1.3","4","High_HMMActual","null","","","","Images/WhiteBeadChoice.png","null"
"image-keyboard-response","31","497830","0.0-4.0-2.3","4","High_HMMActual","null","","","","Images/WhiteBeadChoiceCorrect.png","null"
"image-keyboard-response","32","499559","0.0-4.0-0.4","4","High_HMMActual","1727.4149999993388","","","","Images/NewTrialWC.png","39"
"image-keyboard-response","33","499812","0.0-4.0-1.4","4","High_HMMActual","null","","","","Images/WhiteBeadChoice.png","null"
"image-keyboard-response","34","500315","0.0-4.0-2.4","4","High_HMMActual","null","","","","Images/WhiteBeadChoiceWrong.png","null"
"image-keyboard-response","35","501773","0.0-4.0-0.5","4","High_HMMActual","1456.3600000001024","","","","Images/NewTrialBC.png","37"
"image-keyboard-response","36","502026","0.0-4.0-1.5","4","High_HMMActual","null","","","","Images/BlackBeadChoice.png","null"
"image-keyboard-response","37","502529","0.0-4.0-2.5","4","High_HMMActual","null","","","","Images/BlackBeadChoiceWrong.png","null"
"image-keyboard-response","38","503869","0.0-4.0-0.6","4","High_HMMActual","1338.424999999872","","","","Images/NewTrialWC.png","39"
"image-keyboard-response","39","504123","0.0-4.0-1.6","4","High_HMMActual","null","","","","Images/WhiteBeadChoice.png","null"
"image-keyboard-response","40","504626","0.0-4.0-2.6","4","High_HMMActual","null","","","","Images/WhiteBeadChoiceWrong.png","null"
"image-keyboard-response","41","506812","0.0-4.0-0.7","4","High_HMMActual","2184.1750000003376","","","","Images/NewTrialBC.png","37"
"image-keyboard-response","42","507065","0.0-4.0-1.7","4","High_HMMActual","null","","","","Images/BlackBeadChoice.png","null"
"image-keyboard-response","43","507569","0.0-4.0-2.7","4","High_HMMActual","null","","","","Images/BlackBeadChoiceWrong.png","null"
"image-keyboard-response","44","509943","0.0-4.0-0.8","4","High_HMMActual","2372.699999999837","","","","Images/NewTrialWC.png","39"
"image-keyboard-response","45","510195","0.0-4.0-1.8","4","High_HMMActual","null","","","","Images/WhiteBeadChoice.png","null"
"image-keyboard-response","46","510698","0.0-4.0-2.8","4","High_HMMActual","null","","","","Images/WhiteBeadChoiceCorrect.png","null"
"image-keyboard-response","47","512948","0.0-4.0-0.9","4","High_HMMActual","2247.760000000242","","","","Images/NewTrialWC.png","37"
"image-keyboard-response","48","513200","0.0-4.0-1.9","4","High_HMMActual","null","","","","Images/BlackBeadChoice.png","null"
"image-keyboard-response","49","513703","0.0-4.0-2.9","4","High_HMMActual","null","","","","Images/BlackBeadChoiceWrong.png","null"
"image-keyboard-response","50","514862","0.0-4.0-0.10","4","High_HMMActual","1156.859999999113","","","","Images/NewTrialWC.png","37"
"image-keyboard-response","51","515114","0.0-4.0-1.10","4","High_HMMActual","null","","","","Images/BlackBeadChoice.png","null"
"image-keyboard-response","52","515617","0.0-4.0-2.10","4","High_HMMActual","null","","","","Images/BlackBeadChoiceWrong.png","null"
"image-keyboard-response","53","516380","0.0-4.0-0.11","4","High_HMMActual","760.6199999991222","","","","Images/NewTrialWC.png","37"
"image-keyboard-response","54","516632","0.0-4.0-1.11","4","High_HMMActual","null","","","","Images/BlackBeadChoice.png","null"
"image-keyboard-response","55","517137","0.0-4.0-2.11","4","High_HMMActual","null","","","","Images/BlackBeadChoiceWrong.png","null"
"image-keyboard-response","56","518359","0.0-4.0-0.12","4","High_HMMActual","1219.995000001276","","","","Images/NewTrialWC.png","37"
"image-keyboard-response","57","518612","0.0-4.0-1.12","4","High_HMMActual","null","","","","Images/BlackBeadChoice.png","null"
"image-keyboard-response","58","519115","0.0-4.0-2.12","4","High_HMMActual","null","","","","Images/BlackBeadChoiceCorrect.png","null"
"image-keyboard-response","59","520179","0.0-4.0-0.13","4","High_HMMActual","1061.7000000001863","","","","Images/NewTrialBC.png","37"
"image-keyboard-response","60","520431","0.0-4.0-1.13","4","High_HMMActual","null","","","","Images/BlackBeadChoice.png","null"
"image-keyboard-response","61","520933","0.0-4.0-2.13","4","High_HMMActual","null","","","","Images/BlackBeadChoiceWrong.png","null"
"image-keyboard-response","62","523152","0.0-4.0-0.14","4","High_HMMActual","2216.674999999639","","","","Images/NewTrialWC.png","37"
"image-keyboard-response","63","523405","0.0-4.0-1.14","4","High_HMMActual","null","","","","Images/BlackBeadChoice.png","null"
"image-keyboard-response","64","523908","0.0-4.0-2.14","4","High_HMMActual","null","","","","Images/BlackBeadChoiceCorrect.png","null"
"image-keyboard-response","65","524842","0.0-4.0-0.15","4","High_HMMActual","932.1650000001537","","","","Images/NewTrialBC.png","37"
"image-keyboard-response","66","525094","0.0-4.0-1.15","4","High_HMMActual","null","","","","Images/BlackBeadChoice.png","null"
"image-keyboard-response","67","525597","0.0-4.0-2.15","4","High_HMMActual","null","","","","Images/BlackBeadChoiceWrong.png","null"
"image-keyboard-response","68","526428","0.0-4.0-0.16","4","High_HMMActual","828.7000000000698","","","","Images/NewTrialWC.png","39"
"image-keyboard-response","69","526684","0.0-4.0-1.16","4","High_HMMActual","null","","","","Images/WhiteBeadChoice.png","null"
"image-keyboard-response","70","527188","0.0-4.0-2.16","4","High_HMMActual","null","","","","Images/WhiteBeadChoiceCorrect.png","null"
"image-keyboard-response","71","528925","0.0-4.0-0.17","4","High_HMMActual","1736.095000000205","","","","Images/NewTrialWC.png","39"
"image-keyboard-response","72","529178","0.0-4.0-1.17","4","High_HMMActual","null","","","","Images/WhiteBeadChoice.png","null"
"image-keyboard-response","73","529681","0.0-4.0-2.17","4","High_HMMActual","null","","","","Images/WhiteBeadChoiceCorrect.png","null"
"image-keyboard-response","74","531508","0.0-4.0-0.18","4","High_HMMActual","1824.2150000005495","","","","Images/NewTrialWC.png","37"
"image-keyboard-response","75","531760","0.0-4.0-1.18","4","High_HMMActual","null","","","","Images/BlackBeadChoice.png","null"
"image-keyboard-response","76","532263","0.0-4.0-2.18","4","High_HMMActual","null","","","","Images/BlackBeadChoiceWrong.png","null"
"image-keyboard-response","77","533144","0.0-4.0-0.19","4","High_HMMActual","879.1450000008335","","","","Images/NewTrialWC.png","39"
"image-keyboard-response","78","533396","0.0-4.0-1.19","4","High_HMMActual","null","","","","Images/WhiteBeadChoice.png","null"
"image-keyboard-response","79","533898","0.0-4.0-2.19","4","High_HMMActual","null","","","","Images/WhiteBeadChoiceCorrect.png","null"
"image-keyboard-response","80","535245","0.0-4.0-0.20","4","High_HMMActual","1344.7950000008568","","","","Images/NewTrialWC.png","37"
"image-keyboard-response","81","535497","0.0-4.0-1.20","4","High_HMMActual","null","","","","Images/BlackBeadChoice.png","null"
"image-keyboard-response","82","536000","0.0-4.0-2.20","4","High_HMMActual","null","","","","Images/BlackBeadChoiceCorrect.png","null"
"image-keyboard-response","83","537631","0.0-4.0-0.21","4","High_HMMActual","1628.545000001439","","","","Images/NewTrialBC.png","37"
"image-keyboard-response","84","537883","0.0-4.0-1.21","4","High_HMMActual","null","","","","Images/BlackBeadChoice.png","null"
"image-keyboard-response","85","538386","0.0-4.0-2.21","4","High_HMMActual","null","","","","Images/BlackBeadChoiceWrong.png","null"
"image-keyboard-response","86","540348","0.0-4.0-0.22","4","High_HMMActual","1959.890000000014","","","","Images/NewTrialWC.png","39"
"image-keyboard-response","87","540600","0.0-4.0-1.22","4","High_HMMActual","null","","","","Images/WhiteBeadChoice.png","null"
"image-keyboard-response","88","541103","0.0-4.0-2.22","4","High_HMMActual","null","","","","Images/WhiteBeadChoiceWrong.png","null"
"image-keyboard-response","89","541854","0.0-4.0-0.23","4","High_HMMActual","749.3450000000885","","","","Images/NewTrialBC.png","39"
"image-keyboard-response","90","542107","0.0-4.0-1.23","4","High_HMMActual","null","","","","Images/WhiteBeadChoice.png","null"
"image-keyboard-response","91","542610","0.0-4.0-2.23","4","High_HMMActual","null","","","","Images/WhiteBeadChoiceCorrect.png","null"
"image-keyboard-response","92","544185","0.0-4.0-0.24","4","High_HMMActual","1572.7150000002002","","","","Images/NewTrialWC.png","39"
"image-keyboard-response","93","544438","0.0-4.0-1.24","4","High_HMMActual","null","","","","Images/WhiteBeadChoice.png","null"
"image-keyboard-response","94","544941","0.0-4.0-2.24","4","High_HMMActual","null","","","","Images/WhiteBeadChoiceCorrect.png","null"
"image-keyboard-response","95","545929","0.0-4.0-0.25","4","High_HMMActual","986.2850000008475","","","","Images/NewTrialWC.png","39"
"image-keyboard-response","96","546181","0.0-4.0-1.25","4","High_HMMActual","null","","","","Images/WhiteBeadChoice.png","null"
"image-keyboard-response","97","546683","0.0-4.0-2.25","4","High_HMMActual","null","","","","Images/WhiteBeadChoiceCorrect.png","null"
"image-keyboard-response","98","547968","0.0-4.0-0.26","4","High_HMMActual","1282.4299999992363","","","","Images/NewTrialWC.png","39"
"image-keyboard-response","99","548221","0.0-4.0-1.26","4","High_HMMActual","null","","","","Images/WhiteBeadChoice.png","null"
"image-keyboard-response","100","548724","0.0-4.0-2.26","4","High_HMMActual","null","","","","Images/WhiteBeadChoiceWrong.png","null"
"image-keyboard-response","101","549989","0.0-4.0-0.27","4","High_HMMActual","1262.2049999991432","","","","Images/NewTrialBC.png","37"
"image-keyboard-response","102","550242","0.0-4.0-1.27","4","High_HMMActual","null","","","","Images/BlackBeadChoice.png","null"
"image-keyboard-response","103","550745","0.0-4.0-2.27","4","High_HMMActual","null","","","","Images/BlackBeadChoiceWrong.png","null"
"image-keyboard-response","104","552870","0.0-4.0-0.28","4","High_HMMActual","2122.554999999935","","","","Images/NewTrialWC.png","37"
"image-keyboard-response","105","553122","0.0-4.0-1.28","4","High_HMMActual","null","","","","Images/BlackBeadChoice.png","null"
"image-keyboard-response","106","553625","0.0-4.0-2.28","4","High_HMMActual","null","","","","Images/BlackBeadChoiceCorrect.png","null"
"image-keyboard-response","107","554248","0.0-4.0-0.29","4","High_HMMActual","621.3499999993946","","","","Images/NewTrialBC.png","37"
"image-keyboard-response","108","554502","0.0-4.0-1.29","4","High_HMMActual","null","","","","Images/BlackBeadChoice.png","null"
"image-keyboard-response","109","555004","0.0-4.0-2.29","4","High_HMMActual","null","","","","Images/BlackBeadChoiceCorrect.png","null"
"image-keyboard-response","110","555584","0.0-4.0-0.30","4","High_HMMActual","577.6850000001723","","","","Images/NewTrialBC.png","37"
"image-keyboard-response","111","555837","0.0-4.0-1.30","4","High_HMMActual","null","","","","Images/BlackBeadChoice.png","null"
"image-keyboard-response","112","556340","0.0-4.0-2.30","4","High_HMMActual","null","","","","Images/BlackBeadChoiceWrong.png","null"
"image-keyboard-response","113","557434","0.0-4.0-0.31","4","High_HMMActual","1092.4200000008568","","","","Images/NewTrialWC.png","39"
"image-keyboard-response","114","557688","0.0-4.0-1.31","4","High_HMMActual","null","","","","Images/WhiteBeadChoice.png","null"
"image-keyboard-response","115","558191","0.0-4.0-2.31","4","High_HMMActual","null","","","","Images/WhiteBeadChoiceCorrect.png","null"
"image-keyboard-response","116","558930","0.0-4.0-0.32","4","High_HMMActual","737.1650000005029","","","","Images/NewTrialWC.png","39"
"image-keyboard-response","117","559183","0.0-4.0-1.32","4","High_HMMActual","null","","","","Images/WhiteBeadChoice.png","null"
"image-keyboard-response","118","559686","0.0-4.0-2.32","4","High_HMMActual","null","","","","Images/WhiteBeadChoiceCorrect.png","null"
"image-keyboard-response","119","560687","0.0-4.0-0.33","4","High_HMMActual","999.8349999986822","","","","Images/NewTrialWC.png","37"
"image-keyboard-response","120","560939","0.0-4.0-1.33","4","High_HMMActual","null","","","","Images/BlackBeadChoice.png","null"
"image-keyboard-response","121","561443","0.0-4.0-2.33","4","High_HMMActual","null","","","","Images/BlackBeadChoiceCorrect.png","null"
"image-keyboard-response","122","562741","0.0-4.0-0.34","4","High_HMMActual","1295.910000000731","","","","Images/NewTrialBC.png","37"
"image-keyboard-response","123","562994","0.0-4.0-1.34","4","High_HMMActual","null","","","","Images/BlackBeadChoice.png","null"
"image-keyboard-response","124","563497","0.0-4.0-2.34","4","High_HMMActual","null","","","","Images/BlackBeadChoiceCorrect.png","null"
"image-keyboard-response","125","564270","0.0-4.0-0.35","4","High_HMMActual","771.0349999997998","","","","Images/NewTrialBC.png","37"
"image-keyboard-response","126","564522","0.0-4.0-1.35","4","High_HMMActual","null","","","","Images/BlackBeadChoice.png","null"
"image-keyboard-response","127","565025","0.0-4.0-2.35","4","High_HMMActual","null","","","","Images/BlackBeadChoiceCorrect.png","null"
"image-keyboard-response","128","565623","0.0-4.0-0.36","4","High_HMMActual","595.9549999989104","","","","Images/NewTrialBC.png","37"
"image-keyboard-response","129","565875","0.0-4.0-1.36","4","High_HMMActual","null","","","","Images/BlackBeadChoice.png","null"
"image-keyboard-response","130","566378","0.0-4.0-2.36","4","High_HMMActual","null","","","","Images/BlackBeadChoiceWrong.png","null"
"image-keyboard-response","131","567496","0.0-4.0-0.37","4","High_HMMActual","1115.2399999991758","","","","Images/NewTrialWC.png","39"
"image-keyboard-response","132","567749","0.0-4.0-1.37","4","High_HMMActual","null","","","","Images/WhiteBeadChoice.png","null"
"image-keyboard-response","133","568252","0.0-4.0-2.37","4","High_HMMActual","null","","","","Images/WhiteBeadChoiceWrong.png","null"
"image-keyboard-response","134","569667","0.0-4.0-0.38","4","High_HMMActual","1412.8849999997765","","","","Images/NewTrialBC.png","39"
"image-keyboard-response","135","569919","0.0-4.0-1.38","4","High_HMMActual","null","","","","Images/WhiteBeadChoice.png","null"
"image-keyboard-response","136","570421","0.0-4.0-2.38","4","High_HMMActual","null","","","","Images/WhiteBeadChoiceCorrect.png","null"
"image-keyboard-response","137","571463","0.0-4.0-0.39","4","High_HMMActual","1039.5850000004284","","","","Images/NewTrialWC.png","39"
"image-keyboard-response","138","571715","0.0-4.0-1.39","4","High_HMMActual","null","","","","Images/WhiteBeadChoice.png","null"
"image-keyboard-response","139","572218","0.0-4.0-2.39","4","High_HMMActual","null","","","","Images/WhiteBeadChoiceWrong.png","null"
"image-keyboard-response","140","573493","0.0-4.0-0.40","4","High_HMMActual","1272.7300000005635","","","","Images/NewTrialBC.png","37"
"image-keyboard-response","141","573746","0.0-4.0-1.40","4","High_HMMActual","null","","","","Images/BlackBeadChoice.png","null"
"image-keyboard-response","142","574248","0.0-4.0-2.40","4","High_HMMActual","null","","","","Images/BlackBeadChoiceWrong.png","null"
"image-keyboard-response","143","575644","0.0-4.0-0.41","4","High_HMMActual","1393.804999999702","","","","Images/NewTrialWC.png","37"
"image-keyboard-response","144","575897","0.0-4.0-1.41","4","High_HMMActual","null","","","","Images/BlackBeadChoice.png","null"
"image-keyboard-response","145","576400","0.0-4.0-2.41","4","High_HMMActual","null","","","","Images/BlackBeadChoiceCorrect.png","null"
"image-keyboard-response","146","577332","0.0-4.0-0.42","4","High_HMMActual","930.5550000008661","","","","Images/NewTrialBC.png","37"
"image-keyboard-response","147","577585","0.0-4.0-1.42","4","High_HMMActual","null","","","","Images/BlackBeadChoice.png","null"
"image-keyboard-response","148","578088","0.0-4.0-2.42","4","High_HMMActual","null","","","","Images/BlackBeadChoiceWrong.png","null"
"image-keyboard-response","149","579240","0.0-4.0-0.43","4","High_HMMActual","1148.9799999999814","","","","Images/NewTrialWC.png","39"
"image-keyboard-response","150","579493","0.0-4.0-1.43","4","High_HMMActual","null","","","","Images/WhiteBeadChoice.png","null"
"image-keyboard-response","151","579996","0.0-4.0-2.43","4","High_HMMActual","null","","","","Images/WhiteBeadChoiceWrong.png","null"
"image-keyboard-response","152","580712","0.0-4.0-0.44","4","High_HMMActual","713.8699999996461","","","","Images/NewTrialBC.png","37"
"image-keyboard-response","153","580964","0.0-4.0-1.44","4","High_HMMActual","null","","","","Images/BlackBeadChoice.png","null"
"image-keyboard-response","154","581467","0.0-4.0-2.44","4","High_HMMActual","null","","","","Images/BlackBeadChoiceWrong.png","null"
"image-keyboard-response","155","582300","0.0-4.0-0.45","4","High_HMMActual","831.0700000001816","","","","Images/NewTrialWC.png","39"
"image-keyboard-response","156","582552","0.0-4.0-1.45","4","High_HMMActual","null","","","","Images/WhiteBeadChoice.png","null"
"image-keyboard-response","157","583055","0.0-4.0-2.45","4","High_HMMActual","null","","","","Images/WhiteBeadChoiceWrong.png","null"
"image-keyboard-response","158","584271","0.0-4.0-0.46","4","High_HMMActual","1214.3399999985704","","","","Images/NewTrialBC.png","37"
"image-keyboard-response","159","584523","0.0-4.0-1.46","4","High_HMMActual","null","","","","Images/BlackBeadChoice.png","null"
"image-keyboard-response","160","585027","0.0-4.0-2.46","4","High_HMMActual","null","","","","Images/BlackBeadChoiceWrong.png","null"
"image-keyboard-response","161","586203","0.0-4.0-0.47","4","High_HMMActual","1174.3100000002887","","","","Images/NewTrialWC.png","39"
"image-keyboard-response","162","586456","0.0-4.0-1.47","4","High_HMMActual","null","","","","Images/WhiteBeadChoice.png","null"
"image-keyboard-response","163","586960","0.0-4.0-2.47","4","High_HMMActual","null","","","","Images/WhiteBeadChoiceWrong.png","null"
"image-keyboard-response","164","588068","0.0-4.0-0.48","4","High_HMMActual","1106.3649999996414","","","","Images/NewTrialBC.png","37"
"image-keyboard-response","165","588321","0.0-4.0-1.48","4","High_HMMActual","null","","","","Images/BlackBeadChoice.png","null"
"image-keyboard-response","166","588824","0.0-4.0-2.48","4","High_HMMActual","null","","","","Images/BlackBeadChoiceWrong.png","null"
"image-keyboard-response","167","589949","0.0-4.0-0.49","4","High_HMMActual","1123.364999999525","","","","Images/NewTrialWC.png","39"
"image-keyboard-response","168","590201","0.0-4.0-1.49","4","High_HMMActual","null","","","","Images/WhiteBeadChoice.png","null"
"image-keyboard-response","169","590704","0.0-4.0-2.49","4","High_HMMActual","null","","","","Images/WhiteBeadChoiceWrong.png","null"
"image-keyboard-response","170","592496","0.0-4.0-0.50","4","High_HMMActual","1789.5649999990128","","","","Images/NewTrialBC.png","37"
"image-keyboard-response","171","592749","0.0-4.0-1.50","4","High_HMMActual","null","","","","Images/BlackBeadChoice.png","null"
"image-keyboard-response","172","593252","0.0-4.0-2.50","4","High_HMMActual","null","","","","Images/BlackBeadChoiceWrong.png","null"
"image-keyboard-response","173","594211","0.0-4.0-0.51","4","High_HMMActual","956.4649999992689","","","","Images/NewTrialWC.png","39"
"image-keyboard-response","174","594463","0.0-4.0-1.51","4","High_HMMActual","null","","","","Images/WhiteBeadChoice.png","null"
"image-keyboard-response","175","594965","0.0-4.0-2.51","4","High_HMMActual","null","","","","Images/WhiteBeadChoiceWrong.png","null"
"image-keyboard-response","176","596029","0.0-4.0-0.52","4","High_HMMActual","1062.0500000005122","","","","Images/NewTrialBC.png","37"
"image-keyboard-response","177","596282","0.0-4.0-1.52","4","High_HMMActual","null","","","","Images/BlackBeadChoice.png","null"
"image-keyboard-response","178","596785","0.0-4.0-2.52","4","High_HMMActual","null","","","","Images/BlackBeadChoiceWrong.png","null"
"image-keyboard-response","179","597980","0.0-4.0-0.53","4","High_HMMActual","1193.3649999991758","","","","Images/NewTrialWC.png","39"
"image-keyboard-response","180","598232","0.0-4.0-1.53","4","High_HMMActual","null","","","","Images/WhiteBeadChoice.png","null"
"image-keyboard-response","181","598735","0.0-4.0-2.53","4","High_HMMActual","null","","","","Images/WhiteBeadChoiceWrong.png","null"
"image-keyboard-response","182","600461","0.0-4.0-0.54","4","High_HMMActual","1723.7449999992969","","","","Images/NewTrialBC.png","39"
"image-keyboard-response","183","600713","0.0-4.0-1.54","4","High_HMMActual","null","","","","Images/WhiteBeadChoice.png","null"
"image-keyboard-response","184","601216","0.0-4.0-2.54","4","High_HMMActual","null","","","","Images/WhiteBeadChoiceWrong.png","null"
"image-keyboard-response","185","602325","0.0-4.0-0.55","4","High_HMMActual","1107.2000000003027","","","","Images/NewTrialBC.png","37"
"image-keyboard-response","186","602578","0.0-4.0-1.55","4","High_HMMActual","null","","","","Images/BlackBeadChoice.png","null"
"image-keyboard-response","187","603081","0.0-4.0-2.55","4","High_HMMActual","null","","","","Images/BlackBeadChoiceCorrect.png","null"
"image-keyboard-response","188","603478","0.0-4.0-0.56","4","High_HMMActual","394.184999999241","","","","Images/NewTrialBC.png","37"
"image-keyboard-response","189","603731","0.0-4.0-1.56","4","High_HMMActual","null","","","","Images/BlackBeadChoice.png","null"
"image-keyboard-response","190","604234","0.0-4.0-2.56","4","High_HMMActual","null","","","","Images/BlackBeadChoiceWrong.png","null"
"image-keyboard-response","191","604993","0.0-4.0-0.57","4","High_HMMActual","757.0149999993155","","","","Images/NewTrialWC.png","39"
"image-keyboard-response","192","605246","0.0-4.0-1.57","4","High_HMMActual","null","","","","Images/WhiteBeadChoice.png","null"
"image-keyboard-response","193","605749","0.0-4.0-2.57","4","High_HMMActual","null","","","","Images/WhiteBeadChoiceWrong.png","null"
"image-keyboard-response","194","606875","0.0-4.0-0.58","4","High_HMMActual","1124.5","","","","Images/NewTrialBC.png","37"
"image-keyboard-response","195","607127","0.0-4.0-1.58","4","High_HMMActual","null","","","","Images/BlackBeadChoice.png","null"
"image-keyboard-response","196","607630","0.0-4.0-2.58","4","High_HMMActual","null","","","","Images/BlackBeadChoiceWrong.png","null"
"image-keyboard-response","197","608526","0.0-4.0-0.59","4","High_HMMActual","894.1749999993481","","","","Images/NewTrialWC.png","39"
"image-keyboard-response","198","608778","0.0-4.0-1.59","4","High_HMMActual","null","","","","Images/WhiteBeadChoice.png","null"
"image-keyboard-response","199","609282","0.0-4.0-2.59","4","High_HMMActual","null","","","","Images/WhiteBeadChoiceCorrect.png","null"
"image-keyboard-response","200","610460","0.0-4.0-0.60","4","High_HMMActual","1175.369999999064","","","","Images/NewTrialWC.png","39"
"image-keyboard-response","201","610711","0.0-4.0-1.60","4","High_HMMActual","null","","","","Images/WhiteBeadChoice.png","null"
"image-keyboard-response","202","611214","0.0-4.0-2.60","4","High_HMMActual","null","","","","Images/WhiteBeadChoiceWrong.png","null"
"image-keyboard-response","203","633448","0.0-4.0-0.61","4","High_HMMActual","22232.244999999297","","","","Images/NewTrialBC.png","37"
"image-keyboard-response","204","633702","0.0-4.0-1.61","4","High_HMMActual","null","","","","Images/BlackBeadChoice.png","null"
"image-keyboard-response","205","634204","0.0-4.0-2.61","4","High_HMMActual","null","","","","Images/BlackBeadChoiceWrong.png","null"
"image-keyboard-response","206","639934","0.0-4.0-0.62","4","High_HMMActual","5728.185000001686","","","","Images/NewTrialWC.png","39"
"image-keyboard-response","207","640187","0.0-4.0-1.62","4","High_HMMActual","null","","","","Images/WhiteBeadChoice.png","null"
"image-keyboard-response","208","640689","0.0-4.0-2.62","4","High_HMMActual","null","","","","Images/WhiteBeadChoiceWrong.png","null"
"image-keyboard-response","209","641738","0.0-4.0-0.63","4","High_HMMActual","1047.565000000759","","","","Images/NewTrialBC.png","37"
"image-keyboard-response","210","641992","0.0-4.0-1.63","4","High_HMMActual","null","","","","Images/BlackBeadChoice.png","null"
"image-keyboard-response","211","642495","0.0-4.0-2.63","4","High_HMMActual","null","","","","Images/BlackBeadChoiceCorrect.png","null"
"image-keyboard-response","212","643062","0.0-4.0-0.64","4","High_HMMActual","565.4150000009686","","","","Images/NewTrialBC.png","37"
"image-keyboard-response","213","643315","0.0-4.0-1.64","4","High_HMMActual","null","","","","Images/BlackBeadChoice.png","null"
"image-keyboard-response","214","643818","0.0-4.0-2.64","4","High_HMMActual","null","","","","Images/BlackBeadChoiceWrong.png","null"
"image-keyboard-response","215","644918","0.0-4.0-0.65","4","High_HMMActual","1097.9250000000466","","","","Images/NewTrialWC.png","39"
"image-keyboard-response","216","645170","0.0-4.0-1.65","4","High_HMMActual","null","","","","Images/WhiteBeadChoice.png","null"
"image-keyboard-response","217","645672","0.0-4.0-2.65","4","High_HMMActual","null","","","","Images/WhiteBeadChoiceCorrect.png","null"
"image-keyboard-response","218","646281","0.0-4.0-0.66","4","High_HMMActual","606.4649999990361","","","","Images/NewTrialWC.png","39"
"image-keyboard-response","219","646533","0.0-4.0-1.66","4","High_HMMActual","null","","","","Images/WhiteBeadChoice.png","null"
"image-keyboard-response","220","647036","0.0-4.0-2.66","4","High_HMMActual","null","","","","Images/WhiteBeadChoiceWrong.png","null"
"image-keyboard-response","221","647825","0.0-4.0-0.67","4","High_HMMActual","786.7399999996414","","","","Images/NewTrialBC.png","37"
"image-keyboard-response","222","648078","0.0-4.0-1.67","4","High_HMMActual","null","","","","Images/BlackBeadChoice.png","null"
"image-keyboard-response","223","648582","0.0-4.0-2.67","4","High_HMMActual","null","","","","Images/BlackBeadChoiceWrong.png","null"
"image-keyboard-response","224","649583","0.0-4.0-0.68","4","High_HMMActual","998.524999999092","","","","Images/NewTrialWC.png","39"
"image-keyboard-response","225","649835","0.0-4.0-1.68","4","High_HMMActual","null","","","","Images/WhiteBeadChoice.png","null"
"image-keyboard-response","226","650338","0.0-4.0-2.68","4","High_HMMActual","null","","","","Images/WhiteBeadChoiceCorrect.png","null"
"image-keyboard-response","227","651796","0.0-4.0-0.69","4","High_HMMActual","1455.6850000007544","","","","Images/NewTrialWC.png","39"
"image-keyboard-response","228","652049","0.0-4.0-1.69","4","High_HMMActual","null","","","","Images/WhiteBeadChoice.png","null"
"image-keyboard-response","229","652551","0.0-4.0-2.69","4","High_HMMActual","null","","","","Images/WhiteBeadChoiceCorrect.png","null"
"image-keyboard-response","230","653389","0.0-4.0-0.70","4","High_HMMActual","836.5549999998184","","","","Images/NewTrialWC.png","39"
"image-keyboard-response","231","653642","0.0-4.0-1.70","4","High_HMMActual","null","","","","Images/WhiteBeadChoice.png","null"
"image-keyboard-response","232","654144","0.0-4.0-2.70","4","High_HMMActual","null","","","","Images/WhiteBeadChoiceWrong.png","null"
"image-keyboard-response","233","654814","0.0-4.0-0.71","4","High_HMMActual","667.9050000002608","","","","Images/NewTrialBC.png","37"
"image-keyboard-response","234","655067","0.0-4.0-1.71","4","High_HMMActual","null","","","","Images/BlackBeadChoice.png","null"
"image-keyboard-response","235","655571","0.0-4.0-2.71","4","High_HMMActual","null","","","","Images/BlackBeadChoiceWrong.png","null"
"image-keyboard-response","236","656464","0.0-4.0-0.72","4","High_HMMActual","890.4750000000931","","","","Images/NewTrialWC.png","39"
"image-keyboard-response","237","656717","0.0-4.0-1.72","4","High_HMMActual","null","","","","Images/WhiteBeadChoice.png","null"
"image-keyboard-response","238","657221","0.0-4.0-2.72","4","High_HMMActual","null","","","","Images/WhiteBeadChoiceWrong.png","null"
"image-keyboard-response","239","658006","0.0-4.0-0.73","4","High_HMMActual","782.7849999993341","","","","Images/NewTrialBC.png","37"
"image-keyboard-response","240","658258","0.0-4.0-1.73","4","High_HMMActual","null","","","","Images/BlackBeadChoice.png","null"
"image-keyboard-response","241","658761","0.0-4.0-2.73","4","High_HMMActual","null","","","","Images/BlackBeadChoiceWrong.png","null"
"image-keyboard-response","242","660311","0.0-4.0-0.74","4","High_HMMActual","1548.0500000013271","","","","Images/NewTrialWC.png","39"
"image-keyboard-response","243","660563","0.0-4.0-1.74","4","High_HMMActual","null","","","","Images/WhiteBeadChoice.png","null"
"image-keyboard-response","244","661066","0.0-4.0-2.74","4","High_HMMActual","null","","","","Images/WhiteBeadChoiceWrong.png","null"
"image-keyboard-response","245","661905","0.0-4.0-0.75","4","High_HMMActual","837.5400000003865","","","","Images/NewTrialBC.png","37"
"image-keyboard-response","246","662159","0.0-4.0-1.75","4","High_HMMActual","null","","","","Images/BlackBeadChoice.png","null"
"image-keyboard-response","247","662662","0.0-4.0-2.75","4","High_HMMActual","null","","","","Images/BlackBeadChoiceWrong.png","null"
"image-keyboard-response","248","663908","0.0-4.0-0.76","4","High_HMMActual","1244.2399999999907","","","","Images/NewTrialWC.png","37"
"image-keyboard-response","249","664162","0.0-4.0-1.76","4","High_HMMActual","null","","","","Images/BlackBeadChoice.png","null"
"image-keyboard-response","250","664665","0.0-4.0-2.76","4","High_HMMActual","null","","","","Images/BlackBeadChoiceCorrect.png","null"
"image-keyboard-response","251","665435","0.0-4.0-0.77","4","High_HMMActual","768.5450000008568","","","","Images/NewTrialBC.png","37"
"image-keyboard-response","252","665689","0.0-4.0-1.77","4","High_HMMActual","null","","","","Images/BlackBeadChoice.png","null"
"image-keyboard-response","253","666192","0.0-4.0-2.77","4","High_HMMActual","null","","","","Images/BlackBeadChoiceWrong.png","null"
"image-keyboard-response","254","667899","0.0-4.0-0.78","4","High_HMMActual","1704.9599999991478","","","","Images/NewTrialWC.png","39"
"image-keyboard-response","255","668151","0.0-4.0-1.78","4","High_HMMActual","null","","","","Images/WhiteBeadChoice.png","null"
"image-keyboard-response","256","668654","0.0-4.0-2.78","4","High_HMMActual","null","","","","Images/WhiteBeadChoiceWrong.png","null"
"image-keyboard-response","257","669652","0.0-4.0-0.79","4","High_HMMActual","996.1100000001024","","","","Images/NewTrialBC.png","37"
"image-keyboard-response","258","669905","0.0-4.0-1.79","4","High_HMMActual","null","","","","Images/BlackBeadChoice.png","null"
"image-keyboard-response","259","670409","0.0-4.0-2.79","4","High_HMMActual","null","","","","Images/BlackBeadChoiceWrong.png","null"
"image-keyboard-response","260","671665","0.0-4.0-0.80","4","High_HMMActual","1254.1400000009453","","","","Images/NewTrialWC.png","39"
"image-keyboard-response","261","671918","0.0-4.0-1.80","4","High_HMMActual","null","","","","Images/WhiteBeadChoice.png","null"
"image-keyboard-response","262","672420","0.0-4.0-2.80","4","High_HMMActual","null","","","","Images/WhiteBeadChoiceWrong.png","null"
"image-keyboard-response","263","675316","0.0-4.0-0.81","4","High_HMMActual","2893.760000000824","","","","Images/NewTrialBC.png","37"
"image-keyboard-response","264","675569","0.0-4.0-1.81","4","High_HMMActual","null","","","","Images/BlackBeadChoice.png","null"
"image-keyboard-response","265","676073","0.0-4.0-2.81","4","High_HMMActual","null","","","","Images/BlackBeadChoiceWrong.png","null"
"image-keyboard-response","266","678680","0.0-4.0-0.82","4","High_HMMActual","2605.590000001015","","","","Images/NewTrialWC.png","37"
"image-keyboard-response","267","678933","0.0-4.0-1.82","4","High_HMMActual","null","","","","Images/BlackBeadChoice.png","null"
"image-keyboard-response","268","679436","0.0-4.0-2.82","4","High_HMMActual","null","","","","Images/BlackBeadChoiceCorrect.png","null"
"image-keyboard-response","269","682164","0.0-4.0-0.83","4","High_HMMActual","2725.8849999997765","","","","Images/NewTrialBC.png","37"
"image-keyboard-response","270","682417","0.0-4.0-1.83","4","High_HMMActual","null","","","","Images/BlackBeadChoice.png","null"
"image-keyboard-response","271","682919","0.0-4.0-2.83","4","High_HMMActual","null","","","","Images/BlackBeadChoiceWrong.png","null"
"image-keyboard-response","272","685205","0.0-4.0-0.84","4","High_HMMActual","2284.310000000987","","","","Images/NewTrialWC.png","39"
"image-keyboard-response","273","685458","0.0-4.0-1.84","4","High_HMMActual","null","","","","Images/WhiteBeadChoice.png","null"
"image-keyboard-response","274","685961","0.0-4.0-2.84","4","High_HMMActual","null","","","","Images/WhiteBeadChoiceWrong.png","null"
"image-keyboard-response","275","686485","0.0-4.0-0.85","4","High_HMMActual","522.5099999989616","","","","Images/NewTrialBC.png","39"
"image-keyboard-response","276","686738","0.0-4.0-1.85","4","High_HMMActual","null","","","","Images/WhiteBeadChoice.png","null"
"image-keyboard-response","277","687241","0.0-4.0-2.85","4","High_HMMActual","null","","","","Images/WhiteBeadChoiceWrong.png","null"
"image-keyboard-response","278","687433","0.0-4.0-0.86","4","High_HMMActual","189.95999999972992","","","","Images/NewTrialBC.png","37"
"image-keyboard-response","279","687685","0.0-4.0-1.86","4","High_HMMActual","null","","","","Images/BlackBeadChoice.png","null"
"image-keyboard-response","280","688187","0.0-4.0-2.86","4","High_HMMActual","404.65500000026077","","","","Images/BlackBeadChoiceCorrect.png","37"
"image-keyboard-response","281","689809","0.0-4.0-0.87","4","High_HMMActual","1620.0150000004796","","","","Images/NewTrialBC.png","37"
"image-keyboard-response","282","690061","0.0-4.0-1.87","4","High_HMMActual","null","","","","Images/BlackBeadChoice.png","null"
"image-keyboard-response","283","690563","0.0-4.0-2.87","4","High_HMMActual","null","","","","Images/BlackBeadChoiceWrong.png","null"
"image-keyboard-response","284","692383","0.0-4.0-0.88","4","High_HMMActual","1817.694999999716","","","","Images/NewTrialWC.png","37"
"image-keyboard-response","285","692635","0.0-4.0-1.88","4","High_HMMActual","null","","","","Images/BlackBeadChoice.png","null"
"image-keyboard-response","286","693137","0.0-4.0-2.88","4","High_HMMActual","455.5399999989895","","","","Images/BlackBeadChoiceCorrect.png","37"
"image-keyboard-response","287","693900","0.0-4.0-0.89","4","High_HMMActual","760.639999998617","","","","Images/NewTrialBC.png","37"
"image-keyboard-response","288","694152","0.0-4.0-1.89","4","High_HMMActual","null","","","","Images/BlackBeadChoice.png","null"
"image-keyboard-response","289","694655","0.0-4.0-2.89","4","High_HMMActual","null","","","","Images/BlackBeadChoiceWrong.png","null"
"image-keyboard-response","290","722561","0.0-4.0-0.90","4","High_HMMActual","27903.609999999404","","","","Images/NewTrialWC.png","39"
"image-keyboard-response","291","722815","0.0-4.0-1.90","4","High_HMMActual","null","","","","Images/WhiteBeadChoice.png","null"
"image-keyboard-response","292","723318","0.0-4.0-2.90","4","High_HMMActual","null","","","","Images/WhiteBeadChoiceWrong.png","null"
"image-keyboard-response","293","724179","0.0-4.0-0.91","4","High_HMMActual","858.7950000001583","","","","Images/NewTrialBC.png","37"
"image-keyboard-response","294","724431","0.0-4.0-1.91","4","High_HMMActual","null","","","","Images/BlackBeadChoice.png","null"
"image-keyboard-response","295","724935","0.0-4.0-2.91","4","High_HMMActual","null","","","","Images/BlackBeadChoiceCorrect.png","null"
"image-keyboard-response","296","725243","0.0-4.0-0.92","4","High_HMMActual","306.4050000011921","","","","Images/NewTrialBC.png","37"
"image-keyboard-response","297","725495","0.0-4.0-1.92","4","High_HMMActual","null","","","","Images/BlackBeadChoice.png","null"
"image-keyboard-response","298","725998","0.0-4.0-2.92","4","High_HMMActual","null","","","","Images/BlackBeadChoiceWrong.png","null"
"image-keyboard-response","299","727179","0.0-4.0-0.93","4","High_HMMActual","1178.915000000503","","","","Images/NewTrialWC.png","39"
"image-keyboard-response","300","727432","0.0-4.0-1.93","4","High_HMMActual","null","","","","Images/WhiteBeadChoice.png","null"
"image-keyboard-response","301","727934","0.0-4.0-2.93","4","High_HMMActual","null","","","","Images/WhiteBeadChoiceWrong.png","null"
"image-keyboard-response","302","728890","0.0-4.0-0.94","4","High_HMMActual","953.4000000002561","","","","Images/NewTrialBC.png","37"
"image-keyboard-response","303","729142","0.0-4.0-1.94","4","High_HMMActual","null","","","","Images/BlackBeadChoice.png","null"
"image-keyboard-response","304","729645","0.0-4.0-2.94","4","High_HMMActual","null","","","","Images/BlackBeadChoiceWrong.png","null"
"image-keyboard-response","305","730536","0.0-4.0-0.95","4","High_HMMActual","888.5499999996973","","","","Images/NewTrialWC.png","39"
"image-keyboard-response","306","730788","0.0-4.0-1.95","4","High_HMMActual","null","","","","Images/WhiteBeadChoice.png","null"
"image-keyboard-response","307","731291","0.0-4.0-2.95","4","High_HMMActual","null","","","","Images/WhiteBeadChoiceWrong.png","null"
"image-keyboard-response","308","732690","0.0-4.0-0.96","4","High_HMMActual","1397.220000000787","","","","Images/NewTrialBC.png","37"
"image-keyboard-response","309","732947","0.0-4.0-1.96","4","High_HMMActual","null","","","","Images/BlackBeadChoice.png","null"
"image-keyboard-response","310","733451","0.0-4.0-2.96","4","High_HMMActual","null","","","","Images/BlackBeadChoiceCorrect.png","null"
"image-keyboard-response","311","733880","0.0-4.0-0.97","4","High_HMMActual","427.57999999960884","","","","Images/NewTrialBC.png","37"
"image-keyboard-response","312","734133","0.0-4.0-1.97","4","High_HMMActual","null","","","","Images/BlackBeadChoice.png","null"
"image-keyboard-response","313","734636","0.0-4.0-2.97","4","High_HMMActual","null","","","","Images/BlackBeadChoiceCorrect.png","null"
"image-keyboard-response","314","735216","0.0-4.0-0.98","4","High_HMMActual","578.6850000004051","","","","Images/NewTrialBC.png","37"
"image-keyboard-response","315","735470","0.0-4.0-1.98","4","High_HMMActual","null","","","","Images/BlackBeadChoice.png","null"
"image-keyboard-response","316","735973","0.0-4.0-2.98","4","High_HMMActual","null","","","","Images/BlackBeadChoiceWrong.png","null"
"image-keyboard-response","317","736877","0.0-4.0-0.99","4","High_HMMActual","902.2699999986216","","","","Images/NewTrialWC.png","39"
"image-keyboard-response","318","737130","0.0-4.0-1.99","4","High_HMMActual","null","","","","Images/WhiteBeadChoice.png","null"
"image-keyboard-response","319","737632","0.0-4.0-2.99","4","High_HMMActual","null","","","","Images/WhiteBeadChoiceWrong.png","null"
"image-keyboard-response","320","738715","0.0-4.0-0.100","4","High_HMMActual","1082.1250000006985","","","","Images/NewTrialBC.png","37"
"image-keyboard-response","321","738968","0.0-4.0-1.100","4","High_HMMActual","null","","","","Images/BlackBeadChoice.png","null"
"image-keyboard-response","322","739471","0.0-4.0-2.100","4","High_HMMActual","null","","","","Images/BlackBeadChoiceWrong.png","null"
"image-keyboard-response","323","740195","0.0-4.0-0.101","4","High_HMMActual","721.9499999992549","","","","Images/NewTrialWC.png","39"
"image-keyboard-response","324","740447","0.0-4.0-1.101","4","High_HMMActual","null","","","","Images/WhiteBeadChoice.png","null"
"image-keyboard-response","325","740951","0.0-4.0-2.101","4","High_HMMActual","null","","","","Images/WhiteBeadChoiceWrong.png","null"
"image-keyboard-response","326","741755","0.0-4.0-0.102","4","High_HMMActual","802.5899999993853","","","","Images/NewTrialBC.png","37"
"image-keyboard-response","327","742008","0.0-4.0-1.102","4","High_HMMActual","null","","","","Images/BlackBeadChoice.png","null"
"image-keyboard-response","328","742510","0.0-4.0-2.102","4","High_HMMActual","null","","","","Images/BlackBeadChoiceWrong.png","null"
"image-keyboard-response","329","745406","0.0-4.0-0.103","4","High_HMMActual","2893.2299999997485","","","","Images/NewTrialWC.png","39"
"image-keyboard-response","330","745659","0.0-4.0-1.103","4","High_HMMActual","null","","","","Images/WhiteBeadChoice.png","null"
"image-keyboard-response","331","746162","0.0-4.0-2.103","4","High_HMMActual","null","","","","Images/WhiteBeadChoiceWrong.png","null"
"image-keyboard-response","332","749730","0.0-4.0-0.104","4","High_HMMActual","3566.1650000001537","","","","Images/NewTrialBC.png","39"
"image-keyboard-response","333","749983","0.0-4.0-1.104","4","High_HMMActual","null","","","","Images/WhiteBeadChoice.png","null"
"image-keyboard-response","334","750486","0.0-4.0-2.104","4","High_HMMActual","null","","","","Images/WhiteBeadChoiceCorrect.png","null"
"image-keyboard-response","335","751239","0.0-4.0-0.105","4","High_HMMActual","751.2100000004284","","","","Images/NewTrialWC.png","39"
"image-keyboard-response","336","751493","0.0-4.0-1.105","4","High_HMMActual","null","","","","Images/WhiteBeadChoice.png","null"
"image-keyboard-response","337","751995","0.0-4.0-2.105","4","High_HMMActual","null","","","","Images/WhiteBeadChoiceWrong.png","null"
"image-keyboard-response","338","752785","0.0-4.0-0.106","4","High_HMMActual","788.2300000000978","","","","Images/NewTrialBC.png","39"
"image-keyboard-response","339","753039","0.0-4.0-1.106","4","High_HMMActual","null","","","","Images/WhiteBeadChoice.png","null"
"image-keyboard-response","340","753542","0.0-4.0-2.106","4","High_HMMActual","null","","","","Images/WhiteBeadChoiceCorrect.png","null"
"image-keyboard-response","341","754099","0.0-4.0-0.107","4","High_HMMActual","554.8600000002189","","","","Images/NewTrialWC.png","39"
"image-keyboard-response","342","754351","0.0-4.0-1.107","4","High_HMMActual","null","","","","Images/WhiteBeadChoice.png","null"
"image-keyboard-response","343","754854","0.0-4.0-2.107","4","High_HMMActual","null","","","","Images/WhiteBeadChoiceWrong.png","null"
"image-keyboard-response","344","756650","0.0-4.0-0.108","4","High_HMMActual","1794.329999998794","","","","Images/NewTrialBC.png","39"
"image-keyboard-response","345","756903","0.0-4.0-1.108","4","High_HMMActual","null","","","","Images/WhiteBeadChoice.png","null"
"image-keyboard-response","346","757406","0.0-4.0-2.108","4","High_HMMActual","null","","","","Images/WhiteBeadChoiceWrong.png","null"
"image-keyboard-response","347","757817","0.0-4.0-0.109","4","High_HMMActual","409.6699999991106","","","","Images/NewTrialBC.png","39"
"image-keyboard-response","348","758070","0.0-4.0-1.109","4","High_HMMActual","null","","","","Images/WhiteBeadChoice.png","null"
"image-keyboard-response","349","758573","0.0-4.0-2.109","4","High_HMMActual","null","","","","Images/WhiteBeadChoiceWrong.png","null"
"image-keyboard-response","350","759027","0.0-4.0-0.110","4","High_HMMActual","452.88499999872874","","","","Images/NewTrialBC.png","39"
"image-keyboard-response","351","759282","0.0-4.0-1.110","4","High_HMMActual","null","","","","Images/WhiteBeadChoice.png","null"
"image-keyboard-response","352","759786","0.0-4.0-2.110","4","High_HMMActual","null","","","","Images/WhiteBeadChoiceCorrect.png","null"
"image-keyboard-response","353","760482","0.0-4.0-0.111","4","High_HMMActual","694.0299999987474","","","","Images/NewTrialWC.png","39"
"image-keyboard-response","354","760741","0.0-4.0-1.111","4","High_HMMActual","null","","","","Images/WhiteBeadChoice.png","null"
"image-keyboard-response","355","761244","0.0-4.0-2.111","4","High_HMMActual","null","","","","Images/WhiteBeadChoiceWrong.png","null"
"image-keyboard-response","356","762484","0.0-4.0-0.112","4","High_HMMActual","1237.6050000002142","","","","Images/NewTrialBC.png","37"
"image-keyboard-response","357","762736","0.0-4.0-1.112","4","High_HMMActual","null","","","","Images/BlackBeadChoice.png","null"
"image-keyboard-response","358","763239","0.0-4.0-2.112","4","High_HMMActual","null","","","","Images/BlackBeadChoiceWrong.png","null"
"image-keyboard-response","359","764204","0.0-4.0-0.113","4","High_HMMActual","963.1300000001211","","","","Images/NewTrialWC.png","39"
"image-keyboard-response","360","764457","0.0-4.0-1.113","4","High_HMMActual","null","","","","Images/WhiteBeadChoice.png","null"
"image-keyboard-response","361","764960","0.0-4.0-2.113","4","High_HMMActual","null","","","","Images/WhiteBeadChoiceCorrect.png","null"
"image-keyboard-response","362","765436","0.0-4.0-0.114","4","High_HMMActual","473.9399999998277","","","","Images/NewTrialWC.png","39"
"image-keyboard-response","363","765688","0.0-4.0-1.114","4","High_HMMActual","null","","","","Images/WhiteBeadChoice.png","null"
"image-keyboard-response","364","766191","0.0-4.0-2.114","4","High_HMMActual","null","","","","Images/WhiteBeadChoiceWrong.png","null"
"image-keyboard-response","365","767118","0.0-4.0-0.115","4","High_HMMActual","924.6700000002747","","","","Images/NewTrialBC.png","37"
"image-keyboard-response","366","767371","0.0-4.0-1.115","4","High_HMMActual","null","","","","Images/BlackBeadChoice.png","null"
"image-keyboard-response","367","767873","0.0-4.0-2.115","4","High_HMMActual","null","","","","Images/BlackBeadChoiceCorrect.png","null"
"image-keyboard-response","368","768039","0.0-4.0-0.116","4","High_HMMActual","163.35999999858905","","","","Images/NewTrialBC.png","37"
"image-keyboard-response","369","768292","0.0-4.0-1.116","4","High_HMMActual","null","","","","Images/BlackBeadChoice.png","null"
"image-keyboard-response","370","768795","0.0-4.0-2.116","4","High_HMMActual","null","","","","Images/BlackBeadChoiceWrong.png","null"
"image-keyboard-response","371","770485","0.0-4.0-0.117","4","High_HMMActual","1688.3649999999907","","","","Images/NewTrialWC.png","39"
"image-keyboard-response","372","770739","0.0-4.0-1.117","4","High_HMMActual","null","","","","Images/WhiteBeadChoice.png","null"
"image-keyboard-response","373","771241","0.0-4.0-2.117","4","High_HMMActual","null","","","","Images/WhiteBeadChoiceWrong.png","null"
"image-keyboard-response","374","771393","0.0-4.0-0.118","4","High_HMMActual","150.33000000042375","","","","Images/NewTrialBC.png","39"
"image-keyboard-response","375","771647","0.0-4.0-1.118","4","High_HMMActual","null","","","","Images/WhiteBeadChoice.png","null"
"image-keyboard-response","376","772150","0.0-4.0-2.118","4","High_HMMActual","204.86999999952968","","","","Images/WhiteBeadChoiceCorrect.png","39"
"image-keyboard-response","377","772398","0.0-4.0-0.119","4","High_HMMActual","245.68499999993946","","","","Images/NewTrialWC.png","39"
"image-keyboard-response","378","772650","0.0-4.0-1.119","4","High_HMMActual","null","","","","Images/WhiteBeadChoice.png","null"
"image-keyboard-response","379","773152","0.0-4.0-2.119","4","High_HMMActual","176.37500000093132","","","","Images/WhiteBeadChoiceWrong.png","39"
"image-keyboard-response","380","773243","0.0-4.0-0.120","4","High_HMMActual","88.3950000006007","","","","Images/NewTrialBC.png","39"
"image-keyboard-response","381","773496","0.0-4.0-1.120","4","High_HMMActual","null","","","","Images/WhiteBeadChoice.png","null"
"image-keyboard-response","382","773998","0.0-4.0-2.120","4","High_HMMActual","101.58000000042375","","","","Images/WhiteBeadChoiceCorrect.png","39"
"image-keyboard-response","383","774184","0.0-4.0-0.121","4","High_HMMActual","184.17000000050757","","","","Images/NewTrialWC.png","39"
"image-keyboard-response","384","774438","0.0-4.0-1.121","4","High_HMMActual","null","","","","Images/WhiteBeadChoice.png","null"
"image-keyboard-response","385","774941","0.0-4.0-2.121","4","High_HMMActual","60.564999999827705","","","","Images/WhiteBeadChoiceWrong.png","39"
"image-keyboard-response","386","775619","0.0-4.0-0.122","4","High_HMMActual","676.0000000012806","","","","Images/NewTrialBC.png","37"
"image-keyboard-response","387","775873","0.0-4.0-1.122","4","High_HMMActual","null","","","","Images/BlackBeadChoice.png","null"
"image-keyboard-response","388","776376","0.0-4.0-2.122","4","High_HMMActual","158.57000000146218","","","","Images/BlackBeadChoiceWrong.png","37"
"image-keyboard-response","389","776560","0.0-4.0-0.123","4","High_HMMActual","182.18999999947846","","","","Images/NewTrialWC.png","37"
"image-keyboard-response","390","776812","0.0-4.0-1.123","4","High_HMMActual","null","","","","Images/BlackBeadChoice.png","null"
"image-keyboard-response","391","777313","0.0-4.0-2.123","4","High_HMMActual","216.69499999913387","","","","Images/BlackBeadChoiceCorrect.png","37"
"image-keyboard-response","392","777781","0.0-4.0-0.124","4","High_HMMActual","465.7800000004936","","","","Images/NewTrialBC.png","39"
"image-keyboard-response","393","778035","0.0-4.0-1.124","4","High_HMMActual","null","","","","Images/WhiteBeadChoice.png","null"
"image-keyboard-response","394","778537","0.0-4.0-2.124","4","High_HMMActual","198.44499999994878","","","","Images/WhiteBeadChoiceCorrect.png","39"
"image-keyboard-response","395","778658","0.0-4.0-0.125","4","High_HMMActual","118.10499999963213","","","","Images/NewTrialWC.png","39"
"image-keyboard-response","396","778910","0.0-4.0-1.125","4","High_HMMActual","null","","","","Images/WhiteBeadChoice.png","null"
"image-keyboard-response","397","779413","0.0-4.0-2.125","4","High_HMMActual","204.49499999999534","","","","Images/WhiteBeadChoiceWrong.png","39"
"image-keyboard-response","398","780067","0.0-4.0-0.126","4","High_HMMActual","651.3200000008801","","","","Images/NewTrialBC.png","37"
"image-keyboard-response","399","780319","0.0-4.0-1.126","4","High_HMMActual","null","","","","Images/BlackBeadChoice.png","null"
"image-keyboard-response","400","780822","0.0-4.0-2.126","4","High_HMMActual","299.3449999995064","","","","Images/BlackBeadChoiceWrong.png","37"
"image-keyboard-response","401","781484","0.0-4.0-0.127","4","High_HMMActual","659.6900000004098","","","","Images/NewTrialWC.png","39"
"image-keyboard-response","402","781736","0.0-4.0-1.127","4","High_HMMActual","null","","","","Images/WhiteBeadChoice.png","null"
"image-keyboard-response","403","782239","0.0-4.0-2.127","4","High_HMMActual","501.3349999990314","","","","Images/WhiteBeadChoiceWrong.png","37"
"image-keyboard-response","404","782918","0.0-4.0-0.128","4","High_HMMActual","676.4499999990221","","","","Images/NewTrialBC.png","39"
"image-keyboard-response","405","783171","0.0-4.0-1.128","4","High_HMMActual","null","","","","Images/WhiteBeadChoice.png","null"
"image-keyboard-response","406","783674","0.0-4.0-2.128","4","High_HMMActual","null","","","","Images/WhiteBeadChoiceCorrect.png","null"
"image-keyboard-response","407","783754","0.0-4.0-0.129","4","High_HMMActual","77.23000000067987","","","","Images/NewTrialWC.png","37"
"image-keyboard-response","408","784006","0.0-4.0-1.129","4","High_HMMActual","null","","","","Images/BlackBeadChoice.png","null"
"image-keyboard-response","409","784509","0.0-4.0-2.129","4","High_HMMActual","null","","","","Images/BlackBeadChoiceCorrect.png","null"
"image-keyboard-response","410","784694","0.0-4.0-0.130","4","High_HMMActual","182.46999999973923","","","","Images/NewTrialBC.png","39"
"image-keyboard-response","411","784947","0.0-4.0-1.130","4","High_HMMActual","236.20500000100583","","","","Images/WhiteBeadChoice.png","39"
"image-keyboard-response","412","785450","0.0-4.0-2.130","4","High_HMMActual","354.73999999894295","","","","Images/WhiteBeadChoiceCorrect.png","39"
"image-keyboard-response","413","785514","0.0-4.0-0.131","4","High_HMMActual","62.01999999943655","","","","Images/NewTrialWC.png","39"
"image-keyboard-response","414","785767","0.0-4.0-1.131","4","High_HMMActual","209.70999999914784","","","","Images/WhiteBeadChoice.png","39"
"image-keyboard-response","415","786270","0.0-4.0-2.131","4","High_HMMActual","188.34500000043772","","","","Images/WhiteBeadChoiceWrong.png","39"
"image-keyboard-response","416","786377","0.0-4.0-0.132","4","High_HMMActual","103.94999999878928","","","","Images/NewTrialBC.png","39"
"image-keyboard-response","417","786629","0.0-4.0-1.132","4","High_HMMActual","null","","","","Images/WhiteBeadChoice.png","null"
"image-keyboard-response","418","787132","0.0-4.0-2.132","4","High_HMMActual","null","","","","Images/WhiteBeadChoiceCorrect.png","null"
"image-keyboard-response","419","787254","0.0-4.0-0.133","4","High_HMMActual","119.51500000036322","","","","Images/NewTrialWC.png","37"
"image-keyboard-response","420","787507","0.0-4.0-1.133","4","High_HMMActual","null","","","","Images/BlackBeadChoice.png","null"
"image-keyboard-response","421","788009","0.0-4.0-2.133","4","High_HMMActual","418.6350000000093","","","","Images/BlackBeadChoiceCorrect.png","37"
"image-keyboard-response","422","788298","0.0-4.0-0.134","4","High_HMMActual","286.88000000151806","","","","Images/NewTrialBC.png","37"
"image-keyboard-response","423","788550","0.0-4.0-1.134","4","High_HMMActual","237.74499999848194","","","","Images/BlackBeadChoice.png","37"
"image-keyboard-response","424","789052","0.0-4.0-2.134","4","High_HMMActual","237.6750000002794","","","","Images/BlackBeadChoiceWrong.png","37"
"image-keyboard-response","425","789275","0.0-4.0-0.135","4","High_HMMActual","221.4100000000326","","","","Images/NewTrialWC.png","37"
"image-keyboard-response","426","789528","0.0-4.0-1.135","4","High_HMMActual","null","","","","Images/BlackBeadChoice.png","null"
"image-keyboard-response","427","790031","0.0-4.0-2.135","4","High_HMMActual","41.80499999888707","","","","Images/BlackBeadChoiceCorrect.png","37"
"image-keyboard-response","428","790424","0.0-4.0-0.136","4","High_HMMActual","390.97500000020955","","","","Images/NewTrialBC.png","39"
"image-keyboard-response","429","790677","0.0-4.0-1.136","4","High_HMMActual","null","","","","Images/WhiteBeadChoice.png","null"
"image-keyboard-response","430","791180","0.0-4.0-2.136","4","High_HMMActual","null","","","","Images/WhiteBeadChoiceCorrect.png","null"
"image-keyboard-response","431","791386","0.0-4.0-0.137","4","High_HMMActual","204.03499999886844","","","","Images/NewTrialWC.png","39"
"image-keyboard-response","432","791638","0.0-4.0-1.137","4","High_HMMActual","null","","","","Images/WhiteBeadChoice.png","null"
"image-keyboard-response","433","792141","0.0-4.0-2.137","4","High_HMMActual","null","","","","Images/WhiteBeadChoiceWrong.png","null"
"image-keyboard-response","434","792390","0.0-4.0-0.138","4","High_HMMActual","247.08499999903142","","","","Images/NewTrialBC.png","37"
"image-keyboard-response","435","792643","0.0-4.0-1.138","4","High_HMMActual","null","","","","Images/BlackBeadChoice.png","null"
"image-keyboard-response","436","793145","0.0-4.0-2.138","4","High_HMMActual","null","","","","Images/BlackBeadChoiceCorrect.png","null"
"image-keyboard-response","437","793201","0.0-4.0-0.139","4","High_HMMActual","54.140000000130385","","","","Images/NewTrialBC.png","37"
"image-keyboard-response","438","793454","0.0-4.0-1.139","4","High_HMMActual","null","","","","Images/BlackBeadChoice.png","null"
"image-keyboard-response","439","793957","0.0-4.0-2.139","4","High_HMMActual","null","","","","Images/BlackBeadChoiceWrong.png","null"
"image-keyboard-response","440","793983","0.0-4.0-0.140","4","High_HMMActual","23.834999999962747","","","","Images/NewTrialWC.png","37"
"image-keyboard-response","441","794236","0.0-4.0-1.140","4","High_HMMActual","null","","","","Images/BlackBeadChoice.png","null"
"image-keyboard-response","442","794739","0.0-4.0-2.140","4","High_HMMActual","408.880000000936","","","","Images/BlackBeadChoiceCorrect.png","37"
"image-keyboard-response","443","822568","0.0-4.0-0.141","4","High_HMMActual","27827.224999999045","","","","Images/NewTrialBC.png","37"
"image-keyboard-response","444","822821","0.0-4.0-1.141","4","High_HMMActual","null","","","","Images/BlackBeadChoice.png","null"
"image-keyboard-response","445","823324","0.0-4.0-2.141","4","High_HMMActual","null","","","","Images/BlackBeadChoiceWrong.png","null"
"image-keyboard-response","446","824131","0.0-4.0-0.142","4","High_HMMActual","804.6250000006985","","","","Images/NewTrialWC.png","39"
"image-keyboard-response","447","824383","0.0-4.0-1.142","4","High_HMMActual","null","","","","Images/WhiteBeadChoice.png","null"
"image-keyboard-response","448","824886","0.0-4.0-2.142","4","High_HMMActual","null","","","","Images/WhiteBeadChoiceWrong.png","null"
"image-keyboard-response","449","832889","0.0-4.0-0.143","4","High_HMMActual","8000.610000001034","","","","Images/NewTrialBC.png","39"
"image-keyboard-response","450","833141","0.0-4.0-1.143","4","High_HMMActual","16.130000000004657","","","","Images/WhiteBeadChoice.png","39"
"image-keyboard-response","451","833644","0.0-4.0-2.143","4","High_HMMActual","null","","","","Images/WhiteBeadChoiceCorrect.png","null"
"image-keyboard-response","452","835270","0.0-4.0-0.144","4","High_HMMActual","1624.9000000007218","","","","Images/NewTrialWC.png","39"
"image-keyboard-response","453","835522","0.0-4.0-1.144","4","High_HMMActual","200.53999999992084","","","","Images/WhiteBeadChoice.png","39"
"image-keyboard-response","454","836024","0.0-4.0-2.144","4","High_HMMActual","129.6050000000978","","","","Images/WhiteBeadChoiceWrong.png","39"
"image-keyboard-response","455","836200","0.0-4.0-0.145","4","High_HMMActual","173.32999999960884","","","","Images/NewTrialBC.png","39"
"image-keyboard-response","456","836452","0.0-4.0-1.145","4","High_HMMActual","173.91000000142958","","","","Images/WhiteBeadChoice.png","39"
"image-keyboard-response","457","836956","0.0-4.0-2.145","4","High_HMMActual","87.73000000114553","","","","Images/WhiteBeadChoiceCorrect.png","39"
"image-keyboard-response","458","837376","0.0-4.0-0.146","4","High_HMMActual","418.20999999984633","","","","Images/NewTrialWC.png","37"
"image-keyboard-response","459","837628","0.0-4.0-1.146","4","High_HMMActual","null","","","","Images/BlackBeadChoice.png","null"
"image-keyboard-response","460","838130","0.0-4.0-2.146","4","High_HMMActual","25.92499999993015","","","","Images/BlackBeadChoiceCorrect.png","37"
"image-keyboard-response","461","838230","0.0-4.0-0.147","4","High_HMMActual","97.84500000020489","","","","Images/NewTrialBC.png","37"
"image-keyboard-response","462","838483","0.0-4.0-1.147","4","High_HMMActual","null","","","","Images/BlackBeadChoice.png","null"
"image-keyboard-response","463","838986","0.0-4.0-2.147","4","High_HMMActual","30.1499999986263","","","","Images/BlackBeadChoiceCorrect.png","37"
"image-keyboard-response","464","839896","0.0-4.0-0.148","4","High_HMMActual","907.9849999998696","","","","Images/NewTrialBC.png","39"
"image-keyboard-response","465","840149","0.0-4.0-1.148","4","High_HMMActual","null","","","","Images/WhiteBeadChoice.png","null"
"image-keyboard-response","466","840653","0.0-4.0-2.148","4","High_HMMActual","315.23999999987427","","","","Images/WhiteBeadChoiceCorrect.png","37"
"image-keyboard-response","467","841021","0.0-4.0-0.149","4","High_HMMActual","365.62500000034925","","","","Images/NewTrialWC.png","39"
"image-keyboard-response","468","841273","0.0-4.0-1.149","4","High_HMMActual","null","","","","Images/WhiteBeadChoice.png","null"
"image-keyboard-response","469","841775","0.0-4.0-2.149","4","High_HMMActual","262.73000000044703","","","","Images/WhiteBeadChoiceWrong.png","37"
"image-keyboard-response","470","842033","0.0-4.0-0.150","4","High_HMMActual","255.57499999913853","","","","Images/NewTrialBC.png","39"
"image-keyboard-response","471","842285","0.0-4.0-1.150","4","High_HMMActual","null","","","","Images/WhiteBeadChoice.png","null"
"image-keyboard-response","472","842788","0.0-4.0-2.150","4","High_HMMActual","251.7100000004284","","","","Images/WhiteBeadChoiceWrong.png","37"
"image-keyboard-response","473","843071","0.0-4.0-0.151","4","High_HMMActual","280.9049999995623","","","","Images/NewTrialBC.png","39"
"image-keyboard-response","474","843324","0.0-4.0-1.151","4","High_HMMActual","null","","","","Images/WhiteBeadChoice.png","null"
"image-keyboard-response","475","843827","0.0-4.0-2.151","4","High_HMMActual","271.9899999992922","","","","Images/WhiteBeadChoiceWrong.png","37"
"image-keyboard-response","476","844105","0.0-4.0-0.152","4","High_HMMActual","275.72000000148546","","","","Images/NewTrialBC.png","39"
"image-keyboard-response","477","844357","0.0-4.0-1.152","4","High_HMMActual","null","","","","Images/WhiteBeadChoice.png","null"
"image-keyboard-response","478","844859","0.0-4.0-2.152","4","High_HMMActual","279.915000001085","","","","Images/WhiteBeadChoiceWrong.png","17"
"image-keyboard-response","479","849303","0.0-4.0-0.153","4","High_HMMActual","4442.490000001271","","","","Images/NewTrialBC.png","37"
"image-keyboard-response","480","849556","0.0-4.0-1.153","4","High_HMMActual","24.534999998635612","","","","Images/BlackBeadChoice.png","17"
"image-keyboard-response","481","850059","0.0-4.0-2.153","4","High_HMMActual","null","","","","Images/BlackBeadChoiceWrong.png","null"
"image-keyboard-response","482","852219","0.0-4.0-0.154","4","High_HMMActual","2157.9799999999814","","","","Images/NewTrialWC.png","37"
"image-keyboard-response","483","852471","0.0-4.0-1.154","4","High_HMMActual","null","","","","Images/BlackBeadChoice.png","null"
"image-keyboard-response","484","852972","0.0-4.0-2.154","4","High_HMMActual","412.22500000009313","","","","Images/BlackBeadChoiceCorrect.png","40"
"image-keyboard-response","485","853797","0.0-4.0-0.155","4","High_HMMActual","822.4699999991572","","","","Images/NewTrialBC.png","37"
"image-keyboard-response","486","854051","0.0-4.0-1.155","4","High_HMMActual","null","","","","Images/BlackBeadChoice.png","null"
"image-keyboard-response","487","854553","0.0-4.0-2.155","4","High_HMMActual","352.56000000122003","","","","Images/BlackBeadChoiceWrong.png","39"
"image-keyboard-response","488","855236","0.0-4.0-0.156","4","High_HMMActual","680.0049999982584","","","","Images/NewTrialWC.png","37"
"image-keyboard-response","489","855488","0.0-4.0-1.156","4","High_HMMActual","null","","","","Images/BlackBeadChoice.png","null"
"image-keyboard-response","490","855992","0.0-4.0-2.156","4","High_HMMActual","null","","","","Images/BlackBeadChoiceCorrect.png","null"
"image-keyboard-response","491","856022","0.0-4.0-0.157","4","High_HMMActual","28.800000000046566","","","","Images/NewTrialBC.png","39"
"image-keyboard-response","492","856275","0.0-4.0-1.157","4","High_HMMActual","null","","","","Images/WhiteBeadChoice.png","null"
"image-keyboard-response","493","856778","0.0-4.0-2.157","4","High_HMMActual","233.3400000006659","","","","Images/WhiteBeadChoiceCorrect.png","39"
"image-keyboard-response","494","857080","0.0-4.0-0.158","4","High_HMMActual","299.24500000011176","","","","Images/NewTrialWC.png","37"
"image-keyboard-response","495","857333","0.0-4.0-1.158","4","High_HMMActual","null","","","","Images/BlackBeadChoice.png","null"
"image-keyboard-response","496","857835","0.0-4.0-2.158","4","High_HMMActual","375.22999999974854","","","","Images/BlackBeadChoiceCorrect.png","37"
"image-keyboard-response","497","858338","0.0-4.0-0.159","4","High_HMMActual","500.7000000004191","","","","Images/NewTrialBC.png","39"
"image-keyboard-response","498","858590","0.0-4.0-1.159","4","High_HMMActual","null","","","","Images/WhiteBeadChoice.png","null"
"image-keyboard-response","499","859093","0.0-4.0-2.159","4","High_HMMActual","null","","","","Images/WhiteBeadChoiceCorrect.png","null"
"image-keyboard-response","500","859151","0.0-4.0-0.160","4","High_HMMActual","55.57999999844469","","","","Images/NewTrialWC.png","37"
"image-keyboard-response","501","859403","0.0-4.0-1.160","4","High_HMMActual","null","","","","Images/BlackBeadChoice.png","null"
"image-keyboard-response","502","859905","0.0-4.0-2.160","4","High_HMMActual","338.04500000039116","","","","Images/BlackBeadChoiceCorrect.png","39"
"image-keyboard-response","503","860308","0.0-4.0-0.161","4","High_HMMActual","401.1350000000093","","","","Images/NewTrialBC.png","37"
"image-keyboard-response","504","860561","0.0-4.0-1.161","4","High_HMMActual","null","","","","Images/BlackBeadChoice.png","null"
"image-keyboard-response","505","861063","0.0-4.0-2.161","4","High_HMMActual","363.11999999999534","","","","Images/BlackBeadChoiceWrong.png","39"
"image-keyboard-response","506","861540","0.0-4.0-0.162","4","High_HMMActual","473.13500000012573","","","","Images/NewTrialWC.png","37"
"image-keyboard-response","507","861793","0.0-4.0-1.162","4","High_HMMActual","null","","","","Images/BlackBeadChoice.png","null"
"image-keyboard-response","508","862295","0.0-4.0-2.162","4","High_HMMActual","362.0699999992503","","","","Images/BlackBeadChoiceCorrect.png","39"
"image-keyboard-response","509","863462","0.0-4.0-0.163","4","High_HMMActual","1164.8699999987148","","","","Images/NewTrialBC.png","37"
"image-keyboard-response","510","863714","0.0-4.0-1.163","4","High_HMMActual","null","","","","Images/BlackBeadChoice.png","null"
"image-keyboard-response","511","864217","0.0-4.0-2.163","4","High_HMMActual","419.5149999996647","","","","Images/BlackBeadChoiceWrong.png","39"
"image-keyboard-response","512","864712","0.0-4.0-0.164","4","High_HMMActual","493.10500000137836","","","","Images/NewTrialWC.png","37"
"image-keyboard-response","513","864964","0.0-4.0-1.164","4","High_HMMActual","null","","","","Images/BlackBeadChoice.png","null"
"image-keyboard-response","514","865466","0.0-4.0-2.164","4","High_HMMActual","309.1850000000559","","","","Images/BlackBeadChoiceCorrect.png","39"
"image-keyboard-response","515","865867","0.0-4.0-0.165","4","High_HMMActual","398.6199999998789","","","","Images/NewTrialBC.png","37"
"image-keyboard-response","516","866119","0.0-4.0-1.165","4","High_HMMActual","null","","","","Images/BlackBeadChoice.png","null"
"image-keyboard-response","517","866622","0.0-4.0-2.165","4","High_HMMActual","402.7949999999255","","","","Images/BlackBeadChoiceWrong.png","39"
"image-keyboard-response","518","867408","0.0-4.0-0.166","4","High_HMMActual","784.5899999993853","","","","Images/NewTrialWC.png","37"
"image-keyboard-response","519","867662","0.0-4.0-1.166","4","High_HMMActual","null","","","","Images/BlackBeadChoice.png","null"
"image-keyboard-response","520","868164","0.0-4.0-2.166","4","High_HMMActual","434.90500000014435","","","","Images/BlackBeadChoiceWrong.png","39"
"image-keyboard-response","521","868775","0.0-4.0-0.167","4","High_HMMActual","608.7299999999814","","","","Images/NewTrialWC.png","37"
"image-keyboard-response","522","869028","0.0-4.0-1.167","4","High_HMMActual","null","","","","Images/BlackBeadChoice.png","null"
"image-keyboard-response","523","869531","0.0-4.0-2.167","4","High_HMMActual","396.6249999994179","","","","Images/BlackBeadChoiceWrong.png","39"
"image-keyboard-response","524","870113","0.0-4.0-0.168","4","High_HMMActual","580.3500000000931","","","","Images/NewTrialWC.png","37"
"image-keyboard-response","525","870366","0.0-4.0-1.168","4","High_HMMActual","null","","","","Images/BlackBeadChoice.png","null"
"image-keyboard-response","526","870868","0.0-4.0-2.168","4","High_HMMActual","429.5449999991106","","","","Images/BlackBeadChoiceCorrect.png","39"
"image-keyboard-response","527","871553","0.0-4.0-0.169","4","High_HMMActual","683.4699999999721","","","","Images/NewTrialBC.png","37"
"image-keyboard-response","528","871807","0.0-4.0-1.169","4","High_HMMActual","null","","","","Images/BlackBeadChoice.png","null"
"image-keyboard-response","529","872310","0.0-4.0-2.169","4","High_HMMActual","null","","","","Images/BlackBeadChoiceCorrect.png","null"
"image-keyboard-response","530","872390","0.0-4.0-0.170","4","High_HMMActual","78.54500000027474","","","","Images/NewTrialBC.png","39"
"image-keyboard-response","531","872644","0.0-4.0-1.170","4","High_HMMActual","null","","","","Images/WhiteBeadChoice.png","null"
"image-keyboard-response","532","873147","0.0-4.0-2.170","4","High_HMMActual","null","","","","Images/WhiteBeadChoiceCorrect.png","null"
"image-keyboard-response","533","890621","0.0-4.0-0.171","4","High_HMMActual","17472.644999999902","","","","Images/NewTrialWC.png","39"
"image-keyboard-response","534","890875","0.0-4.0-1.171","4","High_HMMActual","null","","","","Images/WhiteBeadChoice.png","null"
"image-keyboard-response","535","891378","0.0-4.0-2.171","4","High_HMMActual","null","","","","Images/WhiteBeadChoiceCorrect.png","null"
"image-keyboard-response","536","891659","0.0-4.0-0.172","4","High_HMMActual","279.9050000013085","","","","Images/NewTrialWC.png","39"
"image-keyboard-response","537","891913","0.0-4.0-1.172","4","High_HMMActual","null","","","","Images/WhiteBeadChoice.png","null"
"image-keyboard-response","538","892415","0.0-4.0-2.172","4","High_HMMActual","null","","","","Images/WhiteBeadChoiceCorrect.png","null"
"image-keyboard-response","539","892696","0.0-4.0-0.173","4","High_HMMActual","278.1749999994645","","","","Images/NewTrialWC.png","39"
"image-keyboard-response","540","892948","0.0-4.0-1.173","4","High_HMMActual","null","","","","Images/WhiteBeadChoice.png","null"
"image-keyboard-response","541","893451","0.0-4.0-2.173","4","High_HMMActual","null","","","","Images/WhiteBeadChoiceWrong.png","null"
"image-keyboard-response","542","896065","0.0-4.0-0.174","4","High_HMMActual","2612.2350000004517","","","","Images/NewTrialBC.png","39"
"image-keyboard-response","543","896317","0.0-4.0-1.174","4","High_HMMActual","null","","","","Images/WhiteBeadChoice.png","null"
"image-keyboard-response","544","896819","0.0-4.0-2.174","4","High_HMMActual","null","","","","Images/WhiteBeadChoiceWrong.png","null"
"image-keyboard-response","545","897392","0.0-4.0-0.175","4","High_HMMActual","570.4100000002654","","","","Images/NewTrialBC.png","39"
"image-keyboard-response","546","897645","0.0-4.0-1.175","4","High_HMMActual","null","","","","Images/WhiteBeadChoice.png","null"
"image-keyboard-response","547","898148","0.0-4.0-2.175","4","High_HMMActual","null","","","","Images/WhiteBeadChoiceCorrect.png","null"
"image-keyboard-response","548","898925","0.0-4.0-0.176","4","High_HMMActual","775.079999999376","","","","Images/NewTrialWC.png","39"
"image-keyboard-response","549","899178","0.0-4.0-1.176","4","High_HMMActual","null","","","","Images/WhiteBeadChoice.png","null"
"image-keyboard-response","550","899680","0.0-4.0-2.176","4","High_HMMActual","null","","","","Images/WhiteBeadChoiceWrong.png","null"
"image-keyboard-response","551","900556","0.0-4.0-0.177","4","High_HMMActual","873.805000001099","","","","Images/NewTrialBC.png","37"
"image-keyboard-response","552","900808","0.0-4.0-1.177","4","High_HMMActual","null","","","","Images/BlackBeadChoice.png","null"
"image-keyboard-response","553","901311","0.0-4.0-2.177","4","High_HMMActual","null","","","","Images/BlackBeadChoiceWrong.png","null"
"image-keyboard-response","554","902486","0.0-4.0-0.178","4","High_HMMActual","1172.6599999984028","","","","Images/NewTrialWC.png","39"
"image-keyboard-response","555","902738","0.0-4.0-1.178","4","High_HMMActual","null","","","","Images/WhiteBeadChoice.png","null"
"image-keyboard-response","556","903241","0.0-4.0-2.178","4","High_HMMActual","null","","","","Images/WhiteBeadChoiceWrong.png","null"
"image-keyboard-response","557","904009","0.0-4.0-0.179","4","High_HMMActual","765.7900000013178","","","","Images/NewTrialBC.png","39"
"image-keyboard-response","558","904262","0.0-4.0-1.179","4","High_HMMActual","null","","","","Images/WhiteBeadChoice.png","null"
"image-keyboard-response","559","904765","0.0-4.0-2.179","4","High_HMMActual","null","","","","Images/WhiteBeadChoiceCorrect.png","null"
"image-keyboard-response","560","905914","0.0-4.0-0.180","4","High_HMMActual","1147.3650000008056","","","","Images/NewTrialWC.png","37"
"image-keyboard-response","561","906168","0.0-4.0-1.180","4","High_HMMActual","null","","","","Images/BlackBeadChoice.png","null"
"image-keyboard-response","562","906671","0.0-4.0-2.180","4","High_HMMActual","null","","","","Images/BlackBeadChoiceCorrect.png","null"
"image-keyboard-response","563","908313","0.0-4.0-0.181","4","High_HMMActual","1640.71999999939","","","","Images/NewTrialBC.png","39"
"image-keyboard-response","564","908567","0.0-4.0-1.181","4","High_HMMActual","null","","","","Images/WhiteBeadChoice.png","null"
"image-keyboard-response","565","909070","0.0-4.0-2.181","4","High_HMMActual","null","","","","Images/WhiteBeadChoiceCorrect.png","null"
"image-keyboard-response","566","911687","0.0-4.0-0.182","4","High_HMMActual","2615.33000000054","","","","Images/NewTrialWC.png","37"
"image-keyboard-response","567","911941","0.0-4.0-1.182","4","High_HMMActual","null","","","","Images/BlackBeadChoice.png","null"
"image-keyboard-response","568","912443","0.0-4.0-2.182","4","High_HMMActual","null","","","","Images/BlackBeadChoiceCorrect.png","null"
"image-keyboard-response","569","913218","0.0-4.0-0.183","4","High_HMMActual","771.9349999987753","","","","Images/NewTrialBC.png","39"
"image-keyboard-response","570","913470","0.0-4.0-1.183","4","High_HMMActual","null","","","","Images/WhiteBeadChoice.png","null"
"image-keyboard-response","571","913973","0.0-4.0-2.183","4","High_HMMActual","null","","","","Images/WhiteBeadChoiceCorrect.png","null"
"image-keyboard-response","572","915145","0.0-4.0-0.184","4","High_HMMActual","1169.149999999674","","","","Images/NewTrialWC.png","37"
"image-keyboard-response","573","915397","0.0-4.0-1.184","4","High_HMMActual","null","","","","Images/BlackBeadChoice.png","null"
"image-keyboard-response","574","915899","0.0-4.0-2.184","4","High_HMMActual","null","","","","Images/BlackBeadChoiceWrong.png","null"
"image-keyboard-response","575","917049","0.0-4.0-0.185","4","High_HMMActual","1146.244999999879","","","","Images/NewTrialWC.png","37"
"image-keyboard-response","576","917302","0.0-4.0-1.185","4","High_HMMActual","null","","","","Images/BlackBeadChoice.png","null"
"image-keyboard-response","577","917805","0.0-4.0-2.185","4","High_HMMActual","null","","","","Images/BlackBeadChoiceWrong.png","null"
"image-keyboard-response","578","918390","0.0-4.0-0.186","4","High_HMMActual","582.6699999996927","","","","Images/NewTrialWC.png","37"
"image-keyboard-response","579","918642","0.0-4.0-1.186","4","High_HMMActual","null","","","","Images/BlackBeadChoice.png","null"
"image-keyboard-response","580","919145","0.0-4.0-2.186","4","High_HMMActual","null","","","","Images/BlackBeadChoiceWrong.png","null"
"image-keyboard-response","581","919463","0.0-4.0-0.187","4","High_HMMActual","316.2250000004424","","","","Images/NewTrialWC.png","37"
"image-keyboard-response","582","919717","0.0-4.0-1.187","4","High_HMMActual","null","","","","Images/BlackBeadChoice.png","null"
"image-keyboard-response","583","920220","0.0-4.0-2.187","4","High_HMMActual","null","","","","Images/BlackBeadChoiceWrong.png","null"
"image-keyboard-response","584","921639","0.0-4.0-0.188","4","High_HMMActual","1417.3699999991804","","","","Images/NewTrialWC.png","37"
"image-keyboard-response","585","921892","0.0-4.0-1.188","4","High_HMMActual","null","","","","Images/BlackBeadChoice.png","null"
"image-keyboard-response","586","922395","0.0-4.0-2.188","4","High_HMMActual","null","","","","Images/BlackBeadChoiceWrong.png","null"
"image-keyboard-response","587","922606","0.0-4.0-0.189","4","High_HMMActual","208.85500000067987","","","","Images/NewTrialWC.png","37"
"image-keyboard-response","588","922859","0.0-4.0-1.189","4","High_HMMActual","null","","","","Images/BlackBeadChoice.png","null"
"image-keyboard-response","589","923362","0.0-4.0-2.189","4","High_HMMActual","null","","","","Images/BlackBeadChoiceWrong.png","null"
"image-keyboard-response","590","923978","0.0-4.0-0.190","4","High_HMMActual","613.9949999997625","","","","Images/NewTrialWC.png","39"
"image-keyboard-response","591","924230","0.0-4.0-1.190","4","High_HMMActual","null","","","","Images/WhiteBeadChoice.png","null"
"image-keyboard-response","592","924733","0.0-4.0-2.190","4","High_HMMActual","null","","","","Images/WhiteBeadChoiceCorrect.png","null"
"image-keyboard-response","593","925056","0.0-4.0-0.191","4","High_HMMActual","321.72999999974854","","","","Images/NewTrialWC.png","39"
"image-keyboard-response","594","925309","0.0-4.0-1.191","4","High_HMMActual","null","","","","Images/WhiteBeadChoice.png","null"
"image-keyboard-response","595","925812","0.0-4.0-2.191","4","High_HMMActual","null","","","","Images/WhiteBeadChoiceWrong.png","null"
"image-keyboard-response","596","926981","0.0-4.0-0.192","4","High_HMMActual","1167.874999999185","","","","Images/NewTrialBC.png","37"
"image-keyboard-response","597","927235","0.0-4.0-1.192","4","High_HMMActual","null","","","","Images/BlackBeadChoice.png","null"
"image-keyboard-response","598","927738","0.0-4.0-2.192","4","High_HMMActual","null","","","","Images/BlackBeadChoiceWrong.png","null"
"image-keyboard-response","599","928931","0.0-4.0-0.193","4","High_HMMActual","1190.7750000009546","","","","Images/NewTrialWC.png","39"
"image-keyboard-response","600","929183","0.0-4.0-1.193","4","High_HMMActual","null","","","","Images/WhiteBeadChoice.png","null"
"image-keyboard-response","601","929686","0.0-4.0-2.193","4","High_HMMActual","null","","","","Images/WhiteBeadChoiceCorrect.png","null"
"image-keyboard-response","602","930556","0.0-4.0-0.194","4","High_HMMActual","868.2699999989709","","","","Images/NewTrialWC.png","39"
"image-keyboard-response","603","930808","0.0-4.0-1.194","4","High_HMMActual","null","","","","Images/WhiteBeadChoice.png","null"
"image-keyboard-response","604","931311","0.0-4.0-2.194","4","High_HMMActual","null","","","","Images/WhiteBeadChoiceCorrect.png","null"
"image-keyboard-response","605","931613","0.0-4.0-0.195","4","High_HMMActual","299.3200000000652","","","","Images/NewTrialWC.png","39"
"image-keyboard-response","606","931865","0.0-4.0-1.195","4","High_HMMActual","null","","","","Images/WhiteBeadChoice.png","null"
"image-keyboard-response","607","932368","0.0-4.0-2.195","4","High_HMMActual","null","","","","Images/WhiteBeadChoiceWrong.png","null"
"image-keyboard-response","608","933209","0.0-4.0-0.196","4","High_HMMActual","838.2699999983888","","","","Images/NewTrialBC.png","37"
"image-keyboard-response","609","933461","0.0-4.0-1.196","4","High_HMMActual","null","","","","Images/BlackBeadChoice.png","null"
"image-keyboard-response","610","933963","0.0-4.0-2.196","4","High_HMMActual","null","","","","Images/BlackBeadChoiceWrong.png","null"
"image-keyboard-response","611","964901","0.0-4.0-0.197","4","High_HMMActual","30935.31999999867","","","","Images/NewTrialWC.png","39"
"image-keyboard-response","612","965154","0.0-4.0-1.197","4","High_HMMActual","null","","","","Images/WhiteBeadChoice.png","null"
"image-keyboard-response","613","965657","0.0-4.0-2.197","4","High_HMMActual","null","","","","Images/WhiteBeadChoiceCorrect.png","null"
"image-keyboard-response","614","965707","0.0-4.0-0.198","4","High_HMMActual","48.414999999222346","","","","Images/NewTrialWC.png","39"
"image-keyboard-response","615","965960","0.0-4.0-1.198","4","High_HMMActual","null","","","","Images/WhiteBeadChoice.png","null"
"image-keyboard-response","616","966462","0.0-4.0-2.198","4","High_HMMActual","251.445000001695","","","","Images/WhiteBeadChoiceCorrect.png","39"
"image-keyboard-response","617","967882","0.0-4.0-0.199","4","High_HMMActual","1418.1950000001816","","","","Images/NewTrialWC.png","39"
"image-keyboard-response","618","968135","0.0-4.0-1.199","4","High_HMMActual","15.755000000353903","","","","Images/WhiteBeadChoice.png","39"
"image-keyboard-response","619","968637","0.0-4.0-2.199","4","High_HMMActual","null","","","","Images/WhiteBeadChoiceWrong.png","null"
"image-keyboard-response","620","968782","0.0-4.0-0.200","4","High_HMMActual","142.6099999989383","","","","Images/NewTrialBC.png","39"
"image-keyboard-response","621","969036","0.0-4.0-1.200","4","High_HMMActual","null","","","","Images/WhiteBeadChoice.png","null"
"image-keyboard-response","622","969538","0.0-4.0-2.200","4","High_HMMActual","119.21000000066124","","","","Images/WhiteBeadChoiceWrong.png","39"
"image-keyboard-response","623","969542","0.0-4.0-0.201","4","High_HMMActual","1.1149999990593642","","","","Images/NewTrialBC.png","39"
"image-keyboard-response","624","969793","0.0-4.0-1.201","4","High_HMMActual","183.03999999992084","","","","Images/WhiteBeadChoice.png","39"
"image-keyboard-response","625","970295","0.0-4.0-2.201","4","High_HMMActual","109.57000000053085","","","","Images/WhiteBeadChoiceWrong.png","39"
"image-keyboard-response","626","970448","0.0-4.0-0.202","4","High_HMMActual","150.6100000005681","","","","Images/NewTrialBC.png","39"
"image-keyboard-response","627","970702","0.0-4.0-1.202","4","High_HMMActual","194.3950000004843","","","","Images/WhiteBeadChoice.png","39"
"image-keyboard-response","628","971204","0.0-4.0-2.202","4","High_HMMActual","113.69000000017695","","","","Images/WhiteBeadChoiceCorrect.png","39"
"image-keyboard-response","629","971369","0.0-4.0-0.203","4","High_HMMActual","162.5199999997858","","","","Images/NewTrialWC.png","39"
"image-keyboard-response","630","971622","0.0-4.0-1.203","4","High_HMMActual","null","","","","Images/WhiteBeadChoice.png","null"
"image-keyboard-response","631","972124","0.0-4.0-2.203","4","High_HMMActual","443.02500000060536","","","","Images/WhiteBeadChoiceWrong.png","37"
"image-keyboard-response","632","972790","0.0-4.0-0.204","4","High_HMMActual","663.6250000010477","","","","Images/NewTrialBC.png","39"
"image-keyboard-response","633","973043","0.0-4.0-1.204","4","High_HMMActual","null","","","","Images/WhiteBeadChoice.png","null"
"image-keyboard-response","634","973545","0.0-4.0-2.204","4","High_HMMActual","253.99499999906402","","","","Images/WhiteBeadChoiceCorrect.png","37"
"image-keyboard-response","635","974072","0.0-4.0-0.205","4","High_HMMActual","524.7450000006938","","","","Images/NewTrialWC.png","39"
"image-keyboard-response","636","974324","0.0-4.0-1.205","4","High_HMMActual","null","","","","Images/WhiteBeadChoice.png","null"
"image-keyboard-response","637","974827","0.0-4.0-2.205","4","High_HMMActual","302.3149999990128","","","","Images/WhiteBeadChoiceWrong.png","37"
"image-keyboard-response","638","975169","0.0-4.0-0.206","4","High_HMMActual","339.49000000033993","","","","Images/NewTrialBC.png","39"
"image-keyboard-response","639","975422","0.0-4.0-1.206","4","High_HMMActual","null","","","","Images/WhiteBeadChoice.png","null"
"image-keyboard-response","640","975925","0.0-4.0-2.206","4","High_HMMActual","null","","","","Images/WhiteBeadChoiceCorrect.png","null"
"image-keyboard-response","641","975942","0.0-4.0-0.207","4","High_HMMActual","14.950000000768341","","","","Images/NewTrialWC.png","37"
"image-keyboard-response","642","976195","0.0-4.0-1.207","4","High_HMMActual","null","","","","Images/BlackBeadChoice.png","null"
"image-keyboard-response","643","976698","0.0-4.0-2.207","4","High_HMMActual","306.22500000020955","","","","Images/BlackBeadChoiceCorrect.png","39"
"image-keyboard-response","644","976995","0.0-4.0-0.208","4","High_HMMActual","294.8150000011083","","","","Images/NewTrialBC.png","37"
"image-keyboard-response","645","977248","0.0-4.0-1.208","4","High_HMMActual","null","","","","Images/BlackBeadChoice.png","null"
"image-keyboard-response","646","977751","0.0-4.0-2.208","4","High_HMMActual","294.57499999995343","","","","Images/BlackBeadChoiceWrong.png","39"
"image-keyboard-response","647","978055","0.0-4.0-0.209","4","High_HMMActual","301.83000000030734","","","","Images/NewTrialWC.png","37"
"image-keyboard-response","648","978308","0.0-4.0-1.209","4","High_HMMActual","null","","","","Images/BlackBeadChoice.png","null"
"image-keyboard-response","649","978810","0.0-4.0-2.209","4","High_HMMActual","197.53500000108033","","","","Images/BlackBeadChoiceCorrect.png","37"
"image-keyboard-response","650","978964","0.0-4.0-0.210","4","High_HMMActual","152.67000000132248","","","","Images/NewTrialBC.png","37"
"image-keyboard-response","651","979217","0.0-4.0-1.210","4","High_HMMActual","null","","","","Images/BlackBeadChoice.png","null"
"image-keyboard-response","652","979719","0.0-4.0-2.210","4","High_HMMActual","376.6500000001397","","","","Images/BlackBeadChoiceWrong.png","39"
"image-keyboard-response","653","980187","0.0-4.0-0.211","4","High_HMMActual","465.58499999996275","","","","Images/NewTrialWC.png","37"
"image-keyboard-response","654","980439","0.0-4.0-1.211","4","High_HMMActual","null","","","","Images/BlackBeadChoice.png","null"
"image-keyboard-response","655","980942","0.0-4.0-2.211","4","High_HMMActual","340.6749999994645","","","","Images/BlackBeadChoiceCorrect.png","39"
"image-keyboard-response","656","981407","0.0-4.0-0.212","4","High_HMMActual","463.5000000016298","","","","Images/NewTrialBC.png","37"
"image-keyboard-response","657","981661","0.0-4.0-1.212","4","High_HMMActual","null","","","","Images/BlackBeadChoice.png","null"
"image-keyboard-response","658","982163","0.0-4.0-2.212","4","High_HMMActual","250.4850000004517","","","","Images/BlackBeadChoiceCorrect.png","37"
"image-keyboard-response","659","982382","0.0-4.0-0.213","4","High_HMMActual","217.19999999913853","","","","Images/NewTrialBC.png","37"
"image-keyboard-response","660","982636","0.0-4.0-1.213","4","High_HMMActual","null","","","","Images/BlackBeadChoice.png","null"
"image-keyboard-response","661","983139","0.0-4.0-2.213","4","High_HMMActual","367.9099999991013","","","","Images/BlackBeadChoiceCorrect.png","39"
"image-keyboard-response","662","983682","0.0-4.0-0.214","4","High_HMMActual","541.4450000006473","","","","Images/NewTrialBC.png","37"
"image-keyboard-response","663","983936","0.0-4.0-1.214","4","High_HMMActual","null","","","","Images/BlackBeadChoice.png","null"
"image-keyboard-response","664","984438","0.0-4.0-2.214","4","High_HMMActual","269.02999999944586","","","","Images/BlackBeadChoiceWrong.png","37"
"image-keyboard-response","665","985406","0.0-4.0-0.215","4","High_HMMActual","966.449999999837","","","","Images/NewTrialWC.png","39"
"image-keyboard-response","666","985659","0.0-4.0-1.215","4","High_HMMActual","null","","","","Images/WhiteBeadChoice.png","null"
"image-keyboard-response","667","986161","0.0-4.0-2.215","4","High_HMMActual","200.61499999964144","","","","Images/WhiteBeadChoiceCorrect.png","39"
"image-keyboard-response","668","986279","0.0-4.0-0.216","4","High_HMMActual","116.86000000010245","","","","Images/NewTrialWC.png","39"
"image-keyboard-response","669","986533","0.0-4.0-1.216","4","High_HMMActual","null","","","","Images/WhiteBeadChoice.png","null"
"image-keyboard-response","670","987036","0.0-4.0-2.216","4","High_HMMActual","148.36499999905936","","","","Images/WhiteBeadChoiceCorrect.png","39"
"image-keyboard-response","671","987118","0.0-4.0-0.217","4","High_HMMActual","80.39000000094529","","","","Images/NewTrialWC.png","39"
"image-keyboard-response","672","987370","0.0-4.0-1.217","4","High_HMMActual","null","","","","Images/WhiteBeadChoice.png","null"
"image-keyboard-response","673","987873","0.0-4.0-2.217","4","High_HMMActual","125.52499999955762","","","","Images/WhiteBeadChoiceWrong.png","39"
"image-keyboard-response","674","987910","0.0-4.0-0.218","4","High_HMMActual","34.14999999955762","","","","Images/NewTrialBC.png","39"
"image-keyboard-response","675","988161","0.0-4.0-1.218","4","High_HMMActual","null","","","","Images/WhiteBeadChoice.png","null"
"image-keyboard-response","676","988663","0.0-4.0-2.218","4","High_HMMActual","22.09000000031665","","","","Images/WhiteBeadChoiceCorrect.png","39"
"image-keyboard-response","677","988848","0.0-4.0-0.219","4","High_HMMActual","182.20500000100583","","","","Images/NewTrialWC.png","39"
"image-keyboard-response","678","989100","0.0-4.0-1.219","4","High_HMMActual","null","","","","Images/WhiteBeadChoice.png","null"
"image-keyboard-response","679","989603","0.0-4.0-2.219","4","High_HMMActual","154.53499999968335","","","","Images/WhiteBeadChoiceCorrect.png","39"
"image-keyboard-response","680","989708","0.0-4.0-0.220","4","High_HMMActual","102.31500000006054","","","","Images/NewTrialWC.png","39"
"image-keyboard-response","681","989960","0.0-4.0-1.220","4","High_HMMActual","null","","","","Images/WhiteBeadChoice.png","null"
"image-keyboard-response","682","990464","0.0-4.0-2.220","4","High_HMMActual","null","","","","Images/WhiteBeadChoiceWrong.png","null"
"image-keyboard-response","683","990798","0.0-4.0-0.221","4","High_HMMActual","331.239999999525","","","","Images/NewTrialBC.png","37"
"image-keyboard-response","684","991050","0.0-4.0-1.221","4","High_HMMActual","null","","","","Images/BlackBeadChoice.png","null"
"image-keyboard-response","685","991553","0.0-4.0-2.221","4","High_HMMActual","187.71500000008382","","","","Images/BlackBeadChoiceCorrect.png","37"
"image-keyboard-response","686","991676","0.0-4.0-0.222","4","High_HMMActual","120.30500000040047","","","","Images/NewTrialBC.png","37"
"image-keyboard-response","687","991928","0.0-4.0-1.222","4","High_HMMActual","null","","","","Images/BlackBeadChoice.png","null"
"image-keyboard-response","688","992430","0.0-4.0-2.222","4","High_HMMActual","197.87999999977183","","","","Images/BlackBeadChoiceWrong.png","37"
"image-keyboard-response","689","992591","0.0-4.0-0.223","4","High_HMMActual","159.31500000075903","","","","Images/NewTrialWC.png","37"
"image-keyboard-response","690","992844","0.0-4.0-1.223","4","High_HMMActual","null","","","","Images/BlackBeadChoice.png","null"
"image-keyboard-response","691","993347","0.0-4.0-2.223","4","High_HMMActual","298.05999999912456","","","","Images/BlackBeadChoiceCorrect.png","37"
"image-keyboard-response","692","994372","0.0-4.0-0.224","4","High_HMMActual","1023.0700000011129","","","","Images/NewTrialBC.png","39"
"image-keyboard-response","693","994624","0.0-4.0-1.224","4","High_HMMActual","null","","","","Images/WhiteBeadChoice.png","null"
"image-keyboard-response","694","995126","0.0-4.0-2.224","4","High_HMMActual","257.380000000936","","","","Images/WhiteBeadChoiceCorrect.png","39"
"image-keyboard-response","695","995452","0.0-4.0-0.225","4","High_HMMActual","323.9050000010757","","","","Images/NewTrialWC.png","39"
"image-keyboard-response","696","995704","0.0-4.0-1.225","4","High_HMMActual","null","","","","Images/WhiteBeadChoice.png","null"
"image-keyboard-response","697","996206","0.0-4.0-2.225","4","High_HMMActual","310.1850000002887","","","","Images/WhiteBeadChoiceCorrect.png","39"
"image-keyboard-response","698","997307","0.0-4.0-0.226","4","High_HMMActual","1099.0600000004051","","","","Images/NewTrialWC.png","39"
"image-keyboard-response","699","997559","0.0-4.0-1.226","4","High_HMMActual","null","","","","Images/WhiteBeadChoice.png","null"
"image-keyboard-response","700","998062","0.0-4.0-2.226","4","High_HMMActual","null","","","","Images/WhiteBeadChoiceCorrect.png","null"
"image-keyboard-response","701","1003332","0.0-4.0-0.227","4","High_HMMActual","5268.124999998603","","","","Images/NewTrialWC.png","37"
"image-keyboard-response","702","1003585","0.0-4.0-1.227","4","High_HMMActual","null","","","","Images/BlackBeadChoice.png","null"
"image-keyboard-response","703","1004089","0.0-4.0-2.227","4","High_HMMActual","0.3949999992037192","","","","Images/BlackBeadChoiceCorrect.png","37"
"image-keyboard-response","704","1004303","0.0-4.0-0.228","4","High_HMMActual","211.85500000137836","","","","Images/NewTrialBC.png","37"
"image-keyboard-response","705","1004557","0.0-4.0-1.228","4","High_HMMActual","null","","","","Images/BlackBeadChoice.png","null"
"image-keyboard-response","706","1005059","0.0-4.0-2.228","4","High_HMMActual","null","","","","Images/BlackBeadChoiceWrong.png","null"
"image-keyboard-response","707","1005428","0.0-4.0-0.229","4","High_HMMActual","367.759999999078","","","","Images/NewTrialWC.png","39"
"image-keyboard-response","708","1005682","0.0-4.0-1.229","4","High_HMMActual","null","","","","Images/WhiteBeadChoice.png","null"
"image-keyboard-response","709","1006183","0.0-4.0-2.229","4","High_HMMActual","327.88000000070315","","","","Images/WhiteBeadChoiceWrong.png","39"
"image-keyboard-response","710","1006869","0.0-4.0-0.230","4","High_HMMActual","683.8050000005169","","","","Images/NewTrialBC.png","39"
"image-keyboard-response","711","1007122","0.0-4.0-1.230","4","High_HMMActual","null","","","","Images/WhiteBeadChoice.png","null"
"image-keyboard-response","712","1007623","0.0-4.0-2.230","4","High_HMMActual","319.53000000061","","","","Images/WhiteBeadChoiceCorrect.png","39"
"image-keyboard-response","713","1009292","0.0-4.0-0.231","4","High_HMMActual","1665.8800000004703","","","","Images/NewTrialWC.png","39"
"image-keyboard-response","714","1009544","0.0-4.0-1.231","4","High_HMMActual","null","","","","Images/WhiteBeadChoice.png","null"
"image-keyboard-response","715","1010048","0.0-4.0-2.231","4","High_HMMActual","null","","","","Images/WhiteBeadChoiceWrong.png","null"
"image-keyboard-response","716","1010643","0.0-4.0-0.232","4","High_HMMActual","593.2299999985844","","","","Images/NewTrialBC.png","37"
