"trial_type","trial_index","time_elapsed","internal_node_id","Script_Picker","Block_Type","rt","url","responses","question_order","stimulus","key_press"
"pavlovia","0","6","0.0-0.0","2","High_HMMActual","","","","","",""
"external-html","1","21658","0.0-1.0-0.0","2","High_HMMActual","21519.369999994524","consent.html","","","",""
"survey-multi-choice","2","29301","0.0-1.0-1.0","2","High_HMMActual","7639.430000010179","","{""Q0"":""Male"",""Q1"":""White""}","[0,1]","",""
"survey-text","3","33083","0.0-1.0-2.0","2","High_HMMActual","3777.6599999924656","","{""Q0"":""34""}","","",""
"survey-text","4","38056","0.0-1.0-3.0","2","High_HMMActual","4865.955000015674","","{""Q0"":""582f8bbd4cadc80001b0fbd3""}","","",""
"html-keyboard-response","5","54679","0.0-2.0-0.0","2","High_HMMActual","16518.284999998286","","","","<div class=""container"" style=""height:800px;width:800px;display:flex;flex-direction:column;justify-content:center;align-items:center;text-align:center;font-weight:normal;font-family:Arial;font-size:20px""><p>In this task you will see black or white beads being pulled from jars. <br><br>On each trial, a bead will be pulled from one of two jars. Once you see this bead, your goal is to predict the color of NEXT bead that will be pulled. <br> <br>Every time you correctly guess the color of the NEXT bead, you will get a point. <br><br>Press the SPACEBAR to continue.</p><div>","32"
"html-keyboard-response","6","75312","0.0-2.0-1.0","2","High_HMMActual","20631.915000005392","","","","<div class=""container"" style=""height:800px;width:800px;display:flex;flex-direction:column;justify-content:center;align-items:center;text-align:center;font-weight:normal;font-family:Arial;font-size:20px""><p>Jars are filled with 80% white or black beads and 20% of the opposite color mixed in.<br><br>Press the SPACEBAR to continue. </p><div>","32"
"image-keyboard-response","7","87274","0.0-2.0-2.0","2","High_HMMActual","11957.85999999498","","","","resources/WhiteJar_HMM.png","32"
"image-keyboard-response","8","92367","0.0-2.0-3.0","2","High_HMMActual","5091.065000015078","","","","resources/BlackJar_HMM.png","32"
"html-keyboard-response","9","99214","0.0-2.0-4.0","2","High_HMMActual","6845.964999985881","","","","<div class=""container"" style=""height:800px;width:800px;display:flex;flex-direction:column;justify-content:center;align-items:center;text-align:center;font-weight:normal;font-family:Arial;font-size:20px""><p>There will be two blocks of trials. Each block will contain 500 trials. <br><br>Here are examples of what you will see on each trial.<br><br>Press the SPACEBAR to continue. </p><div>","32"
"image-keyboard-response","10","107869","0.0-2.0-5.0","2","High_HMMActual","8652.054999984102","","","","Images/NoChoice.png","32"
"html-keyboard-response","11","135629","0.0-2.0-6.0","2","High_HMMActual","27757.94000001042","","","","<div class=""container"" style=""height:800px;width:800px;display:flex;flex-direction:column;justify-content:center;align-items:center;text-align:center;font-weight:normal;font-family:Arial;font-size:20px""><p> The jar the beads are pulled from is NOT choosen at random on each trial.<br><br>After each prediction, there will be a chance that the jars will switch, and that the next bead will be pulled from the opposite jar as the previous trial.<br><br>In each block, the chance that a jar will switch will either be LOW (the jars will not switch very often), or HIGH (the jars will switch almost all the time).<br><br>At the start of each block, you will be told the probability that the jars will switch on each trial. This switch probability will stay constant throughout the block.<br><br>We will now show you some examples of beads being drawn from jars. The bead will appear in the middle of the screen, and the jar the bead was pulled from will be indicated with a black rectangle.<br><br>Press the SPACEBAR to continue. </p><div>","32"
"image-keyboard-response","12","149165","0.0-2.0-7.0","2","High_HMMActual","13533.055000007153","","","","Images/TutorialWhiteJarDrawHMMC.png","32"
"image-keyboard-response","13","153415","0.0-2.0-8.0","2","High_HMMActual","4247.715000004973","","","","Images/TutorialBlackJarDrawHMMC.png","32"
"image-keyboard-response","14","159784","0.0-2.0-9.0","2","High_HMMActual","6366.535000008298","","","","Images/TutorialBlackJarDrawHMMI.png","32"
"html-keyboard-response","15","174820","0.0-2.0-10.0","2","High_HMMActual","15034.945000021253","","","","<div class=""container"" style=""height:800px;width:800px;display:flex;flex-direction:column;justify-content:center;align-items:center;text-align:center;font-weight:normal;font-family:Arial;font-size:20px""><p> As you observed, a white bead was pulled from a 80% white jar, the jars switched and a black bead was pulled from the 80% black jar, but then a low-probability white bead was pulled from the 80% black jar. <br><br>This means that the color of the bead will not always match to the color of the jar it was pulled from.<br><br>Press SPACEBAR to conitnue.</p><div>","32"
"html-keyboard-response","16","179981","0.0-2.0-11.0","2","High_HMMActual","5159.610000002431","","","","<div class=""container"" style=""height:800px;width:800px;display:flex;flex-direction:column;justify-content:center;align-items:center;text-align:center;font-weight:normal;font-family:Arial;font-size:20px""><p> You will now be given a 2 question quiz to make sure you understand the task. </p><div>","32"
"image-keyboard-response","17","191344","0.0-2.0-12.0","2","High_HMMActual","11360.750000021653","","","","Images/TutorialQuestion1.png","39"
"image-keyboard-response","18","212511","0.0-2.0-13.0","2","High_HMMActual","17388.490000012098","","","","Images/TutorialQuestion2.png","38"
"html-keyboard-response","19","225490","0.0-3.0","2","High_HMMActual","10671.22499999823","","","","<div class=""container"" style=""height:800px;width:800px;display:flex;flex-direction:column;justify-content:center;align-items:center;text-align:center;font-weight:normal;font-family:Arial;font-size:20px""><p>Loading episode&hellip;</p><div>","32"
"image-keyboard-response","20","238441","0.0-4.0-0.0","2","High_HMMActual","12946.724999987055","","","","Images/NoChoice.png","37"
"image-keyboard-response","21","238844","0.0-4.0-1.0","2","High_HMMActual","null","","","","Images/BlackBeadChoice.png","null"
"image-keyboard-response","22","239547","0.0-4.0-2.0","2","High_HMMActual","null","","","","Images/BlackBeadChoiceCorrect.png","null"
"image-keyboard-response","23","243234","0.0-4.0-0.1","2","High_HMMActual","3682.775000022957","","","","Images/NewTrialBC.png","39"
"image-keyboard-response","24","243635","0.0-4.0-1.1","2","High_HMMActual","null","","","","Images/WhiteBeadChoice.png","null"
"image-keyboard-response","25","244338","0.0-4.0-2.1","2","High_HMMActual","null","","","","Images/WhiteBeadChoiceCorrect.png","null"
"image-keyboard-response","26","247550","0.0-4.0-0.2","2","High_HMMActual","3210.2299999969546","","","","Images/NewTrialWC.png","37"
"image-keyboard-response","27","247952","0.0-4.0-1.2","2","High_HMMActual","null","","","","Images/BlackBeadChoice.png","null"
"image-keyboard-response","28","248654","0.0-4.0-2.2","2","High_HMMActual","null","","","","Images/BlackBeadChoiceCorrect.png","null"
"image-keyboard-response","29","251297","0.0-4.0-0.3","2","High_HMMActual","2640.4899999906775","","","","Images/NewTrialBC.png","37"
"image-keyboard-response","30","251700","0.0-4.0-1.3","2","High_HMMActual","null","","","","Images/BlackBeadChoice.png","null"
"image-keyboard-response","31","252403","0.0-4.0-2.3","2","High_HMMActual","null","","","","Images/BlackBeadChoiceWrong.png","null"
"image-keyboard-response","32","256147","0.0-4.0-0.4","2","High_HMMActual","3741.1250000004657","","","","Images/NewTrialWC.png","39"
"image-keyboard-response","33","256549","0.0-4.0-1.4","2","High_HMMActual","null","","","","Images/WhiteBeadChoice.png","null"
"image-keyboard-response","34","257252","0.0-4.0-2.4","2","High_HMMActual","null","","","","Images/WhiteBeadChoiceWrong.png","null"
"image-keyboard-response","35","259840","0.0-4.0-0.5","2","High_HMMActual","2585.3099999949336","","","","Images/NewTrialBC.png","37"
"image-keyboard-response","36","260242","0.0-4.0-1.5","2","High_HMMActual","null","","","","Images/BlackBeadChoice.png","null"
"image-keyboard-response","37","260945","0.0-4.0-2.5","2","High_HMMActual","null","","","","Images/BlackBeadChoiceWrong.png","null"
"image-keyboard-response","38","263940","0.0-4.0-0.6","2","High_HMMActual","2992.5099999818485","","","","Images/NewTrialWC.png","37"
"image-keyboard-response","39","264344","0.0-4.0-1.6","2","High_HMMActual","null","","","","Images/BlackBeadChoice.png","null"
"image-keyboard-response","40","265046","0.0-4.0-2.6","2","High_HMMActual","null","","","","Images/BlackBeadChoiceCorrect.png","null"
"image-keyboard-response","41","266954","0.0-4.0-0.7","2","High_HMMActual","1905.2000000083353","","","","Images/NewTrialBC.png","39"
"image-keyboard-response","42","267357","0.0-4.0-1.7","2","High_HMMActual","null","","","","Images/WhiteBeadChoice.png","null"
"image-keyboard-response","43","268060","0.0-4.0-2.7","2","High_HMMActual","null","","","","Images/WhiteBeadChoiceWrong.png","null"
"image-keyboard-response","44","269926","0.0-4.0-0.8","2","High_HMMActual","1863.7499999895226","","","","Images/NewTrialBC.png","39"
"image-keyboard-response","45","270328","0.0-4.0-1.8","2","High_HMMActual","null","","","","Images/WhiteBeadChoice.png","null"
"image-keyboard-response","46","271031","0.0-4.0-2.8","2","High_HMMActual","null","","","","Images/WhiteBeadChoiceWrong.png","null"
"image-keyboard-response","47","278071","0.0-4.0-0.9","2","High_HMMActual","7038.3399999991525","","","","Images/NewTrialBC.png","39"
"image-keyboard-response","48","278474","0.0-4.0-1.9","2","High_HMMActual","null","","","","Images/WhiteBeadChoice.png","null"
"image-keyboard-response","49","279177","0.0-4.0-2.9","2","High_HMMActual","null","","","","Images/WhiteBeadChoiceCorrect.png","null"
"image-keyboard-response","50","282228","0.0-4.0-0.10","2","High_HMMActual","3048.850000021048","","","","Images/NewTrialWC.png","37"
"image-keyboard-response","51","282630","0.0-4.0-1.10","2","High_HMMActual","null","","","","Images/BlackBeadChoice.png","null"
"image-keyboard-response","52","283332","0.0-4.0-2.10","2","High_HMMActual","null","","","","Images/BlackBeadChoiceCorrect.png","null"
"image-keyboard-response","53","285807","0.0-4.0-0.11","2","High_HMMActual","2472.6649999793153","","","","Images/NewTrialBC.png","39"
"image-keyboard-response","54","286209","0.0-4.0-1.11","2","High_HMMActual","null","","","","Images/WhiteBeadChoice.png","null"
"image-keyboard-response","55","286912","0.0-4.0-2.11","2","High_HMMActual","null","","","","Images/WhiteBeadChoiceCorrect.png","null"
"image-keyboard-response","56","289550","0.0-4.0-0.12","2","High_HMMActual","2635.74499997776","","","","Images/NewTrialWC.png","37"
"image-keyboard-response","57","289952","0.0-4.0-1.12","2","High_HMMActual","null","","","","Images/BlackBeadChoice.png","null"
"image-keyboard-response","58","290654","0.0-4.0-2.12","2","High_HMMActual","null","","","","Images/BlackBeadChoiceCorrect.png","null"
"image-keyboard-response","59","292974","0.0-4.0-0.13","2","High_HMMActual","2318.3749999734573","","","","Images/NewTrialBC.png","37"
"image-keyboard-response","60","293377","0.0-4.0-1.13","2","High_HMMActual","null","","","","Images/BlackBeadChoice.png","null"
"image-keyboard-response","61","294079","0.0-4.0-2.13","2","High_HMMActual","null","","","","Images/BlackBeadChoiceCorrect.png","null"
"image-keyboard-response","62","296581","0.0-4.0-0.14","2","High_HMMActual","2499.4449999940116","","","","Images/NewTrialBC.png","39"
"image-keyboard-response","63","296985","0.0-4.0-1.14","2","High_HMMActual","null","","","","Images/WhiteBeadChoice.png","null"
"image-keyboard-response","64","297689","0.0-4.0-2.14","2","High_HMMActual","null","","","","Images/WhiteBeadChoiceWrong.png","null"
"image-keyboard-response","65","299198","0.0-4.0-0.15","2","High_HMMActual","1506.9749999966007","","","","Images/NewTrialBC.png","37"
"image-keyboard-response","66","299601","0.0-4.0-1.15","2","High_HMMActual","null","","","","Images/BlackBeadChoice.png","null"
"image-keyboard-response","67","300303","0.0-4.0-2.15","2","High_HMMActual","null","","","","Images/BlackBeadChoiceWrong.png","null"
"image-keyboard-response","68","301682","0.0-4.0-0.16","2","High_HMMActual","1376.2749999877997","","","","Images/NewTrialWC.png","37"
"image-keyboard-response","69","302088","0.0-4.0-1.16","2","High_HMMActual","null","","","","Images/BlackBeadChoice.png","null"
"image-keyboard-response","70","302790","0.0-4.0-2.16","2","High_HMMActual","null","","","","Images/BlackBeadChoiceCorrect.png","null"
"image-keyboard-response","71","304400","0.0-4.0-0.17","2","High_HMMActual","1607.7599999844097","","","","Images/NewTrialBC.png","39"
"image-keyboard-response","72","304804","0.0-4.0-1.17","2","High_HMMActual","null","","","","Images/WhiteBeadChoice.png","null"
"image-keyboard-response","73","305506","0.0-4.0-2.17","2","High_HMMActual","null","","","","Images/WhiteBeadChoiceWrong.png","null"
"image-keyboard-response","74","306707","0.0-4.0-0.18","2","High_HMMActual","1198.3349999936763","","","","Images/NewTrialBC.png","39"
"image-keyboard-response","75","307109","0.0-4.0-1.18","2","High_HMMActual","null","","","","Images/WhiteBeadChoice.png","null"
"image-keyboard-response","76","307813","0.0-4.0-2.18","2","High_HMMActual","null","","","","Images/WhiteBeadChoiceWrong.png","null"
"image-keyboard-response","77","308427","0.0-4.0-0.19","2","High_HMMActual","611.6900000197347","","","","Images/NewTrialBC.png","37"
"image-keyboard-response","78","308829","0.0-4.0-1.19","2","High_HMMActual","null","","","","Images/BlackBeadChoice.png","null"
"image-keyboard-response","79","309532","0.0-4.0-2.19","2","High_HMMActual","null","","","","Images/BlackBeadChoiceCorrect.png","null"
"image-keyboard-response","80","310618","0.0-4.0-0.20","2","High_HMMActual","1083.3699999784585","","","","Images/NewTrialBC.png","37"
"image-keyboard-response","81","311021","0.0-4.0-1.20","2","High_HMMActual","null","","","","Images/BlackBeadChoice.png","null"
"image-keyboard-response","82","311724","0.0-4.0-2.20","2","High_HMMActual","null","","","","Images/BlackBeadChoiceWrong.png","null"
"image-keyboard-response","83","314360","0.0-4.0-0.21","2","High_HMMActual","2633.284999988973","","","","Images/NewTrialWC.png","39"
"image-keyboard-response","84","314762","0.0-4.0-1.21","2","High_HMMActual","null","","","","Images/WhiteBeadChoice.png","null"
"image-keyboard-response","85","315464","0.0-4.0-2.21","2","High_HMMActual","null","","","","Images/WhiteBeadChoiceCorrect.png","null"
"image-keyboard-response","86","316450","0.0-4.0-0.22","2","High_HMMActual","982.960000023013","","","","Images/NewTrialWC.png","39"
"image-keyboard-response","87","316853","0.0-4.0-1.22","2","High_HMMActual","null","","","","Images/WhiteBeadChoice.png","null"
"image-keyboard-response","88","317555","0.0-4.0-2.22","2","High_HMMActual","null","","","","Images/WhiteBeadChoiceCorrect.png","null"
"image-keyboard-response","89","318523","0.0-4.0-0.23","2","High_HMMActual","964.9499999941327","","","","Images/NewTrialWC.png","37"
"image-keyboard-response","90","318925","0.0-4.0-1.23","2","High_HMMActual","null","","","","Images/BlackBeadChoice.png","null"
"image-keyboard-response","91","319627","0.0-4.0-2.23","2","High_HMMActual","null","","","","Images/BlackBeadChoiceWrong.png","null"
"image-keyboard-response","92","320713","0.0-4.0-0.24","2","High_HMMActual","1084.0599999937695","","","","Images/NewTrialWC.png","39"
"image-keyboard-response","93","321115","0.0-4.0-1.24","2","High_HMMActual","null","","","","Images/WhiteBeadChoice.png","null"
"image-keyboard-response","94","321817","0.0-4.0-2.24","2","High_HMMActual","null","","","","Images/WhiteBeadChoiceWrong.png","null"
"image-keyboard-response","95","323253","0.0-4.0-0.25","2","High_HMMActual","1434.3150000204332","","","","Images/NewTrialBC.png","39"
"image-keyboard-response","96","323656","0.0-4.0-1.25","2","High_HMMActual","null","","","","Images/WhiteBeadChoice.png","null"
"image-keyboard-response","97","324358","0.0-4.0-2.25","2","High_HMMActual","null","","","","Images/WhiteBeadChoiceCorrect.png","null"
"image-keyboard-response","98","325325","0.0-4.0-0.26","2","High_HMMActual","964.6450000000186","","","","Images/NewTrialWC.png","37"
"image-keyboard-response","99","325727","0.0-4.0-1.26","2","High_HMMActual","null","","","","Images/BlackBeadChoice.png","null"
"image-keyboard-response","100","326430","0.0-4.0-2.26","2","High_HMMActual","null","","","","Images/BlackBeadChoiceWrong.png","null"
"image-keyboard-response","101","327136","0.0-4.0-0.27","2","High_HMMActual","702.6250000053551","","","","Images/NewTrialWC.png","39"
"image-keyboard-response","102","327538","0.0-4.0-1.27","2","High_HMMActual","null","","","","Images/WhiteBeadChoice.png","null"
"image-keyboard-response","103","328242","0.0-4.0-2.27","2","High_HMMActual","null","","","","Images/WhiteBeadChoiceCorrect.png","null"
"image-keyboard-response","104","328862","0.0-4.0-0.28","2","High_HMMActual","618.3599999931175","","","","Images/NewTrialWC.png","39"
"image-keyboard-response","105","329264","0.0-4.0-1.28","2","High_HMMActual","null","","","","Images/WhiteBeadChoice.png","null"
"image-keyboard-response","106","329967","0.0-4.0-2.28","2","High_HMMActual","null","","","","Images/WhiteBeadChoiceWrong.png","null"
"image-keyboard-response","107","330952","0.0-4.0-0.29","2","High_HMMActual","983.2250000035856","","","","Images/NewTrialBC.png","37"
"image-keyboard-response","108","331355","0.0-4.0-1.29","2","High_HMMActual","null","","","","Images/BlackBeadChoice.png","null"
"image-keyboard-response","109","332058","0.0-4.0-2.29","2","High_HMMActual","null","","","","Images/BlackBeadChoiceWrong.png","null"
"image-keyboard-response","110","333208","0.0-4.0-0.30","2","High_HMMActual","1147.6700000057463","","","","Images/NewTrialWC.png","39"
"image-keyboard-response","111","333610","0.0-4.0-1.30","2","High_HMMActual","null","","","","Images/WhiteBeadChoice.png","null"
"image-keyboard-response","112","334312","0.0-4.0-2.30","2","High_HMMActual","null","","","","Images/WhiteBeadChoiceCorrect.png","null"
"image-keyboard-response","113","335630","0.0-4.0-0.31","2","High_HMMActual","1315.9900000027847","","","","Images/NewTrialWC.png","39"
"image-keyboard-response","114","336033","0.0-4.0-1.31","2","High_HMMActual","null","","","","Images/WhiteBeadChoice.png","null"
"image-keyboard-response","115","336736","0.0-4.0-2.31","2","High_HMMActual","null","","","","Images/WhiteBeadChoiceCorrect.png","null"
"image-keyboard-response","116","338210","0.0-4.0-0.32","2","High_HMMActual","1471.625000005588","","","","Images/NewTrialWC.png","39"
"image-keyboard-response","117","338611","0.0-4.0-1.32","2","High_HMMActual","null","","","","Images/WhiteBeadChoice.png","null"
"image-keyboard-response","118","339314","0.0-4.0-2.32","2","High_HMMActual","null","","","","Images/WhiteBeadChoiceWrong.png","null"
"image-keyboard-response","119","340901","0.0-4.0-0.33","2","High_HMMActual","1584.5550000085495","","","","Images/NewTrialBC.png","37"
"image-keyboard-response","120","341302","0.0-4.0-1.33","2","High_HMMActual","null","","","","Images/BlackBeadChoice.png","null"
"image-keyboard-response","121","342005","0.0-4.0-2.33","2","High_HMMActual","null","","","","Images/BlackBeadChoiceWrong.png","null"
"image-keyboard-response","122","342598","0.0-4.0-0.34","2","High_HMMActual","589.9850000278093","","","","Images/NewTrialWC.png","39"
"image-keyboard-response","123","343000","0.0-4.0-1.34","2","High_HMMActual","null","","","","Images/WhiteBeadChoice.png","null"
"image-keyboard-response","124","343703","0.0-4.0-2.34","2","High_HMMActual","null","","","","Images/WhiteBeadChoiceWrong.png","null"
"image-keyboard-response","125","344281","0.0-4.0-0.35","2","High_HMMActual","576.1400000192225","","","","Images/NewTrialBC.png","37"
"image-keyboard-response","126","344684","0.0-4.0-1.35","2","High_HMMActual","null","","","","Images/BlackBeadChoice.png","null"
"image-keyboard-response","127","345386","0.0-4.0-2.35","2","High_HMMActual","null","","","","Images/BlackBeadChoiceWrong.png","null"
"image-keyboard-response","128","345921","0.0-4.0-0.36","2","High_HMMActual","531.8850000039674","","","","Images/NewTrialWC.png","37"
"image-keyboard-response","129","346323","0.0-4.0-1.36","2","High_HMMActual","null","","","","Images/BlackBeadChoice.png","null"
"image-keyboard-response","130","347026","0.0-4.0-2.36","2","High_HMMActual","null","","","","Images/BlackBeadChoiceWrong.png","null"
"image-keyboard-response","131","347311","0.0-4.0-0.37","2","High_HMMActual","282.20499999588355","","","","Images/NewTrialWC.png","39"
"image-keyboard-response","132","347713","0.0-4.0-1.37","2","High_HMMActual","null","","","","Images/WhiteBeadChoice.png","null"
"image-keyboard-response","133","348416","0.0-4.0-2.37","2","High_HMMActual","null","","","","Images/WhiteBeadChoiceCorrect.png","null"
"image-keyboard-response","134","349193","0.0-4.0-0.38","2","High_HMMActual","775.179999996908","","","","Images/NewTrialWC.png","37"
"image-keyboard-response","135","349595","0.0-4.0-1.38","2","High_HMMActual","null","","","","Images/BlackBeadChoice.png","null"
"image-keyboard-response","136","350298","0.0-4.0-2.38","2","High_HMMActual","null","","","","Images/BlackBeadChoiceWrong.png","null"
"image-keyboard-response","137","351373","0.0-4.0-0.39","2","High_HMMActual","1072.8549999766983","","","","Images/NewTrialWC.png","37"
"image-keyboard-response","138","351775","0.0-4.0-1.39","2","High_HMMActual","null","","","","Images/BlackBeadChoice.png","null"
"image-keyboard-response","139","352477","0.0-4.0-2.39","2","High_HMMActual","null","","","","Images/BlackBeadChoiceCorrect.png","null"
"image-keyboard-response","140","353248","0.0-4.0-0.40","2","High_HMMActual","768.0500000133179","","","","Images/NewTrialBC.png","39"
"image-keyboard-response","141","353651","0.0-4.0-1.40","2","High_HMMActual","null","","","","Images/WhiteBeadChoice.png","null"
"image-keyboard-response","142","354354","0.0-4.0-2.40","2","High_HMMActual","null","","","","Images/WhiteBeadChoiceWrong.png","null"
"image-keyboard-response","143","355926","0.0-4.0-0.41","2","High_HMMActual","1570.1199999894015","","","","Images/NewTrialBC.png","37"
"image-keyboard-response","144","356328","0.0-4.0-1.41","2","High_HMMActual","null","","","","Images/BlackBeadChoice.png","null"
"image-keyboard-response","145","357032","0.0-4.0-2.41","2","High_HMMActual","null","","","","Images/BlackBeadChoiceWrong.png","null"
"image-keyboard-response","146","357422","0.0-4.0-0.42","2","High_HMMActual","388.5000000009313","","","","Images/NewTrialWC.png","39"
"image-keyboard-response","147","357825","0.0-4.0-1.42","2","High_HMMActual","null","","","","Images/WhiteBeadChoice.png","null"
"image-keyboard-response","148","358527","0.0-4.0-2.42","2","High_HMMActual","null","","","","Images/WhiteBeadChoiceWrong.png","null"
"image-keyboard-response","149","359117","0.0-4.0-0.43","2","High_HMMActual","588.3299999986775","","","","Images/NewTrialBC.png","37"
"image-keyboard-response","150","359520","0.0-4.0-1.43","2","High_HMMActual","null","","","","Images/BlackBeadChoice.png","null"
"image-keyboard-response","151","360222","0.0-4.0-2.43","2","High_HMMActual","null","","","","Images/BlackBeadChoiceWrong.png","null"
"image-keyboard-response","152","360799","0.0-4.0-0.44","2","High_HMMActual","574.2800000007264","","","","Images/NewTrialWC.png","39"
"image-keyboard-response","153","361201","0.0-4.0-1.44","2","High_HMMActual","null","","","","Images/WhiteBeadChoice.png","null"
"image-keyboard-response","154","361904","0.0-4.0-2.44","2","High_HMMActual","null","","","","Images/WhiteBeadChoiceWrong.png","null"
"image-keyboard-response","155","362433","0.0-4.0-0.45","2","High_HMMActual","526.1150000151247","","","","Images/NewTrialBC.png","37"
"image-keyboard-response","156","362836","0.0-4.0-1.45","2","High_HMMActual","null","","","","Images/BlackBeadChoice.png","null"
"image-keyboard-response","157","363538","0.0-4.0-2.45","2","High_HMMActual","null","","","","Images/BlackBeadChoiceWrong.png","null"
"image-keyboard-response","158","363975","0.0-4.0-0.46","2","High_HMMActual","434.47000000742264","","","","Images/NewTrialWC.png","39"
"image-keyboard-response","159","364378","0.0-4.0-1.46","2","High_HMMActual","null","","","","Images/WhiteBeadChoice.png","null"
"image-keyboard-response","160","365080","0.0-4.0-2.46","2","High_HMMActual","null","","","","Images/WhiteBeadChoiceWrong.png","null"
"image-keyboard-response","161","365568","0.0-4.0-0.47","2","High_HMMActual","481.339999998454","","","","Images/NewTrialBC.png","39"
"image-keyboard-response","162","365970","0.0-4.0-1.47","2","High_HMMActual","null","","","","Images/WhiteBeadChoice.png","null"
"image-keyboard-response","163","366673","0.0-4.0-2.47","2","High_HMMActual","null","","","","Images/WhiteBeadChoiceCorrect.png","null"
"image-keyboard-response","164","367057","0.0-4.0-0.48","2","High_HMMActual","381.2000000034459","","","","Images/NewTrialWC.png","39"
"image-keyboard-response","165","367459","0.0-4.0-1.48","2","High_HMMActual","null","","","","Images/WhiteBeadChoice.png","null"
"image-keyboard-response","166","368161","0.0-4.0-2.48","2","High_HMMActual","null","","","","Images/WhiteBeadChoiceWrong.png","null"
"image-keyboard-response","167","369631","0.0-4.0-0.49","2","High_HMMActual","1464.6450000000186","","","","Images/NewTrialBC.png","37"
"image-keyboard-response","168","370033","0.0-4.0-1.49","2","High_HMMActual","null","","","","Images/BlackBeadChoice.png","null"
"image-keyboard-response","169","370736","0.0-4.0-2.49","2","High_HMMActual","null","","","","Images/BlackBeadChoiceWrong.png","null"
"image-keyboard-response","170","371311","0.0-4.0-0.50","2","High_HMMActual","573.56499999878","","","","Images/NewTrialWC.png","39"
"image-keyboard-response","171","371713","0.0-4.0-1.50","2","High_HMMActual","null","","","","Images/WhiteBeadChoice.png","null"
"image-keyboard-response","172","372415","0.0-4.0-2.50","2","High_HMMActual","null","","","","Images/WhiteBeadChoiceWrong.png","null"
"image-keyboard-response","173","372998","0.0-4.0-0.51","2","High_HMMActual","580.5299999774434","","","","Images/NewTrialBC.png","37"
"image-keyboard-response","174","373400","0.0-4.0-1.51","2","High_HMMActual","null","","","","Images/BlackBeadChoice.png","null"
"image-keyboard-response","175","374102","0.0-4.0-2.51","2","High_HMMActual","null","","","","Images/BlackBeadChoiceCorrect.png","null"
"image-keyboard-response","176","375218","0.0-4.0-0.52","2","High_HMMActual","1113.1250000034925","","","","Images/NewTrialBC.png","37"
"image-keyboard-response","177","375620","0.0-4.0-1.52","2","High_HMMActual","null","","","","Images/BlackBeadChoice.png","null"
"image-keyboard-response","178","376323","0.0-4.0-2.52","2","High_HMMActual","null","","","","Images/BlackBeadChoiceCorrect.png","null"
"image-keyboard-response","179","376872","0.0-4.0-0.53","2","High_HMMActual","547.4150000081863","","","","Images/NewTrialBC.png","39"
"image-keyboard-response","180","377276","0.0-4.0-1.53","2","High_HMMActual","null","","","","Images/WhiteBeadChoice.png","null"
"image-keyboard-response","181","377978","0.0-4.0-2.53","2","High_HMMActual","null","","","","Images/WhiteBeadChoiceCorrect.png","null"
"image-keyboard-response","182","378312","0.0-4.0-0.54","2","High_HMMActual","331.22500000172295","","","","Images/NewTrialWC.png","39"
"image-keyboard-response","183","378715","0.0-4.0-1.54","2","High_HMMActual","null","","","","Images/WhiteBeadChoice.png","null"
"image-keyboard-response","184","379419","0.0-4.0-2.54","2","High_HMMActual","null","","","","Images/WhiteBeadChoiceWrong.png","null"
"image-keyboard-response","185","379899","0.0-4.0-0.55","2","High_HMMActual","478.1550000188872","","","","Images/NewTrialBC.png","37"
"image-keyboard-response","186","380301","0.0-4.0-1.55","2","High_HMMActual","null","","","","Images/BlackBeadChoice.png","null"
"image-keyboard-response","187","381003","0.0-4.0-2.55","2","High_HMMActual","null","","","","Images/BlackBeadChoiceWrong.png","null"
"image-keyboard-response","188","381021","0.0-4.0-0.56","2","High_HMMActual","15.314999996917322","","","","Images/NewTrialWC.png","39"
"image-keyboard-response","189","381422","0.0-4.0-1.56","2","High_HMMActual","null","","","","Images/WhiteBeadChoice.png","null"
"image-keyboard-response","190","382125","0.0-4.0-2.56","2","High_HMMActual","null","","","","Images/WhiteBeadChoiceWrong.png","null"
"image-keyboard-response","191","382871","0.0-4.0-0.57","2","High_HMMActual","742.0550000097137","","","","Images/NewTrialBC.png","37"
"image-keyboard-response","192","383274","0.0-4.0-1.57","2","High_HMMActual","null","","","","Images/BlackBeadChoice.png","null"
"image-keyboard-response","193","383977","0.0-4.0-2.57","2","High_HMMActual","null","","","","Images/BlackBeadChoiceCorrect.png","null"
"image-keyboard-response","194","384641","0.0-4.0-0.58","2","High_HMMActual","661.5750000055414","","","","Images/NewTrialBC.png","39"
"image-keyboard-response","195","385043","0.0-4.0-1.58","2","High_HMMActual","null","","","","Images/WhiteBeadChoice.png","null"
"image-keyboard-response","196","385746","0.0-4.0-2.58","2","High_HMMActual","null","","","","Images/WhiteBeadChoiceWrong.png","null"
"image-keyboard-response","197","387187","0.0-4.0-0.59","2","High_HMMActual","1439.010000001872","","","","Images/NewTrialBC.png","37"
"image-keyboard-response","198","387589","0.0-4.0-1.59","2","High_HMMActual","null","","","","Images/BlackBeadChoice.png","null"
"image-keyboard-response","199","388292","0.0-4.0-2.59","2","High_HMMActual","null","","","","Images/BlackBeadChoiceWrong.png","null"
"image-keyboard-response","200","389614","0.0-4.0-0.60","2","High_HMMActual","1319.969999982277","","","","Images/NewTrialWC.png","39"
"image-keyboard-response","201","390017","0.0-4.0-1.60","2","High_HMMActual","null","","","","Images/WhiteBeadChoice.png","null"
"image-keyboard-response","202","390720","0.0-4.0-2.60","2","High_HMMActual","null","","","","Images/WhiteBeadChoiceWrong.png","null"
"image-keyboard-response","203","391303","0.0-4.0-0.61","2","High_HMMActual","581.225000001723","","","","Images/NewTrialBC.png","37"
"image-keyboard-response","204","391706","0.0-4.0-1.61","2","High_HMMActual","null","","","","Images/BlackBeadChoice.png","null"
"image-keyboard-response","205","392409","0.0-4.0-2.61","2","High_HMMActual","null","","","","Images/BlackBeadChoiceCorrect.png","null"
"image-keyboard-response","206","394215","0.0-4.0-0.62","2","High_HMMActual","1804.2750000022352","","","","Images/NewTrialBC.png","37"
"image-keyboard-response","207","394617","0.0-4.0-1.62","2","High_HMMActual","null","","","","Images/BlackBeadChoice.png","null"
"image-keyboard-response","208","395320","0.0-4.0-2.62","2","High_HMMActual","null","","","","Images/BlackBeadChoiceCorrect.png","null"
"image-keyboard-response","209","395768","0.0-4.0-0.63","2","High_HMMActual","446.2150000035763","","","","Images/NewTrialBC.png","39"
"image-keyboard-response","210","396172","0.0-4.0-1.63","2","High_HMMActual","null","","","","Images/WhiteBeadChoice.png","null"
"image-keyboard-response","211","396875","0.0-4.0-2.63","2","High_HMMActual","null","","","","Images/WhiteBeadChoiceCorrect.png","null"
"image-keyboard-response","212","397926","0.0-4.0-0.64","2","High_HMMActual","1049.7350000077859","","","","Images/NewTrialWC.png","37"
"image-keyboard-response","213","398329","0.0-4.0-1.64","2","High_HMMActual","null","","","","Images/BlackBeadChoice.png","null"
"image-keyboard-response","214","399031","0.0-4.0-2.64","2","High_HMMActual","null","","","","Images/BlackBeadChoiceCorrect.png","null"
"image-keyboard-response","215","400958","0.0-4.0-0.65","2","High_HMMActual","1924.910000001546","","","","Images/NewTrialBC.png","37"
"image-keyboard-response","216","401360","0.0-4.0-1.65","2","High_HMMActual","null","","","","Images/BlackBeadChoice.png","null"
"image-keyboard-response","217","402063","0.0-4.0-2.65","2","High_HMMActual","null","","","","Images/BlackBeadChoiceWrong.png","null"
"image-keyboard-response","218","403157","0.0-4.0-0.66","2","High_HMMActual","1091.5099999983795","","","","Images/NewTrialWC.png","37"
"image-keyboard-response","219","403558","0.0-4.0-1.66","2","High_HMMActual","null","","","","Images/BlackBeadChoice.png","null"
"image-keyboard-response","220","404261","0.0-4.0-2.66","2","High_HMMActual","null","","","","Images/BlackBeadChoiceCorrect.png","null"
"image-keyboard-response","221","404864","0.0-4.0-0.67","2","High_HMMActual","600.4200000024866","","","","Images/NewTrialBC.png","39"
"image-keyboard-response","222","405266","0.0-4.0-1.67","2","High_HMMActual","null","","","","Images/WhiteBeadChoice.png","null"
"image-keyboard-response","223","405968","0.0-4.0-2.67","2","High_HMMActual","null","","","","Images/WhiteBeadChoiceCorrect.png","null"
"image-keyboard-response","224","407337","0.0-4.0-0.68","2","High_HMMActual","1366.729999979725","","","","Images/NewTrialWC.png","39"
"image-keyboard-response","225","407740","0.0-4.0-1.68","2","High_HMMActual","null","","","","Images/WhiteBeadChoice.png","null"
"image-keyboard-response","226","408442","0.0-4.0-2.68","2","High_HMMActual","null","","","","Images/WhiteBeadChoiceWrong.png","null"
"image-keyboard-response","227","408898","0.0-4.0-0.69","2","High_HMMActual","453.28000001609325","","","","Images/NewTrialBC.png","37"
"image-keyboard-response","228","409301","0.0-4.0-1.69","2","High_HMMActual","null","","","","Images/BlackBeadChoice.png","null"
"image-keyboard-response","229","410003","0.0-4.0-2.69","2","High_HMMActual","null","","","","Images/BlackBeadChoiceWrong.png","null"
"image-keyboard-response","230","412195","0.0-4.0-0.70","2","High_HMMActual","2189.6399999968708","","","","Images/NewTrialWC.png","37"
"image-keyboard-response","231","412597","0.0-4.0-1.70","2","High_HMMActual","null","","","","Images/BlackBeadChoice.png","null"
"image-keyboard-response","232","413301","0.0-4.0-2.70","2","High_HMMActual","null","","","","Images/BlackBeadChoiceCorrect.png","null"
"image-keyboard-response","233","414877","0.0-4.0-0.71","2","High_HMMActual","1574.285000009695","","","","Images/NewTrialBC.png","39"
"image-keyboard-response","234","415280","0.0-4.0-1.71","2","High_HMMActual","null","","","","Images/WhiteBeadChoice.png","null"
"image-keyboard-response","235","415984","0.0-4.0-2.71","2","High_HMMActual","null","","","","Images/WhiteBeadChoiceCorrect.png","null"
"image-keyboard-response","236","417426","0.0-4.0-0.72","2","High_HMMActual","1439.2250000091735","","","","Images/NewTrialWC.png","37"
"image-keyboard-response","237","417829","0.0-4.0-1.72","2","High_HMMActual","null","","","","Images/BlackBeadChoice.png","null"
"image-keyboard-response","238","418531","0.0-4.0-2.72","2","High_HMMActual","null","","","","Images/BlackBeadChoiceCorrect.png","null"
"image-keyboard-response","239","419393","0.0-4.0-0.73","2","High_HMMActual","859.1050000104588","","","","Images/NewTrialBC.png","39"
"image-keyboard-response","240","419796","0.0-4.0-1.73","2","High_HMMActual","null","","","","Images/WhiteBeadChoice.png","null"
"image-keyboard-response","241","420498","0.0-4.0-2.73","2","High_HMMActual","null","","","","Images/WhiteBeadChoiceCorrect.png","null"
"image-keyboard-response","242","421544","0.0-4.0-0.74","2","High_HMMActual","1043.3299999858718","","","","Images/NewTrialWC.png","37"
"image-keyboard-response","243","421948","0.0-4.0-1.74","2","High_HMMActual","null","","","","Images/BlackBeadChoice.png","null"
"image-keyboard-response","244","422650","0.0-4.0-2.74","2","High_HMMActual","null","","","","Images/BlackBeadChoiceCorrect.png","null"
"image-keyboard-response","245","423713","0.0-4.0-0.75","2","High_HMMActual","1060.3350000164937","","","","Images/NewTrialBC.png","39"
"image-keyboard-response","246","424115","0.0-4.0-1.75","2","High_HMMActual","null","","","","Images/WhiteBeadChoice.png","null"
"image-keyboard-response","247","424818","0.0-4.0-2.75","2","High_HMMActual","null","","","","Images/WhiteBeadChoiceCorrect.png","null"
"image-keyboard-response","248","426065","0.0-4.0-0.76","2","High_HMMActual","1245.1149999978952","","","","Images/NewTrialWC.png","37"
"image-keyboard-response","249","426467","0.0-4.0-1.76","2","High_HMMActual","null","","","","Images/BlackBeadChoice.png","null"
"image-keyboard-response","250","427170","0.0-4.0-2.76","2","High_HMMActual","null","","","","Images/BlackBeadChoiceWrong.png","null"
"image-keyboard-response","251","429038","0.0-4.0-0.77","2","High_HMMActual","1866.039999993518","","","","Images/NewTrialWC.png","37"
"image-keyboard-response","252","429440","0.0-4.0-1.77","2","High_HMMActual","null","","","","Images/BlackBeadChoice.png","null"
"image-keyboard-response","253","430143","0.0-4.0-2.77","2","High_HMMActual","null","","","","Images/BlackBeadChoiceWrong.png","null"
"image-keyboard-response","254","430633","0.0-4.0-0.78","2","High_HMMActual","488.5749999957625","","","","Images/NewTrialWC.png","39"
"image-keyboard-response","255","431035","0.0-4.0-1.78","2","High_HMMActual","null","","","","Images/WhiteBeadChoice.png","null"
"image-keyboard-response","256","431737","0.0-4.0-2.78","2","High_HMMActual","null","","","","Images/WhiteBeadChoiceWrong.png","null"
"image-keyboard-response","257","432221","0.0-4.0-0.79","2","High_HMMActual","477.8799999912735","","","","Images/NewTrialBC.png","37"
"image-keyboard-response","258","432625","0.0-4.0-1.79","2","High_HMMActual","null","","","","Images/BlackBeadChoice.png","null"
"image-keyboard-response","259","433329","0.0-4.0-2.79","2","High_HMMActual","null","","","","Images/BlackBeadChoiceWrong.png","null"
"image-keyboard-response","260","433950","0.0-4.0-0.80","2","High_HMMActual","620.0149999931455","","","","Images/NewTrialWC.png","39"
"image-keyboard-response","261","434353","0.0-4.0-1.80","2","High_HMMActual","null","","","","Images/WhiteBeadChoice.png","null"
"image-keyboard-response","262","435055","0.0-4.0-2.80","2","High_HMMActual","null","","","","Images/WhiteBeadChoiceCorrect.png","null"
"image-keyboard-response","263","435909","0.0-4.0-0.81","2","High_HMMActual","852.4449999968056","","","","Images/NewTrialWC.png","37"
"image-keyboard-response","264","436311","0.0-4.0-1.81","2","High_HMMActual","null","","","","Images/BlackBeadChoice.png","null"
"image-keyboard-response","265","437014","0.0-4.0-2.81","2","High_HMMActual","null","","","","Images/BlackBeadChoiceWrong.png","null"
"image-keyboard-response","266","437616","0.0-4.0-0.82","2","High_HMMActual","597.4850000056904","","","","Images/NewTrialWC.png","37"
"image-keyboard-response","267","438019","0.0-4.0-1.82","2","High_HMMActual","null","","","","Images/BlackBeadChoice.png","null"
"image-keyboard-response","268","438722","0.0-4.0-2.82","2","High_HMMActual","null","","","","Images/BlackBeadChoiceCorrect.png","null"
"image-keyboard-response","269","439589","0.0-4.0-0.83","2","High_HMMActual","865.2250000159256","","","","Images/NewTrialBC.png","39"
"image-keyboard-response","270","439992","0.0-4.0-1.83","2","High_HMMActual","null","","","","Images/WhiteBeadChoice.png","null"
"image-keyboard-response","271","440695","0.0-4.0-2.83","2","High_HMMActual","null","","","","Images/WhiteBeadChoiceCorrect.png","null"
"image-keyboard-response","272","441827","0.0-4.0-0.84","2","High_HMMActual","1128.9299999771174","","","","Images/NewTrialWC.png","37"
"image-keyboard-response","273","442231","0.0-4.0-1.84","2","High_HMMActual","null","","","","Images/BlackBeadChoice.png","null"
"image-keyboard-response","274","442933","0.0-4.0-2.84","2","High_HMMActual","null","","","","Images/BlackBeadChoiceCorrect.png","null"
"image-keyboard-response","275","444259","0.0-4.0-0.85","2","High_HMMActual","1323.599999974249","","","","Images/NewTrialBC.png","39"
"image-keyboard-response","276","444662","0.0-4.0-1.85","2","High_HMMActual","null","","","","Images/WhiteBeadChoice.png","null"
"image-keyboard-response","277","445365","0.0-4.0-2.85","2","High_HMMActual","null","","","","Images/WhiteBeadChoiceCorrect.png","null"
"image-keyboard-response","278","446178","0.0-4.0-0.86","2","High_HMMActual","811.2649999966379","","","","Images/NewTrialWC.png","39"
"image-keyboard-response","279","446580","0.0-4.0-1.86","2","High_HMMActual","null","","","","Images/WhiteBeadChoice.png","null"
"image-keyboard-response","280","447283","0.0-4.0-2.86","2","High_HMMActual","null","","","","Images/WhiteBeadChoiceWrong.png","null"
"image-keyboard-response","281","448806","0.0-4.0-0.87","2","High_HMMActual","1520.9699999832083","","","","Images/NewTrialBC.png","39"
"image-keyboard-response","282","449209","0.0-4.0-1.87","2","High_HMMActual","null","","","","Images/WhiteBeadChoice.png","null"
"image-keyboard-response","283","449912","0.0-4.0-2.87","2","High_HMMActual","null","","","","Images/WhiteBeadChoiceWrong.png","null"
"image-keyboard-response","284","450792","0.0-4.0-0.88","2","High_HMMActual","877.955000003567","","","","Images/NewTrialBC.png","39"
"image-keyboard-response","285","451195","0.0-4.0-1.88","2","High_HMMActual","null","","","","Images/WhiteBeadChoice.png","null"
"image-keyboard-response","286","451898","0.0-4.0-2.88","2","High_HMMActual","null","","","","Images/WhiteBeadChoiceWrong.png","null"
"image-keyboard-response","287","452206","0.0-4.0-0.89","2","High_HMMActual","306.0249999980442","","","","Images/NewTrialBC.png","37"
"image-keyboard-response","288","452608","0.0-4.0-1.89","2","High_HMMActual","null","","","","Images/BlackBeadChoice.png","null"
"image-keyboard-response","289","453311","0.0-4.0-2.89","2","High_HMMActual","null","","","","Images/BlackBeadChoiceWrong.png","null"
"image-keyboard-response","290","453719","0.0-4.0-0.90","2","High_HMMActual","406.25999998883344","","","","Images/NewTrialWC.png","39"
"image-keyboard-response","291","454122","0.0-4.0-1.90","2","High_HMMActual","null","","","","Images/WhiteBeadChoice.png","null"
"image-keyboard-response","292","454826","0.0-4.0-2.90","2","High_HMMActual","null","","","","Images/WhiteBeadChoiceCorrect.png","null"
"image-keyboard-response","293","455787","0.0-4.0-0.91","2","High_HMMActual","959.2450000054669","","","","Images/NewTrialWC.png","37"
"image-keyboard-response","294","456190","0.0-4.0-1.91","2","High_HMMActual","null","","","","Images/BlackBeadChoice.png","null"
"image-keyboard-response","295","456892","0.0-4.0-2.91","2","High_HMMActual","null","","","","Images/BlackBeadChoiceWrong.png","null"
"image-keyboard-response","296","457716","0.0-4.0-0.92","2","High_HMMActual","822.5200000160839","","","","Images/NewTrialWC.png","37"
"image-keyboard-response","297","458119","0.0-4.0-1.92","2","High_HMMActual","null","","","","Images/BlackBeadChoice.png","null"
"image-keyboard-response","298","458821","0.0-4.0-2.92","2","High_HMMActual","null","","","","Images/BlackBeadChoiceCorrect.png","null"
"image-keyboard-response","299","460324","0.0-4.0-0.93","2","High_HMMActual","1500.5599999858532","","","","Images/NewTrialBC.png","39"
"image-keyboard-response","300","460726","0.0-4.0-1.93","2","High_HMMActual","null","","","","Images/WhiteBeadChoice.png","null"
"image-keyboard-response","301","461430","0.0-4.0-2.93","2","High_HMMActual","null","","","","Images/WhiteBeadChoiceCorrect.png","null"
"image-keyboard-response","302","462356","0.0-4.0-0.94","2","High_HMMActual","924.0050000080373","","","","Images/NewTrialWC.png","39"
"image-keyboard-response","303","462759","0.0-4.0-1.94","2","High_HMMActual","null","","","","Images/WhiteBeadChoice.png","null"
"image-keyboard-response","304","463462","0.0-4.0-2.94","2","High_HMMActual","null","","","","Images/WhiteBeadChoiceCorrect.png","null"
"image-keyboard-response","305","464241","0.0-4.0-0.95","2","High_HMMActual","776.7300000123214","","","","Images/NewTrialWC.png","37"
"image-keyboard-response","306","464643","0.0-4.0-1.95","2","High_HMMActual","null","","","","Images/BlackBeadChoice.png","null"
"image-keyboard-response","307","465345","0.0-4.0-2.95","2","High_HMMActual","null","","","","Images/BlackBeadChoiceWrong.png","null"
"image-keyboard-response","308","465631","0.0-4.0-0.96","2","High_HMMActual","283.7100000178907","","","","Images/NewTrialWC.png","37"
"image-keyboard-response","309","466036","0.0-4.0-1.96","2","High_HMMActual","null","","","","Images/BlackBeadChoice.png","null"
"image-keyboard-response","310","466739","0.0-4.0-2.96","2","High_HMMActual","null","","","","Images/BlackBeadChoiceCorrect.png","null"
"image-keyboard-response","311","467216","0.0-4.0-0.97","2","High_HMMActual","474.3350000062492","","","","Images/NewTrialBC.png","37"
"image-keyboard-response","312","467618","0.0-4.0-1.97","2","High_HMMActual","null","","","","Images/BlackBeadChoice.png","null"
"image-keyboard-response","313","468321","0.0-4.0-2.97","2","High_HMMActual","null","","","","Images/BlackBeadChoiceWrong.png","null"
"image-keyboard-response","314","468845","0.0-4.0-0.98","2","High_HMMActual","521.9300000171643","","","","Images/NewTrialWC.png","39"
"image-keyboard-response","315","469248","0.0-4.0-1.98","2","High_HMMActual","null","","","","Images/WhiteBeadChoice.png","null"
"image-keyboard-response","316","469950","0.0-4.0-2.98","2","High_HMMActual","null","","","","Images/WhiteBeadChoiceCorrect.png","null"
"image-keyboard-response","317","470467","0.0-4.0-0.99","2","High_HMMActual","515.1950000145007","","","","Images/NewTrialWC.png","39"
"image-keyboard-response","318","470870","0.0-4.0-1.99","2","High_HMMActual","null","","","","Images/WhiteBeadChoice.png","null"
"image-keyboard-response","319","471573","0.0-4.0-2.99","2","High_HMMActual","null","","","","Images/WhiteBeadChoiceWrong.png","null"
"image-keyboard-response","320","473178","0.0-4.0-0.100","2","High_HMMActual","1602.8149999910966","","","","Images/NewTrialBC.png","37"
"image-keyboard-response","321","473581","0.0-4.0-1.100","2","High_HMMActual","null","","","","Images/BlackBeadChoice.png","null"
"image-keyboard-response","322","474283","0.0-4.0-2.100","2","High_HMMActual","null","","","","Images/BlackBeadChoiceCorrect.png","null"
"image-keyboard-response","323","475059","0.0-4.0-0.101","2","High_HMMActual","773.3899999875575","","","","Images/NewTrialBC.png","37"
"image-keyboard-response","324","475462","0.0-4.0-1.101","2","High_HMMActual","null","","","","Images/BlackBeadChoice.png","null"
"image-keyboard-response","325","476164","0.0-4.0-2.101","2","High_HMMActual","null","","","","Images/BlackBeadChoiceCorrect.png","null"
"image-keyboard-response","326","476834","0.0-4.0-0.102","2","High_HMMActual","667.4099999945611","","","","Images/NewTrialBC.png","37"
"image-keyboard-response","327","477237","0.0-4.0-1.102","2","High_HMMActual","null","","","","Images/BlackBeadChoice.png","null"
"image-keyboard-response","328","477940","0.0-4.0-2.102","2","High_HMMActual","null","","","","Images/BlackBeadChoiceCorrect.png","null"
"image-keyboard-response","329","478544","0.0-4.0-0.103","2","High_HMMActual","602.3200000054203","","","","Images/NewTrialBC.png","39"
"image-keyboard-response","330","478947","0.0-4.0-1.103","2","High_HMMActual","null","","","","Images/WhiteBeadChoice.png","null"
"image-keyboard-response","331","479650","0.0-4.0-2.103","2","High_HMMActual","null","","","","Images/WhiteBeadChoiceCorrect.png","null"
"image-keyboard-response","332","480223","0.0-4.0-0.104","2","High_HMMActual","570.544999995036","","","","Images/NewTrialWC.png","37"
"image-keyboard-response","333","480625","0.0-4.0-1.104","2","High_HMMActual","null","","","","Images/BlackBeadChoice.png","null"
"image-keyboard-response","334","481328","0.0-4.0-2.104","2","High_HMMActual","null","","","","Images/BlackBeadChoiceCorrect.png","null"
"image-keyboard-response","335","482351","0.0-4.0-0.105","2","High_HMMActual","1020.7349999982398","","","","Images/NewTrialBC.png","39"
"image-keyboard-response","336","482754","0.0-4.0-1.105","2","High_HMMActual","null","","","","Images/WhiteBeadChoice.png","null"
"image-keyboard-response","337","483457","0.0-4.0-2.105","2","High_HMMActual","null","","","","Images/WhiteBeadChoiceCorrect.png","null"
"image-keyboard-response","338","484053","0.0-4.0-0.106","2","High_HMMActual","593.6749999818858","","","","Images/NewTrialWC.png","39"
"image-keyboard-response","339","484455","0.0-4.0-1.106","2","High_HMMActual","null","","","","Images/WhiteBeadChoice.png","null"
"image-keyboard-response","340","485157","0.0-4.0-2.106","2","High_HMMActual","null","","","","Images/WhiteBeadChoiceWrong.png","null"
"image-keyboard-response","341","486053","0.0-4.0-0.107","2","High_HMMActual","894.1150000027847","","","","Images/NewTrialBC.png","39"
"image-keyboard-response","342","486457","0.0-4.0-1.107","2","High_HMMActual","null","","","","Images/WhiteBeadChoice.png","null"
"image-keyboard-response","343","487161","0.0-4.0-2.107","2","High_HMMActual","null","","","","Images/WhiteBeadChoiceCorrect.png","null"
"image-keyboard-response","344","487595","0.0-4.0-0.108","2","High_HMMActual","432.2049999900628","","","","Images/NewTrialWC.png","37"
"image-keyboard-response","345","487997","0.0-4.0-1.108","2","High_HMMActual","null","","","","Images/BlackBeadChoice.png","null"
"image-keyboard-response","346","488701","0.0-4.0-2.108","2","High_HMMActual","null","","","","Images/BlackBeadChoiceCorrect.png","null"
"image-keyboard-response","347","489344","0.0-4.0-0.109","2","High_HMMActual","639.8449999978766","","","","Images/NewTrialBC.png","37"
"image-keyboard-response","348","489746","0.0-4.0-1.109","2","High_HMMActual","null","","","","Images/BlackBeadChoice.png","null"
"image-keyboard-response","349","490449","0.0-4.0-2.109","2","High_HMMActual","null","","","","Images/BlackBeadChoiceWrong.png","null"
"image-keyboard-response","350","491805","0.0-4.0-0.110","2","High_HMMActual","1353.9800000144169","","","","Images/NewTrialWC.png","37"
"image-keyboard-response","351","492209","0.0-4.0-1.110","2","High_HMMActual","null","","","","Images/BlackBeadChoice.png","null"
"image-keyboard-response","352","492912","0.0-4.0-2.110","2","High_HMMActual","null","","","","Images/BlackBeadChoiceWrong.png","null"
"image-keyboard-response","353","493313","0.0-4.0-0.111","2","High_HMMActual","398.6999999906402","","","","Images/NewTrialWC.png","39"
"image-keyboard-response","354","493715","0.0-4.0-1.111","2","High_HMMActual","null","","","","Images/WhiteBeadChoice.png","null"
"image-keyboard-response","355","494418","0.0-4.0-2.111","2","High_HMMActual","null","","","","Images/WhiteBeadChoiceCorrect.png","null"
"image-keyboard-response","356","494864","0.0-4.0-0.112","2","High_HMMActual","444.37500002095476","","","","Images/NewTrialWC.png","37"
"image-keyboard-response","357","495267","0.0-4.0-1.112","2","High_HMMActual","null","","","","Images/BlackBeadChoice.png","null"
"image-keyboard-response","358","495969","0.0-4.0-2.112","2","High_HMMActual","null","","","","Images/BlackBeadChoiceWrong.png","null"
"image-keyboard-response","359","496588","0.0-4.0-0.113","2","High_HMMActual","616.4250000147149","","","","Images/NewTrialWC.png","37"
"image-keyboard-response","360","496990","0.0-4.0-1.113","2","High_HMMActual","null","","","","Images/BlackBeadChoice.png","null"
"image-keyboard-response","361","497692","0.0-4.0-2.113","2","High_HMMActual","null","","","","Images/BlackBeadChoiceWrong.png","null"
"image-keyboard-response","362","498310","0.0-4.0-0.114","2","High_HMMActual","616.119999991497","","","","Images/NewTrialWC.png","39"
"image-keyboard-response","363","498713","0.0-4.0-1.114","2","High_HMMActual","null","","","","Images/WhiteBeadChoice.png","null"
"image-keyboard-response","364","499415","0.0-4.0-2.114","2","High_HMMActual","null","","","","Images/WhiteBeadChoiceCorrect.png","null"
"image-keyboard-response","365","500047","0.0-4.0-0.115","2","High_HMMActual","629.670000023907","","","","Images/NewTrialWC.png","39"
"image-keyboard-response","366","500450","0.0-4.0-1.115","2","High_HMMActual","null","","","","Images/WhiteBeadChoice.png","null"
"image-keyboard-response","367","501153","0.0-4.0-2.115","2","High_HMMActual","null","","","","Images/WhiteBeadChoiceCorrect.png","null"
"image-keyboard-response","368","502385","0.0-4.0-0.116","2","High_HMMActual","1229.1049999766983","","","","Images/NewTrialWC.png","37"
"image-keyboard-response","369","502787","0.0-4.0-1.116","2","High_HMMActual","null","","","","Images/BlackBeadChoice.png","null"
"image-keyboard-response","370","503490","0.0-4.0-2.116","2","High_HMMActual","null","","","","Images/BlackBeadChoiceCorrect.png","null"
"image-keyboard-response","371","504085","0.0-4.0-0.117","2","High_HMMActual","591.7200000258163","","","","Images/NewTrialBC.png","37"
"image-keyboard-response","372","504488","0.0-4.0-1.117","2","High_HMMActual","null","","","","Images/BlackBeadChoice.png","null"
"image-keyboard-response","373","505191","0.0-4.0-2.117","2","High_HMMActual","null","","","","Images/BlackBeadChoiceCorrect.png","null"
"image-keyboard-response","374","505763","0.0-4.0-0.118","2","High_HMMActual","569.8299999930896","","","","Images/NewTrialBC.png","37"
"image-keyboard-response","375","506165","0.0-4.0-1.118","2","High_HMMActual","null","","","","Images/BlackBeadChoice.png","null"
"image-keyboard-response","376","506868","0.0-4.0-2.118","2","High_HMMActual","null","","","","Images/BlackBeadChoiceWrong.png","null"
"image-keyboard-response","377","507427","0.0-4.0-0.119","2","High_HMMActual","556.8700000003446","","","","Images/NewTrialWC.png","39"
"image-keyboard-response","378","507829","0.0-4.0-1.119","2","High_HMMActual","null","","","","Images/WhiteBeadChoice.png","null"
"image-keyboard-response","379","508533","0.0-4.0-2.119","2","High_HMMActual","null","","","","Images/WhiteBeadChoiceCorrect.png","null"
"image-keyboard-response","380","509057","0.0-4.0-0.120","2","High_HMMActual","520.9050000121351","","","","Images/NewTrialWC.png","39"
"image-keyboard-response","381","509460","0.0-4.0-1.120","2","High_HMMActual","null","","","","Images/WhiteBeadChoice.png","null"
"image-keyboard-response","382","510162","0.0-4.0-2.120","2","High_HMMActual","null","","","","Images/WhiteBeadChoiceCorrect.png","null"
"image-keyboard-response","383","510609","0.0-4.0-0.121","2","High_HMMActual","444.39999997848645","","","","Images/NewTrialWC.png","39"
"image-keyboard-response","384","511011","0.0-4.0-1.121","2","High_HMMActual","null","","","","Images/WhiteBeadChoice.png","null"
"image-keyboard-response","385","511714","0.0-4.0-2.121","2","High_HMMActual","null","","","","Images/WhiteBeadChoiceCorrect.png","null"
"image-keyboard-response","386","512128","0.0-4.0-0.122","2","High_HMMActual","411.3200000138022","","","","Images/NewTrialWC.png","39"
"image-keyboard-response","387","512530","0.0-4.0-1.122","2","High_HMMActual","null","","","","Images/WhiteBeadChoice.png","null"
"image-keyboard-response","388","513232","0.0-4.0-2.122","2","High_HMMActual","null","","","","Images/WhiteBeadChoiceWrong.png","null"
"image-keyboard-response","389","514744","0.0-4.0-0.123","2","High_HMMActual","1509.5350000192411","","","","Images/NewTrialBC.png","37"
"image-keyboard-response","390","515147","0.0-4.0-1.123","2","High_HMMActual","null","","","","Images/BlackBeadChoice.png","null"
"image-keyboard-response","391","515850","0.0-4.0-2.123","2","High_HMMActual","null","","","","Images/BlackBeadChoiceWrong.png","null"
"image-keyboard-response","392","516881","0.0-4.0-0.124","2","High_HMMActual","1028.0950000160374","","","","Images/NewTrialWC.png","39"
"image-keyboard-response","393","517284","0.0-4.0-1.124","2","High_HMMActual","null","","","","Images/WhiteBeadChoice.png","null"
"image-keyboard-response","394","517986","0.0-4.0-2.124","2","High_HMMActual","null","","","","Images/WhiteBeadChoiceWrong.png","null"
"image-keyboard-response","395","519129","0.0-4.0-0.125","2","High_HMMActual","1140.6950000091456","","","","Images/NewTrialBC.png","39"
"image-keyboard-response","396","519531","0.0-4.0-1.125","2","High_HMMActual","null","","","","Images/WhiteBeadChoice.png","null"
"image-keyboard-response","397","520234","0.0-4.0-2.125","2","High_HMMActual","null","","","","Images/WhiteBeadChoiceCorrect.png","null"
"image-keyboard-response","398","520893","0.0-4.0-0.126","2","High_HMMActual","655.7749999919906","","","","Images/NewTrialWC.png","39"
"image-keyboard-response","399","521296","0.0-4.0-1.126","2","High_HMMActual","null","","","","Images/WhiteBeadChoice.png","null"
"image-keyboard-response","400","521998","0.0-4.0-2.126","2","High_HMMActual","null","","","","Images/WhiteBeadChoiceWrong.png","null"
"image-keyboard-response","401","522341","0.0-4.0-0.127","2","High_HMMActual","340.81500000320375","","","","Images/NewTrialBC.png","37"
"image-keyboard-response","402","522743","0.0-4.0-1.127","2","High_HMMActual","null","","","","Images/BlackBeadChoice.png","null"
"image-keyboard-response","403","523445","0.0-4.0-2.127","2","High_HMMActual","null","","","","Images/BlackBeadChoiceWrong.png","null"
"image-keyboard-response","404","523797","0.0-4.0-0.128","2","High_HMMActual","350.37000000011176","","","","Images/NewTrialWC.png","39"
"image-keyboard-response","405","524199","0.0-4.0-1.128","2","High_HMMActual","null","","","","Images/WhiteBeadChoice.png","null"
"image-keyboard-response","406","524901","0.0-4.0-2.128","2","High_HMMActual","null","","","","Images/WhiteBeadChoiceWrong.png","null"
"image-keyboard-response","407","525488","0.0-4.0-0.129","2","High_HMMActual","585.3099999949336","","","","Images/NewTrialBC.png","37"
"image-keyboard-response","408","525891","0.0-4.0-1.129","2","High_HMMActual","null","","","","Images/BlackBeadChoice.png","null"
"image-keyboard-response","409","526595","0.0-4.0-2.129","2","High_HMMActual","null","","","","Images/BlackBeadChoiceWrong.png","null"
"image-keyboard-response","410","526913","0.0-4.0-0.130","2","High_HMMActual","315.93000001157634","","","","Images/NewTrialWC.png","39"
"image-keyboard-response","411","527315","0.0-4.0-1.130","2","High_HMMActual","null","","","","Images/WhiteBeadChoice.png","null"
"image-keyboard-response","412","528017","0.0-4.0-2.130","2","High_HMMActual","null","","","","Images/WhiteBeadChoiceWrong.png","null"
"image-keyboard-response","413","528403","0.0-4.0-0.131","2","High_HMMActual","382.9949999926612","","","","Images/NewTrialBC.png","37"
"image-keyboard-response","414","528804","0.0-4.0-1.131","2","High_HMMActual","null","","","","Images/BlackBeadChoice.png","null"
"image-keyboard-response","415","529507","0.0-4.0-2.131","2","High_HMMActual","null","","","","Images/BlackBeadChoiceWrong.png","null"
"image-keyboard-response","416","530726","0.0-4.0-0.132","2","High_HMMActual","1216.2050000042655","","","","Images/NewTrialWC.png","37"
"image-keyboard-response","417","531128","0.0-4.0-1.132","2","High_HMMActual","null","","","","Images/BlackBeadChoice.png","null"
"image-keyboard-response","418","531830","0.0-4.0-2.132","2","High_HMMActual","null","","","","Images/BlackBeadChoiceCorrect.png","null"
"image-keyboard-response","419","532318","0.0-4.0-0.133","2","High_HMMActual","485.5249999964144","","","","Images/NewTrialBC.png","39"
"image-keyboard-response","420","532721","0.0-4.0-1.133","2","High_HMMActual","null","","","","Images/WhiteBeadChoice.png","null"
"image-keyboard-response","421","533424","0.0-4.0-2.133","2","High_HMMActual","null","","","","Images/WhiteBeadChoiceWrong.png","null"
"image-keyboard-response","422","534873","0.0-4.0-0.134","2","High_HMMActual","1446.5049999998882","","","","Images/NewTrialBC.png","37"
"image-keyboard-response","423","535276","0.0-4.0-1.134","2","High_HMMActual","null","","","","Images/BlackBeadChoice.png","null"
"image-keyboard-response","424","535979","0.0-4.0-2.134","2","High_HMMActual","null","","","","Images/BlackBeadChoiceCorrect.png","null"
"image-keyboard-response","425","537168","0.0-4.0-0.135","2","High_HMMActual","1187.2849999926984","","","","Images/NewTrialBC.png","37"
"image-keyboard-response","426","537571","0.0-4.0-1.135","2","High_HMMActual","null","","","","Images/BlackBeadChoice.png","null"
"image-keyboard-response","427","538274","0.0-4.0-2.135","2","High_HMMActual","null","","","","Images/BlackBeadChoiceWrong.png","null"
"image-keyboard-response","428","539179","0.0-4.0-0.136","2","High_HMMActual","902.5149999943096","","","","Images/NewTrialWC.png","39"
"image-keyboard-response","429","539581","0.0-4.0-1.136","2","High_HMMActual","null","","","","Images/WhiteBeadChoice.png","null"
"image-keyboard-response","430","540284","0.0-4.0-2.136","2","High_HMMActual","null","","","","Images/WhiteBeadChoiceWrong.png","null"
"image-keyboard-response","431","540794","0.0-4.0-0.137","2","High_HMMActual","507.72999998298474","","","","Images/NewTrialBC.png","39"
"image-keyboard-response","432","541196","0.0-4.0-1.137","2","High_HMMActual","null","","","","Images/WhiteBeadChoice.png","null"
"image-keyboard-response","433","541900","0.0-4.0-2.137","2","High_HMMActual","null","","","","Images/WhiteBeadChoiceWrong.png","null"
"image-keyboard-response","434","542060","0.0-4.0-0.138","2","High_HMMActual","156.55999997397885","","","","Images/NewTrialBC.png","37"
"image-keyboard-response","435","542462","0.0-4.0-1.138","2","High_HMMActual","null","","","","Images/BlackBeadChoice.png","null"
"image-keyboard-response","436","543164","0.0-4.0-2.138","2","High_HMMActual","null","","","","Images/BlackBeadChoiceCorrect.png","null"
"image-keyboard-response","437","543599","0.0-4.0-0.139","2","High_HMMActual","433.1250000104774","","","","Images/NewTrialBC.png","39"
"image-keyboard-response","438","544002","0.0-4.0-1.139","2","High_HMMActual","null","","","","Images/WhiteBeadChoice.png","null"
"image-keyboard-response","439","544706","0.0-4.0-2.139","2","High_HMMActual","null","","","","Images/WhiteBeadChoiceCorrect.png","null"
"image-keyboard-response","440","545459","0.0-4.0-0.140","2","High_HMMActual","750.0900000159163","","","","Images/NewTrialWC.png","39"
"image-keyboard-response","441","545860","0.0-4.0-1.140","2","High_HMMActual","null","","","","Images/WhiteBeadChoice.png","null"
"image-keyboard-response","442","546563","0.0-4.0-2.140","2","High_HMMActual","null","","","","Images/WhiteBeadChoiceWrong.png","null"
"image-keyboard-response","443","547264","0.0-4.0-0.141","2","High_HMMActual","699.3050000164658","","","","Images/NewTrialBC.png","37"
"image-keyboard-response","444","547667","0.0-4.0-1.141","2","High_HMMActual","null","","","","Images/BlackBeadChoice.png","null"
"image-keyboard-response","445","548369","0.0-4.0-2.141","2","High_HMMActual","null","","","","Images/BlackBeadChoiceCorrect.png","null"
"image-keyboard-response","446","548943","0.0-4.0-0.142","2","High_HMMActual","572.3250000155531","","","","Images/NewTrialBC.png","39"
"image-keyboard-response","447","549345","0.0-4.0-1.142","2","High_HMMActual","null","","","","Images/WhiteBeadChoice.png","null"
"image-keyboard-response","448","550047","0.0-4.0-2.142","2","High_HMMActual","null","","","","Images/WhiteBeadChoiceWrong.png","null"
"image-keyboard-response","449","550872","0.0-4.0-0.143","2","High_HMMActual","823.0850000109058","","","","Images/NewTrialBC.png","37"
"image-keyboard-response","450","551275","0.0-4.0-1.143","2","High_HMMActual","null","","","","Images/BlackBeadChoice.png","null"
"image-keyboard-response","451","551979","0.0-4.0-2.143","2","High_HMMActual","null","","","","Images/BlackBeadChoiceCorrect.png","null"
"image-keyboard-response","452","552533","0.0-4.0-0.144","2","High_HMMActual","551.6549999883864","","","","Images/NewTrialBC.png","37"
"image-keyboard-response","453","552935","0.0-4.0-1.144","2","High_HMMActual","null","","","","Images/BlackBeadChoice.png","null"
"image-keyboard-response","454","553638","0.0-4.0-2.144","2","High_HMMActual","null","","","","Images/BlackBeadChoiceCorrect.png","null"
"image-keyboard-response","455","554510","0.0-4.0-0.145","2","High_HMMActual","869.6550000167917","","","","Images/NewTrialBC.png","39"
"image-keyboard-response","456","554912","0.0-4.0-1.145","2","High_HMMActual","null","","","","Images/WhiteBeadChoice.png","null"
"image-keyboard-response","457","555614","0.0-4.0-2.145","2","High_HMMActual","null","","","","Images/WhiteBeadChoiceCorrect.png","null"
"image-keyboard-response","458","556100","0.0-4.0-0.146","2","High_HMMActual","483.8549999985844","","","","Images/NewTrialWC.png","39"
"image-keyboard-response","459","556503","0.0-4.0-1.146","2","High_HMMActual","null","","","","Images/WhiteBeadChoice.png","null"
"image-keyboard-response","460","557206","0.0-4.0-2.146","2","High_HMMActual","null","","","","Images/WhiteBeadChoiceWrong.png","null"
"image-keyboard-response","461","558294","0.0-4.0-0.147","2","High_HMMActual","1084.6400000154972","","","","Images/NewTrialBC.png","37"
"image-keyboard-response","462","558696","0.0-4.0-1.147","2","High_HMMActual","null","","","","Images/BlackBeadChoice.png","null"
"image-keyboard-response","463","559398","0.0-4.0-2.147","2","High_HMMActual","null","","","","Images/BlackBeadChoiceWrong.png","null"
"image-keyboard-response","464","561276","0.0-4.0-0.148","2","High_HMMActual","1875.8499999821652","","","","Images/NewTrialWC.png","39"
"image-keyboard-response","465","561679","0.0-4.0-1.148","2","High_HMMActual","null","","","","Images/WhiteBeadChoice.png","null"
"image-keyboard-response","466","562383","0.0-4.0-2.148","2","High_HMMActual","null","","","","Images/WhiteBeadChoiceWrong.png","null"
"image-keyboard-response","467","563071","0.0-4.0-0.149","2","High_HMMActual","685.605000006035","","","","Images/NewTrialBC.png","39"
"image-keyboard-response","468","563473","0.0-4.0-1.149","2","High_HMMActual","null","","","","Images/WhiteBeadChoice.png","null"
"image-keyboard-response","469","564176","0.0-4.0-2.149","2","High_HMMActual","null","","","","Images/WhiteBeadChoiceWrong.png","null"
"image-keyboard-response","470","564517","0.0-4.0-0.150","2","High_HMMActual","339.59000001777895","","","","Images/NewTrialBC.png","37"
"image-keyboard-response","471","564920","0.0-4.0-1.150","2","High_HMMActual","null","","","","Images/BlackBeadChoice.png","null"
"image-keyboard-response","472","565623","0.0-4.0-2.150","2","High_HMMActual","null","","","","Images/BlackBeadChoiceCorrect.png","null"
"image-keyboard-response","473","566143","0.0-4.0-0.151","2","High_HMMActual","517.4199999892153","","","","Images/NewTrialBC.png","39"
"image-keyboard-response","474","566545","0.0-4.0-1.151","2","High_HMMActual","null","","","","Images/WhiteBeadChoice.png","null"
"image-keyboard-response","475","567248","0.0-4.0-2.151","2","High_HMMActual","null","","","","Images/WhiteBeadChoiceCorrect.png","null"
"image-keyboard-response","476","567854","0.0-4.0-0.152","2","High_HMMActual","604.1649999970105","","","","Images/NewTrialWC.png","37"
"image-keyboard-response","477","568257","0.0-4.0-1.152","2","High_HMMActual","null","","","","Images/BlackBeadChoice.png","null"
"image-keyboard-response","478","568959","0.0-4.0-2.152","2","High_HMMActual","null","","","","Images/BlackBeadChoiceWrong.png","null"
"image-keyboard-response","479","569702","0.0-4.0-0.153","2","High_HMMActual","740.3199999826029","","","","Images/NewTrialWC.png","39"
"image-keyboard-response","480","570105","0.0-4.0-1.153","2","High_HMMActual","null","","","","Images/WhiteBeadChoice.png","null"
"image-keyboard-response","481","570808","0.0-4.0-2.153","2","High_HMMActual","null","","","","Images/WhiteBeadChoiceCorrect.png","null"
"image-keyboard-response","482","571529","0.0-4.0-0.154","2","High_HMMActual","718.5750000062399","","","","Images/NewTrialWC.png","39"
"image-keyboard-response","483","571932","0.0-4.0-1.154","2","High_HMMActual","null","","","","Images/WhiteBeadChoice.png","null"
"image-keyboard-response","484","572634","0.0-4.0-2.154","2","High_HMMActual","null","","","","Images/WhiteBeadChoiceWrong.png","null"
"image-keyboard-response","485","574085","0.0-4.0-0.155","2","High_HMMActual","1448.6399999877904","","","","Images/NewTrialBC.png","37"
"image-keyboard-response","486","574487","0.0-4.0-1.155","2","High_HMMActual","null","","","","Images/BlackBeadChoice.png","null"
"image-keyboard-response","487","575189","0.0-4.0-2.155","2","High_HMMActual","null","","","","Images/BlackBeadChoiceWrong.png","null"
"image-keyboard-response","488","576932","0.0-4.0-0.156","2","High_HMMActual","1740.3400000184774","","","","Images/NewTrialWC.png","39"
"image-keyboard-response","489","577334","0.0-4.0-1.156","2","High_HMMActual","null","","","","Images/WhiteBeadChoice.png","null"
"image-keyboard-response","490","578037","0.0-4.0-2.156","2","High_HMMActual","null","","","","Images/WhiteBeadChoiceCorrect.png","null"
"image-keyboard-response","491","578676","0.0-4.0-0.157","2","High_HMMActual","636.5050000022165","","","","Images/NewTrialWC.png","39"
"image-keyboard-response","492","579078","0.0-4.0-1.157","2","High_HMMActual","null","","","","Images/WhiteBeadChoice.png","null"
"image-keyboard-response","493","579781","0.0-4.0-2.157","2","High_HMMActual","null","","","","Images/WhiteBeadChoiceCorrect.png","null"
"image-keyboard-response","494","580283","0.0-4.0-0.158","2","High_HMMActual","500.34500000765547","","","","Images/NewTrialWC.png","39"
"image-keyboard-response","495","580686","0.0-4.0-1.158","2","High_HMMActual","null","","","","Images/WhiteBeadChoice.png","null"
"image-keyboard-response","496","581388","0.0-4.0-2.158","2","High_HMMActual","null","","","","Images/WhiteBeadChoiceWrong.png","null"
"image-keyboard-response","497","582030","0.0-4.0-0.159","2","High_HMMActual","639.324999996461","","","","Images/NewTrialBC.png","37"
"image-keyboard-response","498","582433","0.0-4.0-1.159","2","High_HMMActual","null","","","","Images/BlackBeadChoice.png","null"
"image-keyboard-response","499","583136","0.0-4.0-2.159","2","High_HMMActual","null","","","","Images/BlackBeadChoiceWrong.png","null"
"image-keyboard-response","500","583949","0.0-4.0-0.160","2","High_HMMActual","810.8149999752641","","","","Images/NewTrialWC.png","37"
"image-keyboard-response","501","584351","0.0-4.0-1.160","2","High_HMMActual","null","","","","Images/BlackBeadChoice.png","null"
"image-keyboard-response","502","585054","0.0-4.0-2.160","2","High_HMMActual","null","","","","Images/BlackBeadChoiceCorrect.png","null"
"image-keyboard-response","503","585980","0.0-4.0-0.161","2","High_HMMActual","923.255000001518","","","","Images/NewTrialBC.png","39"
"image-keyboard-response","504","586382","0.0-4.0-1.161","2","High_HMMActual","null","","","","Images/WhiteBeadChoice.png","null"
"image-keyboard-response","505","587084","0.0-4.0-2.161","2","High_HMMActual","null","","","","Images/WhiteBeadChoiceCorrect.png","null"
"image-keyboard-response","506","587679","0.0-4.0-0.162","2","High_HMMActual","591.3699999800883","","","","Images/NewTrialWC.png","37"
"image-keyboard-response","507","588081","0.0-4.0-1.162","2","High_HMMActual","null","","","","Images/BlackBeadChoice.png","null"
"image-keyboard-response","508","588783","0.0-4.0-2.162","2","High_HMMActual","null","","","","Images/BlackBeadChoiceCorrect.png","null"
"image-keyboard-response","509","589589","0.0-4.0-0.163","2","High_HMMActual","803.9249999856111","","","","Images/NewTrialBC.png","37"
"image-keyboard-response","510","589992","0.0-4.0-1.163","2","High_HMMActual","null","","","","Images/BlackBeadChoice.png","null"
"image-keyboard-response","511","590695","0.0-4.0-2.163","2","High_HMMActual","null","","","","Images/BlackBeadChoiceWrong.png","null"
"image-keyboard-response","512","591927","0.0-4.0-0.164","2","High_HMMActual","1229.0050000010524","","","","Images/NewTrialWC.png","39"
"image-keyboard-response","513","592330","0.0-4.0-1.164","2","High_HMMActual","null","","","","Images/WhiteBeadChoice.png","null"
"image-keyboard-response","514","593033","0.0-4.0-2.164","2","High_HMMActual","null","","","","Images/WhiteBeadChoiceCorrect.png","null"
"image-keyboard-response","515","593518","0.0-4.0-0.165","2","High_HMMActual","481.8599999998696","","","","Images/NewTrialWC.png","39"
"image-keyboard-response","516","593920","0.0-4.0-1.165","2","High_HMMActual","null","","","","Images/WhiteBeadChoice.png","null"
"image-keyboard-response","517","594622","0.0-4.0-2.165","2","High_HMMActual","null","","","","Images/WhiteBeadChoiceCorrect.png","null"
"image-keyboard-response","518","594970","0.0-4.0-0.166","2","High_HMMActual","345.9199999924749","","","","Images/NewTrialWC.png","39"
"image-keyboard-response","519","595373","0.0-4.0-1.166","2","High_HMMActual","null","","","","Images/WhiteBeadChoice.png","null"
"image-keyboard-response","520","596075","0.0-4.0-2.166","2","High_HMMActual","null","","","","Images/WhiteBeadChoiceCorrect.png","null"
"image-keyboard-response","521","596847","0.0-4.0-0.167","2","High_HMMActual","769.3150000122841","","","","Images/NewTrialWC.png","37"
"image-keyboard-response","522","597250","0.0-4.0-1.167","2","High_HMMActual","null","","","","Images/BlackBeadChoice.png","null"
"image-keyboard-response","523","597952","0.0-4.0-2.167","2","High_HMMActual","null","","","","Images/BlackBeadChoiceWrong.png","null"
"image-keyboard-response","524","598387","0.0-4.0-0.168","2","High_HMMActual","432.4950000154786","","","","Images/NewTrialWC.png","37"
"image-keyboard-response","525","598790","0.0-4.0-1.168","2","High_HMMActual","null","","","","Images/BlackBeadChoice.png","null"
"image-keyboard-response","526","599494","0.0-4.0-2.168","2","High_HMMActual","null","","","","Images/BlackBeadChoiceWrong.png","null"
"image-keyboard-response","527","599670","0.0-4.0-0.169","2","High_HMMActual","173.9850000012666","","","","Images/NewTrialWC.png","39"
"image-keyboard-response","528","600072","0.0-4.0-1.169","2","High_HMMActual","null","","","","Images/WhiteBeadChoice.png","null"
"image-keyboard-response","529","600775","0.0-4.0-2.169","2","High_HMMActual","null","","","","Images/WhiteBeadChoiceCorrect.png","null"
"image-keyboard-response","530","601266","0.0-4.0-0.170","2","High_HMMActual","488.38000002433546","","","","Images/NewTrialWC.png","39"
"image-keyboard-response","531","601669","0.0-4.0-1.170","2","High_HMMActual","null","","","","Images/WhiteBeadChoice.png","null"
"image-keyboard-response","532","602372","0.0-4.0-2.170","2","High_HMMActual","null","","","","Images/WhiteBeadChoiceWrong.png","null"
"image-keyboard-response","533","603033","0.0-4.0-0.171","2","High_HMMActual","658.9249999960884","","","","Images/NewTrialBC.png","37"
"image-keyboard-response","534","603435","0.0-4.0-1.171","2","High_HMMActual","null","","","","Images/BlackBeadChoice.png","null"
"image-keyboard-response","535","604139","0.0-4.0-2.171","2","High_HMMActual","null","","","","Images/BlackBeadChoiceWrong.png","null"
"image-keyboard-response","536","604495","0.0-4.0-0.172","2","High_HMMActual","354.12999999243766","","","","Images/NewTrialWC.png","37"
"image-keyboard-response","537","604897","0.0-4.0-1.172","2","High_HMMActual","null","","","","Images/BlackBeadChoice.png","null"
"image-keyboard-response","538","605599","0.0-4.0-2.172","2","High_HMMActual","null","","","","Images/BlackBeadChoiceCorrect.png","null"
"image-keyboard-response","539","606111","0.0-4.0-0.173","2","High_HMMActual","509.4849999877624","","","","Images/NewTrialBC.png","39"
"image-keyboard-response","540","606513","0.0-4.0-1.173","2","High_HMMActual","null","","","","Images/WhiteBeadChoice.png","null"
"image-keyboard-response","541","607216","0.0-4.0-2.173","2","High_HMMActual","null","","","","Images/WhiteBeadChoiceCorrect.png","null"
"image-keyboard-response","542","607591","0.0-4.0-0.174","2","High_HMMActual","373.0599999835249","","","","Images/NewTrialWC.png","39"
"image-keyboard-response","543","607993","0.0-4.0-1.174","2","High_HMMActual","null","","","","Images/WhiteBeadChoice.png","null"
"image-keyboard-response","544","608696","0.0-4.0-2.174","2","High_HMMActual","null","","","","Images/WhiteBeadChoiceWrong.png","null"
"image-keyboard-response","545","609408","0.0-4.0-0.175","2","High_HMMActual","710.4600000020582","","","","Images/NewTrialBC.png","37"
"image-keyboard-response","546","609810","0.0-4.0-1.175","2","High_HMMActual","null","","","","Images/BlackBeadChoice.png","null"
"image-keyboard-response","547","610513","0.0-4.0-2.175","2","High_HMMActual","null","","","","Images/BlackBeadChoiceCorrect.png","null"
"image-keyboard-response","548","610940","0.0-4.0-0.176","2","High_HMMActual","424.58500000066124","","","","Images/NewTrialBC.png","37"
"image-keyboard-response","549","611342","0.0-4.0-1.176","2","High_HMMActual","null","","","","Images/BlackBeadChoice.png","null"
"image-keyboard-response","550","612045","0.0-4.0-2.176","2","High_HMMActual","null","","","","Images/BlackBeadChoiceCorrect.png","null"
"image-keyboard-response","551","612601","0.0-4.0-0.177","2","High_HMMActual","553.1299999856856","","","","Images/NewTrialBC.png","39"
"image-keyboard-response","552","613003","0.0-4.0-1.177","2","High_HMMActual","null","","","","Images/WhiteBeadChoice.png","null"
"image-keyboard-response","553","613705","0.0-4.0-2.177","2","High_HMMActual","null","","","","Images/WhiteBeadChoiceCorrect.png","null"
"image-keyboard-response","554","614215","0.0-4.0-0.178","2","High_HMMActual","506.6000000224449","","","","Images/NewTrialWC.png","39"
"image-keyboard-response","555","614617","0.0-4.0-1.178","2","High_HMMActual","null","","","","Images/WhiteBeadChoice.png","null"
"image-keyboard-response","556","615321","0.0-4.0-2.178","2","High_HMMActual","null","","","","Images/WhiteBeadChoiceCorrect.png","null"
"image-keyboard-response","557","615796","0.0-4.0-0.179","2","High_HMMActual","473.20499998750165","","","","Images/NewTrialWC.png","39"
"image-keyboard-response","558","616199","0.0-4.0-1.179","2","High_HMMActual","null","","","","Images/WhiteBeadChoice.png","null"
"image-keyboard-response","559","616901","0.0-4.0-2.179","2","High_HMMActual","null","","","","Images/WhiteBeadChoiceCorrect.png","null"
"image-keyboard-response","560","617645","0.0-4.0-0.180","2","High_HMMActual","741.9300000183284","","","","Images/NewTrialWC.png","37"
"image-keyboard-response","561","618047","0.0-4.0-1.180","2","High_HMMActual","null","","","","Images/BlackBeadChoice.png","null"
"image-keyboard-response","562","618750","0.0-4.0-2.180","2","High_HMMActual","null","","","","Images/BlackBeadChoiceCorrect.png","null"
"image-keyboard-response","563","619150","0.0-4.0-0.181","2","High_HMMActual","398.30000000074506","","","","Images/NewTrialBC.png","37"
"image-keyboard-response","564","619553","0.0-4.0-1.181","2","High_HMMActual","null","","","","Images/BlackBeadChoice.png","null"
"image-keyboard-response","565","620256","0.0-4.0-2.181","2","High_HMMActual","null","","","","Images/BlackBeadChoiceWrong.png","null"
"image-keyboard-response","566","620559","0.0-4.0-0.182","2","High_HMMActual","301.00999999558553","","","","Images/NewTrialWC.png","39"
"image-keyboard-response","567","620962","0.0-4.0-1.182","2","High_HMMActual","null","","","","Images/WhiteBeadChoice.png","null"
"image-keyboard-response","568","621664","0.0-4.0-2.182","2","High_HMMActual","null","","","","Images/WhiteBeadChoiceWrong.png","null"
"image-keyboard-response","569","622065","0.0-4.0-0.183","2","High_HMMActual","399.1249999962747","","","","Images/NewTrialBC.png","37"
"image-keyboard-response","570","622467","0.0-4.0-1.183","2","High_HMMActual","null","","","","Images/BlackBeadChoice.png","null"
"image-keyboard-response","571","623170","0.0-4.0-2.183","2","High_HMMActual","null","","","","Images/BlackBeadChoiceCorrect.png","null"
"image-keyboard-response","572","623795","0.0-4.0-0.184","2","High_HMMActual","622.9100000055041","","","","Images/NewTrialBC.png","37"
"image-keyboard-response","573","624197","0.0-4.0-1.184","2","High_HMMActual","null","","","","Images/BlackBeadChoice.png","null"
"image-keyboard-response","574","624899","0.0-4.0-2.184","2","High_HMMActual","null","","","","Images/BlackBeadChoiceWrong.png","null"
"image-keyboard-response","575","625320","0.0-4.0-0.185","2","High_HMMActual","418.3600000105798","","","","Images/NewTrialWC.png","39"
"image-keyboard-response","576","625723","0.0-4.0-1.185","2","High_HMMActual","null","","","","Images/WhiteBeadChoice.png","null"
"image-keyboard-response","577","626426","0.0-4.0-2.185","2","High_HMMActual","null","","","","Images/WhiteBeadChoiceWrong.png","null"
"image-keyboard-response","578","627798","0.0-4.0-0.186","2","High_HMMActual","1370.5649999901652","","","","Images/NewTrialBC.png","37"
"image-keyboard-response","579","628201","0.0-4.0-1.186","2","High_HMMActual","null","","","","Images/BlackBeadChoice.png","null"
"image-keyboard-response","580","628905","0.0-4.0-2.186","2","High_HMMActual","null","","","","Images/BlackBeadChoiceWrong.png","null"
"image-keyboard-response","581","629617","0.0-4.0-0.187","2","High_HMMActual","711.2400000041816","","","","Images/NewTrialWC.png","39"
"image-keyboard-response","582","630021","0.0-4.0-1.187","2","High_HMMActual","null","","","","Images/WhiteBeadChoice.png","null"
"image-keyboard-response","583","630723","0.0-4.0-2.187","2","High_HMMActual","null","","","","Images/WhiteBeadChoiceCorrect.png","null"
"image-keyboard-response","584","631053","0.0-4.0-0.188","2","High_HMMActual","328.4799999964889","","","","Images/NewTrialWC.png","39"
"image-keyboard-response","585","631458","0.0-4.0-1.188","2","High_HMMActual","null","","","","Images/WhiteBeadChoice.png","null"
"image-keyboard-response","586","632160","0.0-4.0-2.188","2","High_HMMActual","null","","","","Images/WhiteBeadChoiceCorrect.png","null"
"image-keyboard-response","587","632639","0.0-4.0-0.189","2","High_HMMActual","476.745000021765","","","","Images/NewTrialWC.png","39"
"image-keyboard-response","588","633041","0.0-4.0-1.189","2","High_HMMActual","null","","","","Images/WhiteBeadChoice.png","null"
"image-keyboard-response","589","633744","0.0-4.0-2.189","2","High_HMMActual","null","","","","Images/WhiteBeadChoiceWrong.png","null"
"image-keyboard-response","590","634241","0.0-4.0-0.190","2","High_HMMActual","494.73000000580214","","","","Images/NewTrialBC.png","37"
"image-keyboard-response","591","634643","0.0-4.0-1.190","2","High_HMMActual","null","","","","Images/BlackBeadChoice.png","null"
"image-keyboard-response","592","635345","0.0-4.0-2.190","2","High_HMMActual","null","","","","Images/BlackBeadChoiceCorrect.png","null"
"image-keyboard-response","593","635791","0.0-4.0-0.191","2","High_HMMActual","442.65000001178123","","","","Images/NewTrialBC.png","37"
"image-keyboard-response","594","636194","0.0-4.0-1.191","2","High_HMMActual","null","","","","Images/BlackBeadChoice.png","null"
"image-keyboard-response","595","636896","0.0-4.0-2.191","2","High_HMMActual","null","","","","Images/BlackBeadChoiceWrong.png","null"
"image-keyboard-response","596","637991","0.0-4.0-0.192","2","High_HMMActual","1092.52999999444","","","","Images/NewTrialWC.png","39"
"image-keyboard-response","597","638393","0.0-4.0-1.192","2","High_HMMActual","null","","","","Images/WhiteBeadChoice.png","null"
"image-keyboard-response","598","639096","0.0-4.0-2.192","2","High_HMMActual","null","","","","Images/WhiteBeadChoiceCorrect.png","null"
"image-keyboard-response","599","639703","0.0-4.0-0.193","2","High_HMMActual","604.235000006156","","","","Images/NewTrialWC.png","39"
"image-keyboard-response","600","640104","0.0-4.0-1.193","2","High_HMMActual","null","","","","Images/WhiteBeadChoice.png","null"
"image-keyboard-response","601","640807","0.0-4.0-2.193","2","High_HMMActual","null","","","","Images/WhiteBeadChoiceWrong.png","null"
"image-keyboard-response","602","641888","0.0-4.0-0.194","2","High_HMMActual","1079.0250000136439","","","","Images/NewTrialBC.png","37"
"image-keyboard-response","603","642290","0.0-4.0-1.194","2","High_HMMActual","null","","","","Images/BlackBeadChoice.png","null"
"image-keyboard-response","604","642992","0.0-4.0-2.194","2","High_HMMActual","null","","","","Images/BlackBeadChoiceCorrect.png","null"
"image-keyboard-response","605","643687","0.0-4.0-0.195","2","High_HMMActual","692.1399999991991","","","","Images/NewTrialBC.png","37"
"image-keyboard-response","606","644089","0.0-4.0-1.195","2","High_HMMActual","null","","","","Images/BlackBeadChoice.png","null"
"image-keyboard-response","607","644792","0.0-4.0-2.195","2","High_HMMActual","null","","","","Images/BlackBeadChoiceWrong.png","null"
"image-keyboard-response","608","646377","0.0-4.0-0.196","2","High_HMMActual","1583.184999995865","","","","Images/NewTrialWC.png","39"
"image-keyboard-response","609","646781","0.0-4.0-1.196","2","High_HMMActual","null","","","","Images/WhiteBeadChoice.png","null"
"image-keyboard-response","610","647483","0.0-4.0-2.196","2","High_HMMActual","null","","","","Images/WhiteBeadChoiceWrong.png","null"
"image-keyboard-response","611","648641","0.0-4.0-0.197","2","High_HMMActual","1155.4349999933038","","","","Images/NewTrialBC.png","37"
"image-keyboard-response","612","649043","0.0-4.0-1.197","2","High_HMMActual","null","","","","Images/BlackBeadChoice.png","null"
"image-keyboard-response","613","649746","0.0-4.0-2.197","2","High_HMMActual","null","","","","Images/BlackBeadChoiceWrong.png","null"
"image-keyboard-response","614","650181","0.0-4.0-0.198","2","High_HMMActual","432.7599999960512","","","","Images/NewTrialWC.png","39"
"image-keyboard-response","615","650584","0.0-4.0-1.198","2","High_HMMActual","null","","","","Images/WhiteBeadChoice.png","null"
"image-keyboard-response","616","651287","0.0-4.0-2.198","2","High_HMMActual","null","","","","Images/WhiteBeadChoiceWrong.png","null"
"image-keyboard-response","617","652217","0.0-4.0-0.199","2","High_HMMActual","927.4000000150409","","","","Images/NewTrialBC.png","39"
"image-keyboard-response","618","652619","0.0-4.0-1.199","2","High_HMMActual","null","","","","Images/WhiteBeadChoice.png","null"
"image-keyboard-response","619","653321","0.0-4.0-2.199","2","High_HMMActual","null","","","","Images/WhiteBeadChoiceCorrect.png","null"
"image-keyboard-response","620","653811","0.0-4.0-0.200","2","High_HMMActual","487.23500000778586","","","","Images/NewTrialWC.png","39"
"image-keyboard-response","621","654213","0.0-4.0-1.200","2","High_HMMActual","null","","","","Images/WhiteBeadChoice.png","null"
"image-keyboard-response","622","654915","0.0-4.0-2.200","2","High_HMMActual","null","","","","Images/WhiteBeadChoiceWrong.png","null"
"image-keyboard-response","623","656012","0.0-4.0-0.201","2","High_HMMActual","1094.680000009248","","","","Images/NewTrialBC.png","37"
"image-keyboard-response","624","656414","0.0-4.0-1.201","2","High_HMMActual","null","","","","Images/BlackBeadChoice.png","null"
"image-keyboard-response","625","657117","0.0-4.0-2.201","2","High_HMMActual","null","","","","Images/BlackBeadChoiceWrong.png","null"
"image-keyboard-response","626","657700","0.0-4.0-0.202","2","High_HMMActual","579.8500000091735","","","","Images/NewTrialWC.png","39"
"image-keyboard-response","627","658102","0.0-4.0-1.202","2","High_HMMActual","null","","","","Images/WhiteBeadChoice.png","null"
"image-keyboard-response","628","658806","0.0-4.0-2.202","2","High_HMMActual","null","","","","Images/WhiteBeadChoiceWrong.png","null"
"image-keyboard-response","629","659545","0.0-4.0-0.203","2","High_HMMActual","736.8149999820162","","","","Images/NewTrialBC.png","37"
"image-keyboard-response","630","659948","0.0-4.0-1.203","2","High_HMMActual","null","","","","Images/BlackBeadChoice.png","null"
"image-keyboard-response","631","660651","0.0-4.0-2.203","2","High_HMMActual","null","","","","Images/BlackBeadChoiceCorrect.png","null"
"image-keyboard-response","632","661681","0.0-4.0-0.204","2","High_HMMActual","1027.6000000012573","","","","Images/NewTrialBC.png","37"
"image-keyboard-response","633","662083","0.0-4.0-1.204","2","High_HMMActual","null","","","","Images/BlackBeadChoice.png","null"
"image-keyboard-response","634","662786","0.0-4.0-2.204","2","High_HMMActual","null","","","","Images/BlackBeadChoiceCorrect.png","null"
"image-keyboard-response","635","663646","0.0-4.0-0.205","2","High_HMMActual","857.6100000063889","","","","Images/NewTrialBC.png","39"
"image-keyboard-response","636","664048","0.0-4.0-1.205","2","High_HMMActual","null","","","","Images/WhiteBeadChoice.png","null"
"image-keyboard-response","637","664751","0.0-4.0-2.205","2","High_HMMActual","null","","","","Images/WhiteBeadChoiceWrong.png","null"
"image-keyboard-response","638","665088","0.0-4.0-0.206","2","High_HMMActual","334.7749999957159","","","","Images/NewTrialBC.png","39"
"image-keyboard-response","639","665490","0.0-4.0-1.206","2","High_HMMActual","null","","","","Images/WhiteBeadChoice.png","null"
"image-keyboard-response","640","666194","0.0-4.0-2.206","2","High_HMMActual","null","","","","Images/WhiteBeadChoiceWrong.png","null"
"image-keyboard-response","641","667145","0.0-4.0-0.207","2","High_HMMActual","949.125000013737","","","","Images/NewTrialBC.png","39"
"image-keyboard-response","642","667548","0.0-4.0-1.207","2","High_HMMActual","null","","","","Images/WhiteBeadChoice.png","null"
"image-keyboard-response","643","668251","0.0-4.0-2.207","2","High_HMMActual","null","","","","Images/WhiteBeadChoiceWrong.png","null"
"image-keyboard-response","644","668754","0.0-4.0-0.208","2","High_HMMActual","500.8700000180397","","","","Images/NewTrialBC.png","39"
"image-keyboard-response","645","669157","0.0-4.0-1.208","2","High_HMMActual","null","","","","Images/WhiteBeadChoice.png","null"
"image-keyboard-response","646","669860","0.0-4.0-2.208","2","High_HMMActual","null","","","","Images/WhiteBeadChoiceWrong.png","null"
"image-keyboard-response","647","670126","0.0-4.0-0.209","2","High_HMMActual","264.1650000005029","","","","Images/NewTrialBC.png","37"
"image-keyboard-response","648","670528","0.0-4.0-1.209","2","High_HMMActual","null","","","","Images/BlackBeadChoice.png","null"
"image-keyboard-response","649","671231","0.0-4.0-2.209","2","High_HMMActual","null","","","","Images/BlackBeadChoiceCorrect.png","null"
"image-keyboard-response","650","671813","0.0-4.0-0.210","2","High_HMMActual","579.6050000062678","","","","Images/NewTrialBC.png","37"
"image-keyboard-response","651","672215","0.0-4.0-1.210","2","High_HMMActual","null","","","","Images/BlackBeadChoice.png","null"
"image-keyboard-response","652","672919","0.0-4.0-2.210","2","High_HMMActual","null","","","","Images/BlackBeadChoiceCorrect.png","null"
"image-keyboard-response","653","673439","0.0-4.0-0.211","2","High_HMMActual","517.8199999791104","","","","Images/NewTrialBC.png","37"
"image-keyboard-response","654","673841","0.0-4.0-1.211","2","High_HMMActual","null","","","","Images/BlackBeadChoice.png","null"
"image-keyboard-response","655","674544","0.0-4.0-2.211","2","High_HMMActual","null","","","","Images/BlackBeadChoiceCorrect.png","null"
"image-keyboard-response","656","674964","0.0-4.0-0.212","2","High_HMMActual","418.53500000433996","","","","Images/NewTrialBC.png","37"
"image-keyboard-response","657","675367","0.0-4.0-1.212","2","High_HMMActual","null","","","","Images/BlackBeadChoice.png","null"
"image-keyboard-response","658","676071","0.0-4.0-2.212","2","High_HMMActual","null","","","","Images/BlackBeadChoiceCorrect.png","null"
"image-keyboard-response","659","676576","0.0-4.0-0.213","2","High_HMMActual","502.9450000147335","","","","Images/NewTrialBC.png","37"
"image-keyboard-response","660","676978","0.0-4.0-1.213","2","High_HMMActual","null","","","","Images/BlackBeadChoice.png","null"
"image-keyboard-response","661","677680","0.0-4.0-2.213","2","High_HMMActual","null","","","","Images/BlackBeadChoiceWrong.png","null"
"image-keyboard-response","662","677927","0.0-4.0-0.214","2","High_HMMActual","244.9600000109058","","","","Images/NewTrialWC.png","39"
"image-keyboard-response","663","678330","0.0-4.0-1.214","2","High_HMMActual","null","","","","Images/WhiteBeadChoice.png","null"
"image-keyboard-response","664","679032","0.0-4.0-2.214","2","High_HMMActual","null","","","","Images/WhiteBeadChoiceCorrect.png","null"
"image-keyboard-response","665","679428","0.0-4.0-0.215","2","High_HMMActual","393.9900000113994","","","","Images/NewTrialWC.png","37"
"image-keyboard-response","666","679830","0.0-4.0-1.215","2","High_HMMActual","null","","","","Images/BlackBeadChoice.png","null"
"image-keyboard-response","667","680533","0.0-4.0-2.215","2","High_HMMActual","530.8950000035111","","","","Images/BlackBeadChoiceWrong.png","39"
"image-keyboard-response","668","681637","0.0-4.0-0.216","2","High_HMMActual","1101.185000006808","","","","Images/NewTrialWC.png","39"
"image-keyboard-response","669","682039","0.0-4.0-1.216","2","High_HMMActual","null","","","","Images/WhiteBeadChoice.png","null"
"image-keyboard-response","670","682742","0.0-4.0-2.216","2","High_HMMActual","686.7900000070222","","","","Images/WhiteBeadChoiceWrong.png","37"
"image-keyboard-response","671","684170","0.0-4.0-0.217","2","High_HMMActual","1425.7649999926798","","","","Images/NewTrialBC.png","37"
"image-keyboard-response","672","684572","0.0-4.0-1.217","2","High_HMMActual","null","","","","Images/BlackBeadChoice.png","null"
"image-keyboard-response","673","685275","0.0-4.0-2.217","2","High_HMMActual","null","","","","Images/BlackBeadChoiceWrong.png","null"
"image-keyboard-response","674","685977","0.0-4.0-0.218","2","High_HMMActual","699.6700000017881","","","","Images/NewTrialWC.png","39"
"image-keyboard-response","675","686379","0.0-4.0-1.218","2","High_HMMActual","null","","","","Images/WhiteBeadChoice.png","null"
"image-keyboard-response","676","687082","0.0-4.0-2.218","2","High_HMMActual","null","","","","Images/WhiteBeadChoiceCorrect.png","null"
"image-keyboard-response","677","688191","0.0-4.0-0.219","2","High_HMMActual","1107.1550000051502","","","","Images/NewTrialWC.png","39"
"image-keyboard-response","678","688594","0.0-4.0-1.219","2","High_HMMActual","null","","","","Images/WhiteBeadChoice.png","null"
"image-keyboard-response","679","689297","0.0-4.0-2.219","2","High_HMMActual","null","","","","Images/WhiteBeadChoiceWrong.png","null"
"image-keyboard-response","680","691303","0.0-4.0-0.220","2","High_HMMActual","2004.125000006752","","","","Images/NewTrialBC.png","37"
"image-keyboard-response","681","691705","0.0-4.0-1.220","2","High_HMMActual","null","","","","Images/BlackBeadChoice.png","null"
"image-keyboard-response","682","692408","0.0-4.0-2.220","2","High_HMMActual","null","","","","Images/BlackBeadChoiceCorrect.png","null"
"image-keyboard-response","683","694696","0.0-4.0-0.221","2","High_HMMActual","2285.9600000083447","","","","Images/NewTrialBC.png","37"
"image-keyboard-response","684","695099","0.0-4.0-1.221","2","High_HMMActual","null","","","","Images/BlackBeadChoice.png","null"
"image-keyboard-response","685","695802","0.0-4.0-2.221","2","High_HMMActual","null","","","","Images/BlackBeadChoiceWrong.png","null"
"image-keyboard-response","686","696805","0.0-4.0-0.222","2","High_HMMActual","1000.9700000227895","","","","Images/NewTrialWC.png","39"
"image-keyboard-response","687","697208","0.0-4.0-1.222","2","High_HMMActual","null","","","","Images/WhiteBeadChoice.png","null"
"image-keyboard-response","688","697911","0.0-4.0-2.222","2","High_HMMActual","null","","","","Images/WhiteBeadChoiceWrong.png","null"
"image-keyboard-response","689","698402","0.0-4.0-0.223","2","High_HMMActual","488.47000001114793","","","","Images/NewTrialBC.png","39"
"image-keyboard-response","690","698803","0.0-4.0-1.223","2","High_HMMActual","null","","","","Images/WhiteBeadChoice.png","null"
"image-keyboard-response","691","699506","0.0-4.0-2.223","2","High_HMMActual","null","","","","Images/WhiteBeadChoiceCorrect.png","null"
"image-keyboard-response","692","699876","0.0-4.0-0.224","2","High_HMMActual","367.6850000047125","","","","Images/NewTrialWC.png","37"
"image-keyboard-response","693","700278","0.0-4.0-1.224","2","High_HMMActual","null","","","","Images/BlackBeadChoice.png","null"
"image-keyboard-response","694","700981","0.0-4.0-2.224","2","High_HMMActual","null","","","","Images/BlackBeadChoiceCorrect.png","null"
"image-keyboard-response","695","701552","0.0-4.0-0.225","2","High_HMMActual","568.9249999995809","","","","Images/NewTrialBC.png","37"
"image-keyboard-response","696","701954","0.0-4.0-1.225","2","High_HMMActual","null","","","","Images/BlackBeadChoice.png","null"
"image-keyboard-response","697","702657","0.0-4.0-2.225","2","High_HMMActual","null","","","","Images/BlackBeadChoiceWrong.png","null"
"image-keyboard-response","698","703354","0.0-4.0-0.226","2","High_HMMActual","694.5550000236835","","","","Images/NewTrialWC.png","39"
"image-keyboard-response","699","703756","0.0-4.0-1.226","2","High_HMMActual","null","","","","Images/WhiteBeadChoice.png","null"
"image-keyboard-response","700","704460","0.0-4.0-2.226","2","High_HMMActual","null","","","","Images/WhiteBeadChoiceWrong.png","null"
"image-keyboard-response","701","705911","0.0-4.0-0.227","2","High_HMMActual","1449.0050000022165","","","","Images/NewTrialBC.png","39"
"image-keyboard-response","702","706314","0.0-4.0-1.227","2","High_HMMActual","null","","","","Images/WhiteBeadChoice.png","null"
"image-keyboard-response","703","707018","0.0-4.0-2.227","2","High_HMMActual","null","","","","Images/WhiteBeadChoiceWrong.png","null"
"image-keyboard-response","704","707587","0.0-4.0-0.228","2","High_HMMActual","565.9100000048056","","","","Images/NewTrialBC.png","37"
"image-keyboard-response","705","707990","0.0-4.0-1.228","2","High_HMMActual","null","","","","Images/BlackBeadChoice.png","null"
"image-keyboard-response","706","708693","0.0-4.0-2.228","2","High_HMMActual","null","","","","Images/BlackBeadChoiceCorrect.png","null"
"image-keyboard-response","707","709284","0.0-4.0-0.229","2","High_HMMActual","588.3550000144169","","","","Images/NewTrialBC.png","37"
"image-keyboard-response","708","709686","0.0-4.0-1.229","2","High_HMMActual","null","","","","Images/BlackBeadChoice.png","null"
"image-keyboard-response","709","710389","0.0-4.0-2.229","2","High_HMMActual","null","","","","Images/BlackBeadChoiceWrong.png","null"
"image-keyboard-response","710","711465","0.0-4.0-0.230","2","High_HMMActual","1074.1800000250805","","","","Images/NewTrialWC.png","39"
"image-keyboard-response","711","711868","0.0-4.0-1.230","2","High_HMMActual","null","","","","Images/WhiteBeadChoice.png","null"
"image-keyboard-response","712","712571","0.0-4.0-2.230","2","High_HMMActual","null","","","","Images/WhiteBeadChoiceCorrect.png","null"
"image-keyboard-response","713","713027","0.0-4.0-0.231","2","High_HMMActual","454.0149999957066","","","","Images/NewTrialWC.png","37"
"image-keyboard-response","714","713430","0.0-4.0-1.231","2","High_HMMActual","null","","","","Images/BlackBeadChoice.png","null"
"image-keyboard-response","715","714133","0.0-4.0-2.231","2","High_HMMActual","null","","","","Images/BlackBeadChoiceWrong.png","null"
"image-keyboard-response","716","714576","0.0-4.0-0.232","2","High_HMMActual","440.43999997666106","","","","Images/NewTrialWC.png","37"
"image-keyboard-response","717","714979","0.0-4.0-1.232","2","High_HMMActual","null","","","","Images/BlackBeadChoice.png","null"
"image-keyboard-response","718","715682","0.0-4.0-2.232","2","High_HMMActual","null","","","","Images/BlackBeadChoiceWrong.png","null"
"image-keyboard-response","719","715845","0.0-4.0-0.233","2","High_HMMActual","160.68499998073094","","","","Images/NewTrialWC.png","39"
"image-keyboard-response","720","716247","0.0-4.0-1.233","2","High_HMMActual","null","","","","Images/WhiteBeadChoice.png","null"
"image-keyboard-response","721","716949","0.0-4.0-2.233","2","High_HMMActual","null","","","","Images/WhiteBeadChoiceWrong.png","null"
"image-keyboard-response","722","717414","0.0-4.0-0.234","2","High_HMMActual","462.7899999904912","","","","Images/NewTrialBC.png","37"
