"trial_type","trial_index","time_elapsed","internal_node_id","Script_Picker","Block_Type","rt","url","responses","question_order","stimulus","key_press"
"pavlovia","0","3","0.0-0.0","9","Low_HMMActual","","","","","",""
"external-html","1","26713","0.0-1.0-0.0","9","Low_HMMActual","26663.17499999991","consent.html","","","",""
"survey-multi-choice","2","32116","0.0-1.0-1.0","9","Low_HMMActual","5401.635000000053","","{""Q0"":""Male"",""Q1"":""White""}","[0,1]","",""
"survey-text","3","34008","0.0-1.0-2.0","9","Low_HMMActual","1889.8799999999537","","{""Q0"":""23""}","","",""
"survey-text","4","37831","0.0-1.0-3.0","9","Low_HMMActual","3721.130000000019","","{""Q0"":""5d80f95b43119f0015986eb1""}","","",""
"html-keyboard-response","5","112015","0.0-2.0-0.0","9","Low_HMMActual","74082.33499999995","","","","<div class=""container"" style=""height:800px;width:800px;display:flex;flex-direction:column;justify-content:center;align-items:center;text-align:center;font-weight:normal;font-family:Arial;font-size:20px""><p>In this task you will see black or white beads being pulled from jars. <br><br>On each trial, a bead will be pulled from one of two jars. Once you see this bead, your goal is to predict the color of NEXT bead that will be pulled. <br> <br>Every time you correctly guess the color of the NEXT bead, you will get a point. <br><br>Press the SPACEBAR to continue.</p><div>","32"
"html-keyboard-response","6","119096","0.0-2.0-1.0","9","Low_HMMActual","7079.664999999979","","","","<div class=""container"" style=""height:800px;width:800px;display:flex;flex-direction:column;justify-content:center;align-items:center;text-align:center;font-weight:normal;font-family:Arial;font-size:20px""><p>Jars are filled with 80% white or black beads and 20% of the opposite color mixed in.<br><br>Press the SPACEBAR to continue. </p><div>","32"
"image-keyboard-response","7","136000","0.0-2.0-2.0","9","Low_HMMActual","16903.405000000028","","","","resources/WhiteJar_HMM.png","32"
"image-keyboard-response","8","146226","0.0-2.0-3.0","9","Low_HMMActual","10225.320000000036","","","","resources/BlackJar_HMM.png","32"
"html-keyboard-response","9","152750","0.0-2.0-4.0","9","Low_HMMActual","6523.709999999963","","","","<div class=""container"" style=""height:800px;width:800px;display:flex;flex-direction:column;justify-content:center;align-items:center;text-align:center;font-weight:normal;font-family:Arial;font-size:20px""><p>There will be two blocks of trials. Each block will contain 500 trials. <br><br>Here are examples of what you will see on each trial.<br><br>Press the SPACEBAR to continue. </p><div>","32"
"image-keyboard-response","10","165720","0.0-2.0-5.0","9","Low_HMMActual","12969.23000000001","","","","Images/NoChoice.png","32"
"html-keyboard-response","11","188856","0.0-2.0-6.0","9","Low_HMMActual","23135.550000000105","","","","<div class=""container"" style=""height:800px;width:800px;display:flex;flex-direction:column;justify-content:center;align-items:center;text-align:center;font-weight:normal;font-family:Arial;font-size:20px""><p> The jar the beads are pulled from is NOT choosen at random on each trial.<br><br>After each prediction, there will be a chance that the jars will switch, and that the next bead will be pulled from the opposite jar as the previous trial.<br><br>In each block, the chance that a jar will switch will either be LOW (the jars will not switch very often), or HIGH (the jars will switch almost all the time).<br><br>At the start of each block, you will be told the probability that the jars will switch on each trial. This switch probability will stay constant throughout the block.<br><br>We will now show you some examples of beads being drawn from jars. The bead will appear in the middle of the screen, and the jar the bead was pulled from will be indicated with a black rectangle.<br><br>Press the SPACEBAR to continue. </p><div>","32"
"image-keyboard-response","12","197760","0.0-2.0-7.0","9","Low_HMMActual","8904.005000000005","","","","Images/TutorialWhiteJarDrawHMMC.png","32"
"image-keyboard-response","13","203976","0.0-2.0-8.0","9","Low_HMMActual","6215.02999999997","","","","Images/TutorialBlackJarDrawHMMC.png","32"
"image-keyboard-response","14","219236","0.0-2.0-9.0","9","Low_HMMActual","15259.610000000073","","","","Images/TutorialBlackJarDrawHMMI.png","32"
"html-keyboard-response","15","248685","0.0-2.0-10.0","9","Low_HMMActual","29448.110000000044","","","","<div class=""container"" style=""height:800px;width:800px;display:flex;flex-direction:column;justify-content:center;align-items:center;text-align:center;font-weight:normal;font-family:Arial;font-size:20px""><p> As you observed, a white bead was pulled from a 80% white jar, the jars switched and a black bead was pulled from the 80% black jar, but then a low-probability white bead was pulled from the 80% black jar. <br><br>Because the jars have a mix of white and black beads, the best strategy to predict the next bead is to first figure out which jar the current bead was pulled from, then use the jar switch probability to predict which jar will be drawn from next.<br><br>Press SPACEBAR to conitnue.</p><div>","32"
"html-keyboard-response","16","251231","0.0-2.0-11.0","9","Low_HMMActual","2546.4899999999616","","","","<div class=""container"" style=""height:800px;width:800px;display:flex;flex-direction:column;justify-content:center;align-items:center;text-align:center;font-weight:normal;font-family:Arial;font-size:20px""><p> You will now be given a 2 question quiz to make sure you understand the task. </p><div>","32"
"image-keyboard-response","17","261292","0.0-2.0-12.0","9","Low_HMMActual","10059.909999999916","","","","Images/TutorialQuestion1.png","39"
"image-keyboard-response","18","282018","0.0-2.0-13.0","9","Low_HMMActual","7381.869999999937","","","","Images/TutorialQuestion2.png","38"
"html-keyboard-response","19","312640","0.0-3.0","9","Low_HMMActual","28242.424999999872","","","","<div class=""container"" style=""height:800px;width:800px;display:flex;flex-direction:column;justify-content:center;align-items:center;text-align:center;font-weight:normal;font-family:Arial;font-size:20px""><p>Loading episode&hellip;</p><div>","32"
"image-keyboard-response","20","322160","0.0-4.0-0.0","9","Low_HMMActual","9518.674999999756","","","","Images/NoChoice.png","37"
"image-keyboard-response","21","322561","0.0-4.0-1.0","9","Low_HMMActual","null","","","","Images/BlackBeadChoice.png","null"
"image-keyboard-response","22","323263","0.0-4.0-2.0","9","Low_HMMActual","null","","","","Images/BlackBeadChoiceWrong.png","null"
"image-keyboard-response","23","370057","0.0-4.0-0.1","9","Low_HMMActual","46794.12000000005","","","","Images/NewTrialWC.png","39"
"image-keyboard-response","24","370460","0.0-4.0-1.1","9","Low_HMMActual","null","","","","Images/WhiteBeadChoice.png","null"
"image-keyboard-response","25","371161","0.0-4.0-2.1","9","Low_HMMActual","null","","","","Images/WhiteBeadChoiceWrong.png","null"
"image-keyboard-response","26","379144","0.0-4.0-0.2","9","Low_HMMActual","7982.215000000026","","","","Images/NewTrialBC.png","39"
"image-keyboard-response","27","379545","0.0-4.0-1.2","9","Low_HMMActual","null","","","","Images/WhiteBeadChoice.png","null"
"image-keyboard-response","28","380246","0.0-4.0-2.2","9","Low_HMMActual","null","","","","Images/WhiteBeadChoiceWrong.png","null"
"image-keyboard-response","29","381419","0.0-4.0-0.3","9","Low_HMMActual","1172.8499999999185","","","","Images/NewTrialBC.png","37"
"image-keyboard-response","30","381820","0.0-4.0-1.3","9","Low_HMMActual","null","","","","Images/BlackBeadChoice.png","null"
"image-keyboard-response","31","382521","0.0-4.0-2.3","9","Low_HMMActual","null","","","","Images/BlackBeadChoiceCorrect.png","null"
"image-keyboard-response","32","383358","0.0-4.0-0.4","9","Low_HMMActual","836.1450000001932","","","","Images/NewTrialBC.png","37"
"image-keyboard-response","33","383759","0.0-4.0-1.4","9","Low_HMMActual","null","","","","Images/BlackBeadChoice.png","null"
"image-keyboard-response","34","384461","0.0-4.0-2.4","9","Low_HMMActual","null","","","","Images/BlackBeadChoiceCorrect.png","null"
"image-keyboard-response","35","385193","0.0-4.0-0.5","9","Low_HMMActual","731.6149999999325","","","","Images/NewTrialBC.png","37"
"image-keyboard-response","36","385595","0.0-4.0-1.5","9","Low_HMMActual","null","","","","Images/BlackBeadChoice.png","null"
"image-keyboard-response","37","386296","0.0-4.0-2.5","9","Low_HMMActual","null","","","","Images/BlackBeadChoiceCorrect.png","null"
"image-keyboard-response","38","387321","0.0-4.0-0.6","9","Low_HMMActual","1024.8550000000978","","","","Images/NewTrialBC.png","37"
"image-keyboard-response","39","387722","0.0-4.0-1.6","9","Low_HMMActual","null","","","","Images/BlackBeadChoice.png","null"
"image-keyboard-response","40","388423","0.0-4.0-2.6","9","Low_HMMActual","null","","","","Images/BlackBeadChoiceCorrect.png","null"
"image-keyboard-response","41","388923","0.0-4.0-0.7","9","Low_HMMActual","499.55999999993946","","","","Images/NewTrialBC.png","37"
"image-keyboard-response","42","389325","0.0-4.0-1.7","9","Low_HMMActual","null","","","","Images/BlackBeadChoice.png","null"
"image-keyboard-response","43","390027","0.0-4.0-2.7","9","Low_HMMActual","null","","","","Images/BlackBeadChoiceWrong.png","null"
"image-keyboard-response","44","393819","0.0-4.0-0.8","9","Low_HMMActual","3791.4550000000163","","","","Images/NewTrialWC.png","37"
"image-keyboard-response","45","394220","0.0-4.0-1.8","9","Low_HMMActual","null","","","","Images/BlackBeadChoice.png","null"
"image-keyboard-response","46","394921","0.0-4.0-2.8","9","Low_HMMActual","null","","","","Images/BlackBeadChoiceCorrect.png","null"
"image-keyboard-response","47","395890","0.0-4.0-0.9","9","Low_HMMActual","968.3250000000116","","","","Images/NewTrialBC.png","37"
"image-keyboard-response","48","396292","0.0-4.0-1.9","9","Low_HMMActual","null","","","","Images/BlackBeadChoice.png","null"
"image-keyboard-response","49","396993","0.0-4.0-2.9","9","Low_HMMActual","null","","","","Images/BlackBeadChoiceCorrect.png","null"
"image-keyboard-response","50","397360","0.0-4.0-0.10","9","Low_HMMActual","366.5400000002119","","","","Images/NewTrialBC.png","37"
"image-keyboard-response","51","397762","0.0-4.0-1.10","9","Low_HMMActual","null","","","","Images/BlackBeadChoice.png","null"
"image-keyboard-response","52","398463","0.0-4.0-2.10","9","Low_HMMActual","null","","","","Images/BlackBeadChoiceCorrect.png","null"
"image-keyboard-response","53","399355","0.0-4.0-0.11","9","Low_HMMActual","891.5750000001281","","","","Images/NewTrialBC.png","37"
"image-keyboard-response","54","399756","0.0-4.0-1.11","9","Low_HMMActual","null","","","","Images/BlackBeadChoice.png","null"
"image-keyboard-response","55","400458","0.0-4.0-2.11","9","Low_HMMActual","null","","","","Images/BlackBeadChoiceCorrect.png","null"
"image-keyboard-response","56","400994","0.0-4.0-0.12","9","Low_HMMActual","535.6949999997742","","","","Images/NewTrialBC.png","37"
"image-keyboard-response","57","401397","0.0-4.0-1.12","9","Low_HMMActual","null","","","","Images/BlackBeadChoice.png","null"
"image-keyboard-response","58","402098","0.0-4.0-2.12","9","Low_HMMActual","null","","","","Images/BlackBeadChoiceCorrect.png","null"
"image-keyboard-response","59","402516","0.0-4.0-0.13","9","Low_HMMActual","418.0249999999651","","","","Images/NewTrialBC.png","37"
"image-keyboard-response","60","402918","0.0-4.0-1.13","9","Low_HMMActual","null","","","","Images/BlackBeadChoice.png","null"
"image-keyboard-response","61","403620","0.0-4.0-2.13","9","Low_HMMActual","null","","","","Images/BlackBeadChoiceCorrect.png","null"
"image-keyboard-response","62","404004","0.0-4.0-0.14","9","Low_HMMActual","383.7349999998696","","","","Images/NewTrialBC.png","37"
"image-keyboard-response","63","404405","0.0-4.0-1.14","9","Low_HMMActual","null","","","","Images/BlackBeadChoice.png","null"
"image-keyboard-response","64","405107","0.0-4.0-2.14","9","Low_HMMActual","null","","","","Images/BlackBeadChoiceCorrect.png","null"
"image-keyboard-response","65","405494","0.0-4.0-0.15","9","Low_HMMActual","387.2599999999511","","","","Images/NewTrialBC.png","37"
"image-keyboard-response","66","405895","0.0-4.0-1.15","9","Low_HMMActual","null","","","","Images/BlackBeadChoice.png","null"
"image-keyboard-response","67","406597","0.0-4.0-2.15","9","Low_HMMActual","null","","","","Images/BlackBeadChoiceCorrect.png","null"
"image-keyboard-response","68","406876","0.0-4.0-0.16","9","Low_HMMActual","278.34499999997206","","","","Images/NewTrialBC.png","37"
"image-keyboard-response","69","407278","0.0-4.0-1.16","9","Low_HMMActual","null","","","","Images/BlackBeadChoice.png","null"
"image-keyboard-response","70","407979","0.0-4.0-2.16","9","Low_HMMActual","null","","","","Images/BlackBeadChoiceCorrect.png","null"
"image-keyboard-response","71","408198","0.0-4.0-0.17","9","Low_HMMActual","219.22500000003492","","","","Images/NewTrialBC.png","37"
"image-keyboard-response","72","408600","0.0-4.0-1.17","9","Low_HMMActual","null","","","","Images/BlackBeadChoice.png","null"
"image-keyboard-response","73","409301","0.0-4.0-2.17","9","Low_HMMActual","null","","","","Images/BlackBeadChoiceCorrect.png","null"
"image-keyboard-response","74","409613","0.0-4.0-0.18","9","Low_HMMActual","312.0250000001979","","","","Images/NewTrialBC.png","37"
"image-keyboard-response","75","410014","0.0-4.0-1.18","9","Low_HMMActual","null","","","","Images/BlackBeadChoice.png","null"
"image-keyboard-response","76","410715","0.0-4.0-2.18","9","Low_HMMActual","null","","","","Images/BlackBeadChoiceCorrect.png","null"
"image-keyboard-response","77","411071","0.0-4.0-0.19","9","Low_HMMActual","355.58500000002095","","","","Images/NewTrialBC.png","37"
"image-keyboard-response","78","411473","0.0-4.0-1.19","9","Low_HMMActual","null","","","","Images/BlackBeadChoice.png","null"
"image-keyboard-response","79","412174","0.0-4.0-2.19","9","Low_HMMActual","null","","","","Images/BlackBeadChoiceCorrect.png","null"
"image-keyboard-response","80","412990","0.0-4.0-0.20","9","Low_HMMActual","816.164999999979","","","","Images/NewTrialBC.png","37"
"image-keyboard-response","81","413392","0.0-4.0-1.20","9","Low_HMMActual","null","","","","Images/BlackBeadChoice.png","null"
"image-keyboard-response","82","414093","0.0-4.0-2.20","9","Low_HMMActual","null","","","","Images/BlackBeadChoiceCorrect.png","null"
"image-keyboard-response","83","414549","0.0-4.0-0.21","9","Low_HMMActual","454.8999999999651","","","","Images/NewTrialBC.png","37"
"image-keyboard-response","84","414950","0.0-4.0-1.21","9","Low_HMMActual","null","","","","Images/BlackBeadChoice.png","null"
"image-keyboard-response","85","415651","0.0-4.0-2.21","9","Low_HMMActual","null","","","","Images/BlackBeadChoiceCorrect.png","null"
"image-keyboard-response","86","416174","0.0-4.0-0.22","9","Low_HMMActual","522.2099999998463","","","","Images/NewTrialBC.png","37"
"image-keyboard-response","87","416575","0.0-4.0-1.22","9","Low_HMMActual","null","","","","Images/BlackBeadChoice.png","null"
"image-keyboard-response","88","417277","0.0-4.0-2.22","9","Low_HMMActual","null","","","","Images/BlackBeadChoiceCorrect.png","null"
"image-keyboard-response","89","417548","0.0-4.0-0.23","9","Low_HMMActual","271.0549999999348","","","","Images/NewTrialBC.png","37"
"image-keyboard-response","90","417950","0.0-4.0-1.23","9","Low_HMMActual","null","","","","Images/BlackBeadChoice.png","null"
"image-keyboard-response","91","418651","0.0-4.0-2.23","9","Low_HMMActual","null","","","","Images/BlackBeadChoiceCorrect.png","null"
"image-keyboard-response","92","418902","0.0-4.0-0.24","9","Low_HMMActual","250.81500000006054","","","","Images/NewTrialBC.png","37"
"image-keyboard-response","93","419303","0.0-4.0-1.24","9","Low_HMMActual","null","","","","Images/BlackBeadChoice.png","null"
"image-keyboard-response","94","420005","0.0-4.0-2.24","9","Low_HMMActual","null","","","","Images/BlackBeadChoiceCorrect.png","null"
"image-keyboard-response","95","420264","0.0-4.0-0.25","9","Low_HMMActual","259.339999999851","","","","Images/NewTrialBC.png","37"
"image-keyboard-response","96","420666","0.0-4.0-1.25","9","Low_HMMActual","null","","","","Images/BlackBeadChoice.png","null"
"image-keyboard-response","97","421367","0.0-4.0-2.25","9","Low_HMMActual","null","","","","Images/BlackBeadChoiceWrong.png","null"
"image-keyboard-response","98","421935","0.0-4.0-0.26","9","Low_HMMActual","568.1849999998813","","","","Images/NewTrialWC.png","37"
"image-keyboard-response","99","422336","0.0-4.0-1.26","9","Low_HMMActual","null","","","","Images/BlackBeadChoice.png","null"
"image-keyboard-response","100","423037","0.0-4.0-2.26","9","Low_HMMActual","null","","","","Images/BlackBeadChoiceWrong.png","null"
"image-keyboard-response","101","424034","0.0-4.0-0.27","9","Low_HMMActual","996.5350000000326","","","","Images/NewTrialWC.png","39"
"image-keyboard-response","102","424435","0.0-4.0-1.27","9","Low_HMMActual","null","","","","Images/WhiteBeadChoice.png","null"
"image-keyboard-response","103","425137","0.0-4.0-2.27","9","Low_HMMActual","null","","","","Images/WhiteBeadChoiceCorrect.png","null"
"image-keyboard-response","104","426187","0.0-4.0-0.28","9","Low_HMMActual","1049.0349999999744","","","","Images/NewTrialWC.png","39"
"image-keyboard-response","105","426587","0.0-4.0-1.28","9","Low_HMMActual","null","","","","Images/WhiteBeadChoice.png","null"
"image-keyboard-response","106","427288","0.0-4.0-2.28","9","Low_HMMActual","null","","","","Images/WhiteBeadChoiceWrong.png","null"
"image-keyboard-response","107","428185","0.0-4.0-0.29","9","Low_HMMActual","896.4450000001234","","","","Images/NewTrialBC.png","39"
"image-keyboard-response","108","428587","0.0-4.0-1.29","9","Low_HMMActual","null","","","","Images/WhiteBeadChoice.png","null"
"image-keyboard-response","109","429289","0.0-4.0-2.29","9","Low_HMMActual","null","","","","Images/WhiteBeadChoiceWrong.png","null"
"image-keyboard-response","110","430741","0.0-4.0-0.30","9","Low_HMMActual","1451.9899999999907","","","","Images/NewTrialBC.png","37"
"image-keyboard-response","111","431143","0.0-4.0-1.30","9","Low_HMMActual","null","","","","Images/BlackBeadChoice.png","null"
"image-keyboard-response","112","431844","0.0-4.0-2.30","9","Low_HMMActual","null","","","","Images/BlackBeadChoiceCorrect.png","null"
"image-keyboard-response","113","432099","0.0-4.0-0.31","9","Low_HMMActual","254.7300000000978","","","","Images/NewTrialBC.png","37"
"image-keyboard-response","114","432501","0.0-4.0-1.31","9","Low_HMMActual","null","","","","Images/BlackBeadChoice.png","null"
"image-keyboard-response","115","433202","0.0-4.0-2.31","9","Low_HMMActual","null","","","","Images/BlackBeadChoiceWrong.png","null"
"image-keyboard-response","116","435276","0.0-4.0-0.32","9","Low_HMMActual","2073.4250000000466","","","","Images/NewTrialWC.png","37"
"image-keyboard-response","117","435677","0.0-4.0-1.32","9","Low_HMMActual","null","","","","Images/BlackBeadChoice.png","null"
"image-keyboard-response","118","436379","0.0-4.0-2.32","9","Low_HMMActual","null","","","","Images/BlackBeadChoiceWrong.png","null"
"image-keyboard-response","119","436904","0.0-4.0-0.33","9","Low_HMMActual","524.445000000007","","","","Images/NewTrialWC.png","39"
"image-keyboard-response","120","437305","0.0-4.0-1.33","9","Low_HMMActual","null","","","","Images/WhiteBeadChoice.png","null"
"image-keyboard-response","121","438008","0.0-4.0-2.33","9","Low_HMMActual","null","","","","Images/WhiteBeadChoiceWrong.png","null"
"image-keyboard-response","122","439318","0.0-4.0-0.34","9","Low_HMMActual","1309.7999999999884","","","","Images/NewTrialBC.png","37"
"image-keyboard-response","123","439719","0.0-4.0-1.34","9","Low_HMMActual","null","","","","Images/BlackBeadChoice.png","null"
"image-keyboard-response","124","440420","0.0-4.0-2.34","9","Low_HMMActual","null","","","","Images/BlackBeadChoiceWrong.png","null"
"image-keyboard-response","125","441286","0.0-4.0-0.35","9","Low_HMMActual","864.5899999999092","","","","Images/NewTrialWC.png","39"
"image-keyboard-response","126","441687","0.0-4.0-1.35","9","Low_HMMActual","null","","","","Images/WhiteBeadChoice.png","null"
"image-keyboard-response","127","442389","0.0-4.0-2.35","9","Low_HMMActual","null","","","","Images/WhiteBeadChoiceCorrect.png","null"
"image-keyboard-response","128","443413","0.0-4.0-0.36","9","Low_HMMActual","1023.1800000001676","","","","Images/NewTrialWC.png","37"
"image-keyboard-response","129","443814","0.0-4.0-1.36","9","Low_HMMActual","null","","","","Images/BlackBeadChoice.png","null"
"image-keyboard-response","130","444515","0.0-4.0-2.36","9","Low_HMMActual","null","","","","Images/BlackBeadChoiceWrong.png","null"
"image-keyboard-response","131","445159","0.0-4.0-0.37","9","Low_HMMActual","643.9800000000396","","","","Images/NewTrialWC.png","39"
"image-keyboard-response","132","445560","0.0-4.0-1.37","9","Low_HMMActual","null","","","","Images/WhiteBeadChoice.png","null"
"image-keyboard-response","133","446262","0.0-4.0-2.37","9","Low_HMMActual","null","","","","Images/WhiteBeadChoiceWrong.png","null"
"image-keyboard-response","134","449686","0.0-4.0-0.38","9","Low_HMMActual","3423.590000000142","","","","Images/NewTrialBC.png","37"
"image-keyboard-response","135","450088","0.0-4.0-1.38","9","Low_HMMActual","null","","","","Images/BlackBeadChoice.png","null"
"image-keyboard-response","136","450789","0.0-4.0-2.38","9","Low_HMMActual","null","","","","Images/BlackBeadChoiceWrong.png","null"
"image-keyboard-response","137","453711","0.0-4.0-0.39","9","Low_HMMActual","2921.710000000079","","","","Images/NewTrialWC.png","39"
"image-keyboard-response","138","454113","0.0-4.0-1.39","9","Low_HMMActual","null","","","","Images/WhiteBeadChoice.png","null"
"image-keyboard-response","139","454814","0.0-4.0-2.39","9","Low_HMMActual","null","","","","Images/WhiteBeadChoiceCorrect.png","null"
"image-keyboard-response","140","455105","0.0-4.0-0.40","9","Low_HMMActual","290.3750000000582","","","","Images/NewTrialWC.png","39"
"image-keyboard-response","141","455506","0.0-4.0-1.40","9","Low_HMMActual","null","","","","Images/WhiteBeadChoice.png","null"
"image-keyboard-response","142","456207","0.0-4.0-2.40","9","Low_HMMActual","null","","","","Images/WhiteBeadChoiceCorrect.png","null"
"image-keyboard-response","143","456431","0.0-4.0-0.41","9","Low_HMMActual","223.95499999989988","","","","Images/NewTrialWC.png","39"
"image-keyboard-response","144","456833","0.0-4.0-1.41","9","Low_HMMActual","null","","","","Images/WhiteBeadChoice.png","null"
"image-keyboard-response","145","457535","0.0-4.0-2.41","9","Low_HMMActual","null","","","","Images/WhiteBeadChoiceCorrect.png","null"
"image-keyboard-response","146","457794","0.0-4.0-0.42","9","Low_HMMActual","258.7050000000163","","","","Images/NewTrialWC.png","39"
"image-keyboard-response","147","458195","0.0-4.0-1.42","9","Low_HMMActual","null","","","","Images/WhiteBeadChoice.png","null"
"image-keyboard-response","148","458896","0.0-4.0-2.42","9","Low_HMMActual","null","","","","Images/WhiteBeadChoiceCorrect.png","null"
"image-keyboard-response","149","459061","0.0-4.0-0.43","9","Low_HMMActual","163.81999999994878","","","","Images/NewTrialWC.png","39"
"image-keyboard-response","150","459462","0.0-4.0-1.43","9","Low_HMMActual","null","","","","Images/WhiteBeadChoice.png","null"
"image-keyboard-response","151","460164","0.0-4.0-2.43","9","Low_HMMActual","null","","","","Images/WhiteBeadChoiceCorrect.png","null"
"image-keyboard-response","152","460250","0.0-4.0-0.44","9","Low_HMMActual","85.26499999995576","","","","Images/NewTrialWC.png","39"
"image-keyboard-response","153","460651","0.0-4.0-1.44","9","Low_HMMActual","null","","","","Images/WhiteBeadChoice.png","null"
"image-keyboard-response","154","461353","0.0-4.0-2.44","9","Low_HMMActual","null","","","","Images/WhiteBeadChoiceCorrect.png","null"
"image-keyboard-response","155","461567","0.0-4.0-0.45","9","Low_HMMActual","214.1349999999511","","","","Images/NewTrialWC.png","39"
"image-keyboard-response","156","461968","0.0-4.0-1.45","9","Low_HMMActual","null","","","","Images/WhiteBeadChoice.png","null"
"image-keyboard-response","157","462670","0.0-4.0-2.45","9","Low_HMMActual","null","","","","Images/WhiteBeadChoiceCorrect.png","null"
"image-keyboard-response","158","476839","0.0-4.0-0.46","9","Low_HMMActual","14167.015000000014","","","","Images/NewTrialWC.png","39"
"image-keyboard-response","159","477240","0.0-4.0-1.46","9","Low_HMMActual","null","","","","Images/WhiteBeadChoice.png","null"
"image-keyboard-response","160","477942","0.0-4.0-2.46","9","Low_HMMActual","null","","","","Images/WhiteBeadChoiceWrong.png","null"
"image-keyboard-response","161","479483","0.0-4.0-0.47","9","Low_HMMActual","1540.2700000001932","","","","Images/NewTrialBC.png","39"
"image-keyboard-response","162","479883","0.0-4.0-1.47","9","Low_HMMActual","null","","","","Images/WhiteBeadChoice.png","null"
"image-keyboard-response","163","480585","0.0-4.0-2.47","9","Low_HMMActual","null","","","","Images/WhiteBeadChoiceCorrect.png","null"
"image-keyboard-response","164","480848","0.0-4.0-0.48","9","Low_HMMActual","262.5450000000419","","","","Images/NewTrialWC.png","39"
"image-keyboard-response","165","481249","0.0-4.0-1.48","9","Low_HMMActual","null","","","","Images/WhiteBeadChoice.png","null"
"image-keyboard-response","166","481951","0.0-4.0-2.48","9","Low_HMMActual","null","","","","Images/WhiteBeadChoiceCorrect.png","null"
"image-keyboard-response","167","482170","0.0-4.0-0.49","9","Low_HMMActual","219.24499999999534","","","","Images/NewTrialWC.png","39"
"image-keyboard-response","168","482571","0.0-4.0-1.49","9","Low_HMMActual","null","","","","Images/WhiteBeadChoice.png","null"
"image-keyboard-response","169","483273","0.0-4.0-2.49","9","Low_HMMActual","null","","","","Images/WhiteBeadChoiceCorrect.png","null"
"image-keyboard-response","170","483384","0.0-4.0-0.50","9","Low_HMMActual","111.27499999996508","","","","Images/NewTrialWC.png","39"
"image-keyboard-response","171","483785","0.0-4.0-1.50","9","Low_HMMActual","null","","","","Images/WhiteBeadChoice.png","null"
"image-keyboard-response","172","484487","0.0-4.0-2.50","9","Low_HMMActual","null","","","","Images/WhiteBeadChoiceCorrect.png","null"
"image-keyboard-response","173","484882","0.0-4.0-0.51","9","Low_HMMActual","394.6949999999488","","","","Images/NewTrialWC.png","39"
"image-keyboard-response","174","485284","0.0-4.0-1.51","9","Low_HMMActual","null","","","","Images/WhiteBeadChoice.png","null"
"image-keyboard-response","175","485984","0.0-4.0-2.51","9","Low_HMMActual","648.2949999999255","","","","Images/WhiteBeadChoiceCorrect.png","39"
"image-keyboard-response","176","486308","0.0-4.0-0.52","9","Low_HMMActual","323.4099999999744","","","","Images/NewTrialWC.png","39"
"image-keyboard-response","177","486710","0.0-4.0-1.52","9","Low_HMMActual","null","","","","Images/WhiteBeadChoice.png","null"
"image-keyboard-response","178","487411","0.0-4.0-2.52","9","Low_HMMActual","null","","","","Images/WhiteBeadChoiceWrong.png","null"
"image-keyboard-response","179","505289","0.0-4.0-0.53","9","Low_HMMActual","17876.96000000008","","","","Images/NewTrialBC.png","39"
"image-keyboard-response","180","505690","0.0-4.0-1.53","9","Low_HMMActual","null","","","","Images/WhiteBeadChoice.png","null"
"image-keyboard-response","181","506391","0.0-4.0-2.53","9","Low_HMMActual","null","","","","Images/WhiteBeadChoiceCorrect.png","null"
"image-keyboard-response","182","506658","0.0-4.0-0.54","9","Low_HMMActual","266.70999999984633","","","","Images/NewTrialWC.png","39"
"image-keyboard-response","183","507059","0.0-4.0-1.54","9","Low_HMMActual","null","","","","Images/WhiteBeadChoice.png","null"
"image-keyboard-response","184","507761","0.0-4.0-2.54","9","Low_HMMActual","null","","","","Images/WhiteBeadChoiceCorrect.png","null"
"image-keyboard-response","185","508136","0.0-4.0-0.55","9","Low_HMMActual","374.6449999999022","","","","Images/NewTrialWC.png","39"
"image-keyboard-response","186","508537","0.0-4.0-1.55","9","Low_HMMActual","null","","","","Images/WhiteBeadChoice.png","null"
"image-keyboard-response","187","509238","0.0-4.0-2.55","9","Low_HMMActual","null","","","","Images/WhiteBeadChoiceCorrect.png","null"
"image-keyboard-response","188","509582","0.0-4.0-0.56","9","Low_HMMActual","343.6449999999022","","","","Images/NewTrialWC.png","39"
"image-keyboard-response","189","509983","0.0-4.0-1.56","9","Low_HMMActual","null","","","","Images/WhiteBeadChoice.png","null"
"image-keyboard-response","190","510684","0.0-4.0-2.56","9","Low_HMMActual","null","","","","Images/WhiteBeadChoiceWrong.png","null"
"image-keyboard-response","191","511341","0.0-4.0-0.57","9","Low_HMMActual","656.4749999999767","","","","Images/NewTrialBC.png","39"
"image-keyboard-response","192","511742","0.0-4.0-1.57","9","Low_HMMActual","null","","","","Images/WhiteBeadChoice.png","null"
"image-keyboard-response","193","512444","0.0-4.0-2.57","9","Low_HMMActual","null","","","","Images/WhiteBeadChoiceWrong.png","null"
"image-keyboard-response","194","512899","0.0-4.0-0.58","9","Low_HMMActual","454.7950000001001","","","","Images/NewTrialBC.png","37"
"image-keyboard-response","195","513301","0.0-4.0-1.58","9","Low_HMMActual","null","","","","Images/BlackBeadChoice.png","null"
"image-keyboard-response","196","514002","0.0-4.0-2.58","9","Low_HMMActual","null","","","","Images/BlackBeadChoiceCorrect.png","null"
"image-keyboard-response","197","514177","0.0-4.0-0.59","9","Low_HMMActual","174.7599999998929","","","","Images/NewTrialBC.png","37"
"image-keyboard-response","198","514578","0.0-4.0-1.59","9","Low_HMMActual","null","","","","Images/BlackBeadChoice.png","null"
"image-keyboard-response","199","515279","0.0-4.0-2.59","9","Low_HMMActual","null","","","","Images/BlackBeadChoiceWrong.png","null"
"image-keyboard-response","200","515825","0.0-4.0-0.60","9","Low_HMMActual","544.7399999998161","","","","Images/NewTrialWC.png","37"
"image-keyboard-response","201","516226","0.0-4.0-1.60","9","Low_HMMActual","null","","","","Images/BlackBeadChoice.png","null"
"image-keyboard-response","202","516927","0.0-4.0-2.60","9","Low_HMMActual","null","","","","Images/BlackBeadChoiceCorrect.png","null"
"image-keyboard-response","203","517126","0.0-4.0-0.61","9","Low_HMMActual","198.29999999998836","","","","Images/NewTrialBC.png","37"
"image-keyboard-response","204","517528","0.0-4.0-1.61","9","Low_HMMActual","null","","","","Images/BlackBeadChoice.png","null"
"image-keyboard-response","205","518230","0.0-4.0-2.61","9","Low_HMMActual","null","","","","Images/BlackBeadChoiceWrong.png","null"
"image-keyboard-response","206","518560","0.0-4.0-0.62","9","Low_HMMActual","330.3099999999977","","","","Images/NewTrialWC.png","37"
"image-keyboard-response","207","518962","0.0-4.0-1.62","9","Low_HMMActual","null","","","","Images/BlackBeadChoice.png","null"
"image-keyboard-response","208","519664","0.0-4.0-2.62","9","Low_HMMActual","null","","","","Images/BlackBeadChoiceCorrect.png","null"
"image-keyboard-response","209","519978","0.0-4.0-0.63","9","Low_HMMActual","313.4900000000489","","","","Images/NewTrialBC.png","37"
"image-keyboard-response","210","520379","0.0-4.0-1.63","9","Low_HMMActual","null","","","","Images/BlackBeadChoice.png","null"
"image-keyboard-response","211","521080","0.0-4.0-2.63","9","Low_HMMActual","null","","","","Images/BlackBeadChoiceWrong.png","null"
"image-keyboard-response","212","521320","0.0-4.0-0.64","9","Low_HMMActual","239.54500000015832","","","","Images/NewTrialWC.png","37"
"image-keyboard-response","213","521722","0.0-4.0-1.64","9","Low_HMMActual","null","","","","Images/BlackBeadChoice.png","null"
"image-keyboard-response","214","522423","0.0-4.0-2.64","9","Low_HMMActual","null","","","","Images/BlackBeadChoiceCorrect.png","null"
"image-keyboard-response","215","523107","0.0-4.0-0.65","9","Low_HMMActual","683.4949999999953","","","","Images/NewTrialBC.png","37"
"image-keyboard-response","216","523509","0.0-4.0-1.65","9","Low_HMMActual","null","","","","Images/BlackBeadChoice.png","null"
"image-keyboard-response","217","524211","0.0-4.0-2.65","9","Low_HMMActual","null","","","","Images/BlackBeadChoiceWrong.png","null"
"image-keyboard-response","218","525378","0.0-4.0-0.66","9","Low_HMMActual","1166.9150000000373","","","","Images/NewTrialWC.png","37"
"image-keyboard-response","219","525779","0.0-4.0-1.66","9","Low_HMMActual","null","","","","Images/BlackBeadChoice.png","null"
"image-keyboard-response","220","526481","0.0-4.0-2.66","9","Low_HMMActual","null","","","","Images/BlackBeadChoiceWrong.png","null"
"image-keyboard-response","221","527274","0.0-4.0-0.67","9","Low_HMMActual","792.5750000001863","","","","Images/NewTrialWC.png","39"
"image-keyboard-response","222","527674","0.0-4.0-1.67","9","Low_HMMActual","null","","","","Images/WhiteBeadChoice.png","null"
"image-keyboard-response","223","528375","0.0-4.0-2.67","9","Low_HMMActual","null","","","","Images/WhiteBeadChoiceWrong.png","null"
"image-keyboard-response","224","529640","0.0-4.0-0.68","9","Low_HMMActual","1264.4049999999115","","","","Images/NewTrialBC.png","39"
"image-keyboard-response","225","530041","0.0-4.0-1.68","9","Low_HMMActual","null","","","","Images/WhiteBeadChoice.png","null"
"image-keyboard-response","226","530742","0.0-4.0-2.68","9","Low_HMMActual","null","","","","Images/WhiteBeadChoiceWrong.png","null"
"image-keyboard-response","227","531298","0.0-4.0-0.69","9","Low_HMMActual","555.5050000000047","","","","Images/NewTrialBC.png","37"
"image-keyboard-response","228","531701","0.0-4.0-1.69","9","Low_HMMActual","null","","","","Images/BlackBeadChoice.png","null"
"image-keyboard-response","229","532403","0.0-4.0-2.69","9","Low_HMMActual","null","","","","Images/BlackBeadChoiceWrong.png","null"
"image-keyboard-response","230","533493","0.0-4.0-0.70","9","Low_HMMActual","1089.5649999999441","","","","Images/NewTrialWC.png","37"
"image-keyboard-response","231","533895","0.0-4.0-1.70","9","Low_HMMActual","null","","","","Images/BlackBeadChoice.png","null"
"image-keyboard-response","232","534596","0.0-4.0-2.70","9","Low_HMMActual","null","","","","Images/BlackBeadChoiceWrong.png","null"
"image-keyboard-response","233","535368","0.0-4.0-0.71","9","Low_HMMActual","771.2999999998137","","","","Images/NewTrialWC.png","39"
"image-keyboard-response","234","535769","0.0-4.0-1.71","9","Low_HMMActual","null","","","","Images/WhiteBeadChoice.png","null"
"image-keyboard-response","235","536471","0.0-4.0-2.71","9","Low_HMMActual","null","","","","Images/WhiteBeadChoiceCorrect.png","null"
"image-keyboard-response","236","536546","0.0-4.0-0.72","9","Low_HMMActual","74.7599999998929","","","","Images/NewTrialWC.png","39"
"image-keyboard-response","237","536948","0.0-4.0-1.72","9","Low_HMMActual","null","","","","Images/WhiteBeadChoice.png","null"
"image-keyboard-response","238","537650","0.0-4.0-2.72","9","Low_HMMActual","null","","","","Images/WhiteBeadChoiceWrong.png","null"
"image-keyboard-response","239","538310","0.0-4.0-0.73","9","Low_HMMActual","658.8300000000745","","","","Images/NewTrialBC.png","39"
"image-keyboard-response","240","538711","0.0-4.0-1.73","9","Low_HMMActual","null","","","","Images/WhiteBeadChoice.png","null"
"image-keyboard-response","241","539413","0.0-4.0-2.73","9","Low_HMMActual","null","","","","Images/WhiteBeadChoiceCorrect.png","null"
"image-keyboard-response","242","539595","0.0-4.0-0.74","9","Low_HMMActual","181.93999999994412","","","","Images/NewTrialWC.png","39"
"image-keyboard-response","243","539996","0.0-4.0-1.74","9","Low_HMMActual","null","","","","Images/WhiteBeadChoice.png","null"
"image-keyboard-response","244","540697","0.0-4.0-2.74","9","Low_HMMActual","null","","","","Images/WhiteBeadChoiceCorrect.png","null"
"image-keyboard-response","245","540821","0.0-4.0-0.75","9","Low_HMMActual","123.54999999993015","","","","Images/NewTrialWC.png","39"
"image-keyboard-response","246","541222","0.0-4.0-1.75","9","Low_HMMActual","null","","","","Images/WhiteBeadChoice.png","null"
"image-keyboard-response","247","541923","0.0-4.0-2.75","9","Low_HMMActual","null","","","","Images/WhiteBeadChoiceCorrect.png","null"
"image-keyboard-response","248","542203","0.0-4.0-0.76","9","Low_HMMActual","279.80999999993946","","","","Images/NewTrialWC.png","39"
"image-keyboard-response","249","542605","0.0-4.0-1.76","9","Low_HMMActual","null","","","","Images/WhiteBeadChoice.png","null"
"image-keyboard-response","250","543305","0.0-4.0-2.76","9","Low_HMMActual","null","","","","Images/WhiteBeadChoiceCorrect.png","null"
"image-keyboard-response","251","543569","0.0-4.0-0.77","9","Low_HMMActual","263.2349999998696","","","","Images/NewTrialWC.png","39"
"image-keyboard-response","252","543971","0.0-4.0-1.77","9","Low_HMMActual","null","","","","Images/WhiteBeadChoice.png","null"
"image-keyboard-response","253","544672","0.0-4.0-2.77","9","Low_HMMActual","null","","","","Images/WhiteBeadChoiceWrong.png","null"
"image-keyboard-response","254","547194","0.0-4.0-0.78","9","Low_HMMActual","2521.7600000001257","","","","Images/NewTrialBC.png","39"
"image-keyboard-response","255","547595","0.0-4.0-1.78","9","Low_HMMActual","null","","","","Images/WhiteBeadChoice.png","null"
"image-keyboard-response","256","548298","0.0-4.0-2.78","9","Low_HMMActual","null","","","","Images/WhiteBeadChoiceCorrect.png","null"
"image-keyboard-response","257","548617","0.0-4.0-0.79","9","Low_HMMActual","318.4749999999767","","","","Images/NewTrialWC.png","39"
"image-keyboard-response","258","549018","0.0-4.0-1.79","9","Low_HMMActual","null","","","","Images/WhiteBeadChoice.png","null"
"image-keyboard-response","259","549721","0.0-4.0-2.79","9","Low_HMMActual","null","","","","Images/WhiteBeadChoiceCorrect.png","null"
"image-keyboard-response","260","550018","0.0-4.0-0.80","9","Low_HMMActual","297.23499999998603","","","","Images/NewTrialWC.png","39"
"image-keyboard-response","261","550419","0.0-4.0-1.80","9","Low_HMMActual","null","","","","Images/WhiteBeadChoice.png","null"
"image-keyboard-response","262","551121","0.0-4.0-2.80","9","Low_HMMActual","null","","","","Images/WhiteBeadChoiceWrong.png","null"
"image-keyboard-response","263","551624","0.0-4.0-0.81","9","Low_HMMActual","502.9300000000512","","","","Images/NewTrialBC.png","39"
"image-keyboard-response","264","552026","0.0-4.0-1.81","9","Low_HMMActual","null","","","","Images/WhiteBeadChoice.png","null"
"image-keyboard-response","265","552727","0.0-4.0-2.81","9","Low_HMMActual","null","","","","Images/WhiteBeadChoiceCorrect.png","null"
"image-keyboard-response","266","552966","0.0-4.0-0.82","9","Low_HMMActual","238.18000000005122","","","","Images/NewTrialWC.png","39"
"image-keyboard-response","267","553367","0.0-4.0-1.82","9","Low_HMMActual","null","","","","Images/WhiteBeadChoice.png","null"
"image-keyboard-response","268","554069","0.0-4.0-2.82","9","Low_HMMActual","null","","","","Images/WhiteBeadChoiceCorrect.png","null"
"image-keyboard-response","269","554184","0.0-4.0-0.83","9","Low_HMMActual","114.9649999999674","","","","Images/NewTrialWC.png","39"
"image-keyboard-response","270","554586","0.0-4.0-1.83","9","Low_HMMActual","null","","","","Images/WhiteBeadChoice.png","null"
"image-keyboard-response","271","555287","0.0-4.0-2.83","9","Low_HMMActual","null","","","","Images/WhiteBeadChoiceCorrect.png","null"
"image-keyboard-response","272","555422","0.0-4.0-0.84","9","Low_HMMActual","134.66500000003725","","","","Images/NewTrialWC.png","39"
"image-keyboard-response","273","555823","0.0-4.0-1.84","9","Low_HMMActual","null","","","","Images/WhiteBeadChoice.png","null"
"image-keyboard-response","274","556525","0.0-4.0-2.84","9","Low_HMMActual","null","","","","Images/WhiteBeadChoiceWrong.png","null"
"image-keyboard-response","275","557553","0.0-4.0-0.85","9","Low_HMMActual","1027.5600000000559","","","","Images/NewTrialBC.png","39"
"image-keyboard-response","276","557954","0.0-4.0-1.85","9","Low_HMMActual","null","","","","Images/WhiteBeadChoice.png","null"
"image-keyboard-response","277","558655","0.0-4.0-2.85","9","Low_HMMActual","null","","","","Images/WhiteBeadChoiceCorrect.png","null"
"image-keyboard-response","278","559119","0.0-4.0-0.86","9","Low_HMMActual","464.12000000011176","","","","Images/NewTrialWC.png","39"
"image-keyboard-response","279","559521","0.0-4.0-1.86","9","Low_HMMActual","null","","","","Images/WhiteBeadChoice.png","null"
"image-keyboard-response","280","560222","0.0-4.0-2.86","9","Low_HMMActual","null","","","","Images/WhiteBeadChoiceCorrect.png","null"
"image-keyboard-response","281","562267","0.0-4.0-0.87","9","Low_HMMActual","2044.1949999999488","","","","Images/NewTrialWC.png","39"
"image-keyboard-response","282","562668","0.0-4.0-1.87","9","Low_HMMActual","null","","","","Images/WhiteBeadChoice.png","null"
"image-keyboard-response","283","563371","0.0-4.0-2.87","9","Low_HMMActual","null","","","","Images/WhiteBeadChoiceCorrect.png","null"
"image-keyboard-response","284","564822","0.0-4.0-0.88","9","Low_HMMActual","1451","","","","Images/NewTrialWC.png","39"
"image-keyboard-response","285","565223","0.0-4.0-1.88","9","Low_HMMActual","null","","","","Images/WhiteBeadChoice.png","null"
"image-keyboard-response","286","565924","0.0-4.0-2.88","9","Low_HMMActual","null","","","","Images/WhiteBeadChoiceCorrect.png","null"
"image-keyboard-response","287","566558","0.0-4.0-0.89","9","Low_HMMActual","632.7899999999208","","","","Images/NewTrialWC.png","37"
"image-keyboard-response","288","566959","0.0-4.0-1.89","9","Low_HMMActual","null","","","","Images/BlackBeadChoice.png","null"
"image-keyboard-response","289","567660","0.0-4.0-2.89","9","Low_HMMActual","null","","","","Images/BlackBeadChoiceWrong.png","null"
"image-keyboard-response","290","567974","0.0-4.0-0.90","9","Low_HMMActual","313.4949999998789","","","","Images/NewTrialWC.png","39"
"image-keyboard-response","291","568375","0.0-4.0-1.90","9","Low_HMMActual","null","","","","Images/WhiteBeadChoice.png","null"
"image-keyboard-response","292","569077","0.0-4.0-2.90","9","Low_HMMActual","null","","","","Images/WhiteBeadChoiceCorrect.png","null"
"image-keyboard-response","293","569321","0.0-4.0-0.91","9","Low_HMMActual","243.2599999998929","","","","Images/NewTrialWC.png","39"
"image-keyboard-response","294","569721","0.0-4.0-1.91","9","Low_HMMActual","null","","","","Images/WhiteBeadChoice.png","null"
"image-keyboard-response","295","570423","0.0-4.0-2.91","9","Low_HMMActual","null","","","","Images/WhiteBeadChoiceCorrect.png","null"
"image-keyboard-response","296","570598","0.0-4.0-0.92","9","Low_HMMActual","175.035000000149","","","","Images/NewTrialWC.png","39"
"image-keyboard-response","297","570999","0.0-4.0-1.92","9","Low_HMMActual","null","","","","Images/WhiteBeadChoice.png","null"
"image-keyboard-response","298","571700","0.0-4.0-2.92","9","Low_HMMActual","null","","","","Images/WhiteBeadChoiceCorrect.png","null"
"image-keyboard-response","299","571964","0.0-4.0-0.93","9","Low_HMMActual","263.449999999837","","","","Images/NewTrialWC.png","39"
"image-keyboard-response","300","572365","0.0-4.0-1.93","9","Low_HMMActual","null","","","","Images/WhiteBeadChoice.png","null"
"image-keyboard-response","301","573067","0.0-4.0-2.93","9","Low_HMMActual","null","","","","Images/WhiteBeadChoiceCorrect.png","null"
"image-keyboard-response","302","573282","0.0-4.0-0.94","9","Low_HMMActual","215.25","","","","Images/NewTrialWC.png","39"
"image-keyboard-response","303","573683","0.0-4.0-1.94","9","Low_HMMActual","null","","","","Images/WhiteBeadChoice.png","null"
"image-keyboard-response","304","574385","0.0-4.0-2.94","9","Low_HMMActual","null","","","","Images/WhiteBeadChoiceWrong.png","null"
"image-keyboard-response","305","574856","0.0-4.0-0.95","9","Low_HMMActual","471.38999999989755","","","","Images/NewTrialBC.png","39"
"image-keyboard-response","306","575258","0.0-4.0-1.95","9","Low_HMMActual","null","","","","Images/WhiteBeadChoice.png","null"
"image-keyboard-response","307","575960","0.0-4.0-2.95","9","Low_HMMActual","null","","","","Images/WhiteBeadChoiceCorrect.png","null"
"image-keyboard-response","308","576214","0.0-4.0-0.96","9","Low_HMMActual","253.98499999986961","","","","Images/NewTrialWC.png","39"
"image-keyboard-response","309","576617","0.0-4.0-1.96","9","Low_HMMActual","null","","","","Images/WhiteBeadChoice.png","null"
"image-keyboard-response","310","577317","0.0-4.0-2.96","9","Low_HMMActual","null","","","","Images/WhiteBeadChoiceCorrect.png","null"
"image-keyboard-response","311","577320","0.0-4.0-0.97","9","Low_HMMActual","2.4799999998649582","","","","Images/NewTrialWC.png","39"
"image-keyboard-response","312","577721","0.0-4.0-1.97","9","Low_HMMActual","null","","","","Images/WhiteBeadChoice.png","null"
"image-keyboard-response","313","578424","0.0-4.0-2.97","9","Low_HMMActual","null","","","","Images/WhiteBeadChoiceCorrect.png","null"
"image-keyboard-response","314","579038","0.0-4.0-0.98","9","Low_HMMActual","613.6799999999348","","","","Images/NewTrialWC.png","39"
"image-keyboard-response","315","579440","0.0-4.0-1.98","9","Low_HMMActual","null","","","","Images/WhiteBeadChoice.png","null"
"image-keyboard-response","316","580141","0.0-4.0-2.98","9","Low_HMMActual","null","","","","Images/WhiteBeadChoiceCorrect.png","null"
"image-keyboard-response","317","581118","0.0-4.0-0.99","9","Low_HMMActual","975.859999999986","","","","Images/NewTrialWC.png","39"
"image-keyboard-response","318","581519","0.0-4.0-1.99","9","Low_HMMActual","null","","","","Images/WhiteBeadChoice.png","null"
"image-keyboard-response","319","582221","0.0-4.0-2.99","9","Low_HMMActual","null","","","","Images/WhiteBeadChoiceCorrect.png","null"
"image-keyboard-response","320","582740","0.0-4.0-0.100","9","Low_HMMActual","518.5699999999488","","","","Images/NewTrialWC.png","39"
"image-keyboard-response","321","583141","0.0-4.0-1.100","9","Low_HMMActual","null","","","","Images/WhiteBeadChoice.png","null"
"image-keyboard-response","322","583843","0.0-4.0-2.100","9","Low_HMMActual","null","","","","Images/WhiteBeadChoiceCorrect.png","null"
"image-keyboard-response","323","584358","0.0-4.0-0.101","9","Low_HMMActual","514.9900000001071","","","","Images/NewTrialWC.png","39"
"image-keyboard-response","324","584760","0.0-4.0-1.101","9","Low_HMMActual","null","","","","Images/WhiteBeadChoice.png","null"
"image-keyboard-response","325","585460","0.0-4.0-2.101","9","Low_HMMActual","null","","","","Images/WhiteBeadChoiceCorrect.png","null"
"image-keyboard-response","326","585961","0.0-4.0-0.102","9","Low_HMMActual","500.3849999997765","","","","Images/NewTrialWC.png","39"
"image-keyboard-response","327","586363","0.0-4.0-1.102","9","Low_HMMActual","null","","","","Images/WhiteBeadChoice.png","null"
"image-keyboard-response","328","587064","0.0-4.0-2.102","9","Low_HMMActual","null","","","","Images/WhiteBeadChoiceWrong.png","null"
"image-keyboard-response","329","587593","0.0-4.0-0.103","9","Low_HMMActual","527.925000000163","","","","Images/NewTrialBC.png","39"
"image-keyboard-response","330","587994","0.0-4.0-1.103","9","Low_HMMActual","null","","","","Images/WhiteBeadChoice.png","null"
"image-keyboard-response","331","588695","0.0-4.0-2.103","9","Low_HMMActual","null","","","","Images/WhiteBeadChoiceWrong.png","null"
"image-keyboard-response","332","589739","0.0-4.0-0.104","9","Low_HMMActual","1044.2399999999907","","","","Images/NewTrialBC.png","37"
"image-keyboard-response","333","590140","0.0-4.0-1.104","9","Low_HMMActual","null","","","","Images/BlackBeadChoice.png","null"
"image-keyboard-response","334","590842","0.0-4.0-2.104","9","Low_HMMActual","null","","","","Images/BlackBeadChoiceWrong.png","null"
"image-keyboard-response","335","591329","0.0-4.0-0.105","9","Low_HMMActual","486.19000000006054","","","","Images/NewTrialWC.png","37"
"image-keyboard-response","336","591729","0.0-4.0-1.105","9","Low_HMMActual","null","","","","Images/BlackBeadChoice.png","null"
"image-keyboard-response","337","592431","0.0-4.0-2.105","9","Low_HMMActual","null","","","","Images/BlackBeadChoiceWrong.png","null"
"image-keyboard-response","338","592814","0.0-4.0-0.106","9","Low_HMMActual","383.07499999995343","","","","Images/NewTrialWC.png","39"
"image-keyboard-response","339","593216","0.0-4.0-1.106","9","Low_HMMActual","null","","","","Images/WhiteBeadChoice.png","null"
"image-keyboard-response","340","593917","0.0-4.0-2.106","9","Low_HMMActual","null","","","","Images/WhiteBeadChoiceCorrect.png","null"
"image-keyboard-response","341","594104","0.0-4.0-0.107","9","Low_HMMActual","186.50000000011642","","","","Images/NewTrialWC.png","39"
"image-keyboard-response","342","594505","0.0-4.0-1.107","9","Low_HMMActual","null","","","","Images/WhiteBeadChoice.png","null"
"image-keyboard-response","343","595206","0.0-4.0-2.107","9","Low_HMMActual","null","","","","Images/WhiteBeadChoiceCorrect.png","null"
"image-keyboard-response","344","595286","0.0-4.0-0.108","9","Low_HMMActual","79.5350000000326","","","","Images/NewTrialWC.png","39"
"image-keyboard-response","345","595688","0.0-4.0-1.108","9","Low_HMMActual","null","","","","Images/WhiteBeadChoice.png","null"
"image-keyboard-response","346","596389","0.0-4.0-2.108","9","Low_HMMActual","null","","","","Images/WhiteBeadChoiceCorrect.png","null"
"image-keyboard-response","347","596624","0.0-4.0-0.109","9","Low_HMMActual","234.89500000001863","","","","Images/NewTrialWC.png","39"
"image-keyboard-response","348","597026","0.0-4.0-1.109","9","Low_HMMActual","null","","","","Images/WhiteBeadChoice.png","null"
"image-keyboard-response","349","597727","0.0-4.0-2.109","9","Low_HMMActual","null","","","","Images/WhiteBeadChoiceCorrect.png","null"
"image-keyboard-response","350","597998","0.0-4.0-0.110","9","Low_HMMActual","270.5999999998603","","","","Images/NewTrialWC.png","39"
"image-keyboard-response","351","598401","0.0-4.0-1.110","9","Low_HMMActual","null","","","","Images/WhiteBeadChoice.png","null"
"image-keyboard-response","352","599102","0.0-4.0-2.110","9","Low_HMMActual","null","","","","Images/WhiteBeadChoiceCorrect.png","null"
"image-keyboard-response","353","599653","0.0-4.0-0.111","9","Low_HMMActual","550.5500000000466","","","","Images/NewTrialWC.png","39"
"image-keyboard-response","354","600055","0.0-4.0-1.111","9","Low_HMMActual","null","","","","Images/WhiteBeadChoice.png","null"
"image-keyboard-response","355","600756","0.0-4.0-2.111","9","Low_HMMActual","null","","","","Images/WhiteBeadChoiceCorrect.png","null"
"image-keyboard-response","356","600979","0.0-4.0-0.112","9","Low_HMMActual","222.69000000006054","","","","Images/NewTrialWC.png","39"
"image-keyboard-response","357","601381","0.0-4.0-1.112","9","Low_HMMActual","null","","","","Images/WhiteBeadChoice.png","null"
"image-keyboard-response","358","602083","0.0-4.0-2.112","9","Low_HMMActual","null","","","","Images/WhiteBeadChoiceCorrect.png","null"
"image-keyboard-response","359","602306","0.0-4.0-0.113","9","Low_HMMActual","222.3949999999022","","","","Images/NewTrialWC.png","39"
"image-keyboard-response","360","602707","0.0-4.0-1.113","9","Low_HMMActual","null","","","","Images/WhiteBeadChoice.png","null"
"image-keyboard-response","361","603408","0.0-4.0-2.113","9","Low_HMMActual","null","","","","Images/WhiteBeadChoiceCorrect.png","null"
"image-keyboard-response","362","603596","0.0-4.0-0.114","9","Low_HMMActual","187.4550000000745","","","","Images/NewTrialWC.png","39"
"image-keyboard-response","363","603998","0.0-4.0-1.114","9","Low_HMMActual","null","","","","Images/WhiteBeadChoice.png","null"
"image-keyboard-response","364","604699","0.0-4.0-2.114","9","Low_HMMActual","null","","","","Images/WhiteBeadChoiceCorrect.png","null"
"image-keyboard-response","365","604846","0.0-4.0-0.115","9","Low_HMMActual","146.64000000001397","","","","Images/NewTrialWC.png","39"
"image-keyboard-response","366","605247","0.0-4.0-1.115","9","Low_HMMActual","null","","","","Images/WhiteBeadChoice.png","null"
"image-keyboard-response","367","605948","0.0-4.0-2.115","9","Low_HMMActual","null","","","","Images/WhiteBeadChoiceCorrect.png","null"
"image-keyboard-response","368","606184","0.0-4.0-0.116","9","Low_HMMActual","235.20000000006985","","","","Images/NewTrialWC.png","39"
"image-keyboard-response","369","606585","0.0-4.0-1.116","9","Low_HMMActual","null","","","","Images/WhiteBeadChoice.png","null"
"image-keyboard-response","370","607286","0.0-4.0-2.116","9","Low_HMMActual","null","","","","Images/WhiteBeadChoiceCorrect.png","null"
"image-keyboard-response","371","607330","0.0-4.0-0.117","9","Low_HMMActual","43.51999999990221","","","","Images/NewTrialWC.png","39"
"image-keyboard-response","372","607731","0.0-4.0-1.117","9","Low_HMMActual","null","","","","Images/WhiteBeadChoice.png","null"
"image-keyboard-response","373","608433","0.0-4.0-2.117","9","Low_HMMActual","null","","","","Images/WhiteBeadChoiceWrong.png","null"
"image-keyboard-response","374","608841","0.0-4.0-0.118","9","Low_HMMActual","408.07499999995343","","","","Images/NewTrialBC.png","39"
"image-keyboard-response","375","609242","0.0-4.0-1.118","9","Low_HMMActual","null","","","","Images/WhiteBeadChoice.png","null"
"image-keyboard-response","376","609944","0.0-4.0-2.118","9","Low_HMMActual","null","","","","Images/WhiteBeadChoiceWrong.png","null"
"image-keyboard-response","377","610099","0.0-4.0-0.119","9","Low_HMMActual","154.67499999993015","","","","Images/NewTrialBC.png","39"
"image-keyboard-response","378","610500","0.0-4.0-1.119","9","Low_HMMActual","null","","","","Images/WhiteBeadChoice.png","null"
"image-keyboard-response","379","611202","0.0-4.0-2.119","9","Low_HMMActual","null","","","","Images/WhiteBeadChoiceWrong.png","null"
"image-keyboard-response","380","611318","0.0-4.0-0.120","9","Low_HMMActual","115.94499999994878","","","","Images/NewTrialBC.png","37"
"image-keyboard-response","381","611719","0.0-4.0-1.120","9","Low_HMMActual","null","","","","Images/BlackBeadChoice.png","null"
"image-keyboard-response","382","612421","0.0-4.0-2.120","9","Low_HMMActual","null","","","","Images/BlackBeadChoiceCorrect.png","null"
"image-keyboard-response","383","612645","0.0-4.0-0.121","9","Low_HMMActual","223.2850000000326","","","","Images/NewTrialBC.png","37"
"image-keyboard-response","384","613045","0.0-4.0-1.121","9","Low_HMMActual","null","","","","Images/BlackBeadChoice.png","null"
"image-keyboard-response","385","613747","0.0-4.0-2.121","9","Low_HMMActual","null","","","","Images/BlackBeadChoiceCorrect.png","null"
"image-keyboard-response","386","614027","0.0-4.0-0.122","9","Low_HMMActual","279.5349999999162","","","","Images/NewTrialBC.png","37"
"image-keyboard-response","387","614429","0.0-4.0-1.122","9","Low_HMMActual","null","","","","Images/BlackBeadChoice.png","null"
"image-keyboard-response","388","615130","0.0-4.0-2.122","9","Low_HMMActual","null","","","","Images/BlackBeadChoiceCorrect.png","null"
"image-keyboard-response","389","615361","0.0-4.0-0.123","9","Low_HMMActual","230.48999999987427","","","","Images/NewTrialBC.png","37"
"image-keyboard-response","390","615763","0.0-4.0-1.123","9","Low_HMMActual","null","","","","Images/BlackBeadChoice.png","null"
"image-keyboard-response","391","616464","0.0-4.0-2.123","9","Low_HMMActual","null","","","","Images/BlackBeadChoiceCorrect.png","null"
"image-keyboard-response","392","616543","0.0-4.0-0.124","9","Low_HMMActual","78.97499999997672","","","","Images/NewTrialBC.png","37"
"image-keyboard-response","393","616945","0.0-4.0-1.124","9","Low_HMMActual","null","","","","Images/BlackBeadChoice.png","null"
"image-keyboard-response","394","617646","0.0-4.0-2.124","9","Low_HMMActual","679.5650000000605","","","","Images/BlackBeadChoiceCorrect.png","37"
"image-keyboard-response","395","618194","0.0-4.0-0.125","9","Low_HMMActual","547.5000000001164","","","","Images/NewTrialBC.png","37"
"image-keyboard-response","396","618595","0.0-4.0-1.125","9","Low_HMMActual","null","","","","Images/BlackBeadChoice.png","null"
"image-keyboard-response","397","619296","0.0-4.0-2.125","9","Low_HMMActual","null","","","","Images/BlackBeadChoiceWrong.png","null"
"image-keyboard-response","398","620290","0.0-4.0-0.126","9","Low_HMMActual","993.559999999823","","","","Images/NewTrialWC.png","37"
"image-keyboard-response","399","620692","0.0-4.0-1.126","9","Low_HMMActual","null","","","","Images/BlackBeadChoice.png","null"
"image-keyboard-response","400","621393","0.0-4.0-2.126","9","Low_HMMActual","null","","","","Images/BlackBeadChoiceCorrect.png","null"
"image-keyboard-response","401","621856","0.0-4.0-0.127","9","Low_HMMActual","462.65500000014435","","","","Images/NewTrialBC.png","37"
"image-keyboard-response","402","622257","0.0-4.0-1.127","9","Low_HMMActual","null","","","","Images/BlackBeadChoice.png","null"
"image-keyboard-response","403","622959","0.0-4.0-2.127","9","Low_HMMActual","648.7250000000931","","","","Images/BlackBeadChoiceCorrect.png","37"
"image-keyboard-response","404","623539","0.0-4.0-0.128","9","Low_HMMActual","579.9999999998836","","","","Images/NewTrialBC.png","37"
"image-keyboard-response","405","623942","0.0-4.0-1.128","9","Low_HMMActual","null","","","","Images/BlackBeadChoice.png","null"
"image-keyboard-response","406","624644","0.0-4.0-2.128","9","Low_HMMActual","null","","","","Images/BlackBeadChoiceWrong.png","null"
"image-keyboard-response","407","625481","0.0-4.0-0.129","9","Low_HMMActual","836.9950000001118","","","","Images/NewTrialWC.png","37"
"image-keyboard-response","408","625882","0.0-4.0-1.129","9","Low_HMMActual","null","","","","Images/BlackBeadChoice.png","null"
"image-keyboard-response","409","626583","0.0-4.0-2.129","9","Low_HMMActual","null","","","","Images/BlackBeadChoiceCorrect.png","null"
"image-keyboard-response","410","627691","0.0-4.0-0.130","9","Low_HMMActual","1107.9650000002002","","","","Images/NewTrialBC.png","37"
"image-keyboard-response","411","628093","0.0-4.0-1.130","9","Low_HMMActual","null","","","","Images/BlackBeadChoice.png","null"
"image-keyboard-response","412","628794","0.0-4.0-2.130","9","Low_HMMActual","null","","","","Images/BlackBeadChoiceCorrect.png","null"
"image-keyboard-response","413","629352","0.0-4.0-0.131","9","Low_HMMActual","558.1350000000093","","","","Images/NewTrialBC.png","37"
"image-keyboard-response","414","629753","0.0-4.0-1.131","9","Low_HMMActual","null","","","","Images/BlackBeadChoice.png","null"
"image-keyboard-response","415","630455","0.0-4.0-2.131","9","Low_HMMActual","null","","","","Images/BlackBeadChoiceCorrect.png","null"
"image-keyboard-response","416","630465","0.0-4.0-0.132","9","Low_HMMActual","9.395000000018626","","","","Images/NewTrialBC.png","37"
"image-keyboard-response","417","630867","0.0-4.0-1.132","9","Low_HMMActual","null","","","","Images/BlackBeadChoice.png","null"
"image-keyboard-response","418","631568","0.0-4.0-2.132","9","Low_HMMActual","675.1800000000512","","","","Images/BlackBeadChoiceCorrect.png","37"
"image-keyboard-response","419","632011","0.0-4.0-0.133","9","Low_HMMActual","443.11499999975786","","","","Images/NewTrialBC.png","37"
"image-keyboard-response","420","632412","0.0-4.0-1.133","9","Low_HMMActual","null","","","","Images/BlackBeadChoice.png","null"
"image-keyboard-response","421","633114","0.0-4.0-2.133","9","Low_HMMActual","135.25500000012107","","","","Images/BlackBeadChoiceCorrect.png","37"
"image-keyboard-response","422","633397","0.0-4.0-0.134","9","Low_HMMActual","283.324999999837","","","","Images/NewTrialBC.png","37"
"image-keyboard-response","423","633799","0.0-4.0-1.134","9","Low_HMMActual","null","","","","Images/BlackBeadChoice.png","null"
"image-keyboard-response","424","634501","0.0-4.0-2.134","9","Low_HMMActual","null","","","","Images/BlackBeadChoiceCorrect.png","null"
"image-keyboard-response","425","634762","0.0-4.0-0.135","9","Low_HMMActual","261.3350000001956","","","","Images/NewTrialBC.png","37"
"image-keyboard-response","426","635163","0.0-4.0-1.135","9","Low_HMMActual","null","","","","Images/BlackBeadChoice.png","null"
"image-keyboard-response","427","635864","0.0-4.0-2.135","9","Low_HMMActual","null","","","","Images/BlackBeadChoiceCorrect.png","null"
"image-keyboard-response","428","637116","0.0-4.0-0.136","9","Low_HMMActual","1251.5150000001304","","","","Images/NewTrialBC.png","37"
"image-keyboard-response","429","637518","0.0-4.0-1.136","9","Low_HMMActual","null","","","","Images/BlackBeadChoice.png","null"
"image-keyboard-response","430","638219","0.0-4.0-2.136","9","Low_HMMActual","null","","","","Images/BlackBeadChoiceCorrect.png","null"
"image-keyboard-response","431","639002","0.0-4.0-0.137","9","Low_HMMActual","782.6950000001816","","","","Images/NewTrialBC.png","37"
"image-keyboard-response","432","639404","0.0-4.0-1.137","9","Low_HMMActual","null","","","","Images/BlackBeadChoice.png","null"
"image-keyboard-response","433","640105","0.0-4.0-2.137","9","Low_HMMActual","null","","","","Images/BlackBeadChoiceCorrect.png","null"
"image-keyboard-response","434","640393","0.0-4.0-0.138","9","Low_HMMActual","288.06500000017695","","","","Images/NewTrialBC.png","37"
"image-keyboard-response","435","640794","0.0-4.0-1.138","9","Low_HMMActual","null","","","","Images/BlackBeadChoice.png","null"
"image-keyboard-response","436","641496","0.0-4.0-2.138","9","Low_HMMActual","null","","","","Images/BlackBeadChoiceCorrect.png","null"
"image-keyboard-response","437","641880","0.0-4.0-0.139","9","Low_HMMActual","383.3050000000512","","","","Images/NewTrialBC.png","37"
"image-keyboard-response","438","642282","0.0-4.0-1.139","9","Low_HMMActual","null","","","","Images/BlackBeadChoice.png","null"
"image-keyboard-response","439","642982","0.0-4.0-2.139","9","Low_HMMActual","null","","","","Images/BlackBeadChoiceCorrect.png","null"
"image-keyboard-response","440","643223","0.0-4.0-0.140","9","Low_HMMActual","239.77999999991152","","","","Images/NewTrialBC.png","37"
"image-keyboard-response","441","643623","0.0-4.0-1.140","9","Low_HMMActual","null","","","","Images/BlackBeadChoice.png","null"
"image-keyboard-response","442","644324","0.0-4.0-2.140","9","Low_HMMActual","null","","","","Images/BlackBeadChoiceCorrect.png","null"
"image-keyboard-response","443","645013","0.0-4.0-0.141","9","Low_HMMActual","688.640000000014","","","","Images/NewTrialBC.png","37"
"image-keyboard-response","444","645415","0.0-4.0-1.141","9","Low_HMMActual","null","","","","Images/BlackBeadChoice.png","null"
"image-keyboard-response","445","646116","0.0-4.0-2.141","9","Low_HMMActual","null","","","","Images/BlackBeadChoiceCorrect.png","null"
"image-keyboard-response","446","646450","0.0-4.0-0.142","9","Low_HMMActual","333.4350000000559","","","","Images/NewTrialBC.png","37"
"image-keyboard-response","447","646852","0.0-4.0-1.142","9","Low_HMMActual","null","","","","Images/BlackBeadChoice.png","null"
"image-keyboard-response","448","647553","0.0-4.0-2.142","9","Low_HMMActual","null","","","","Images/BlackBeadChoiceCorrect.png","null"
"image-keyboard-response","449","647787","0.0-4.0-0.143","9","Low_HMMActual","234.22999999998137","","","","Images/NewTrialBC.png","37"
"image-keyboard-response","450","648189","0.0-4.0-1.143","9","Low_HMMActual","null","","","","Images/BlackBeadChoice.png","null"
"image-keyboard-response","451","648891","0.0-4.0-2.143","9","Low_HMMActual","null","","","","Images/BlackBeadChoiceCorrect.png","null"
"image-keyboard-response","452","649241","0.0-4.0-0.144","9","Low_HMMActual","349.7249999999767","","","","Images/NewTrialBC.png","37"
"image-keyboard-response","453","649643","0.0-4.0-1.144","9","Low_HMMActual","null","","","","Images/BlackBeadChoice.png","null"
"image-keyboard-response","454","650344","0.0-4.0-2.144","9","Low_HMMActual","675.1549999999115","","","","Images/BlackBeadChoiceCorrect.png","37"
"image-keyboard-response","455","650766","0.0-4.0-0.145","9","Low_HMMActual","422.125","","","","Images/NewTrialBC.png","37"
"image-keyboard-response","456","651168","0.0-4.0-1.145","9","Low_HMMActual","null","","","","Images/BlackBeadChoice.png","null"
"image-keyboard-response","457","651868","0.0-4.0-2.145","9","Low_HMMActual","null","","","","Images/BlackBeadChoiceCorrect.png","null"
"image-keyboard-response","458","652179","0.0-4.0-0.146","9","Low_HMMActual","310.41499999992084","","","","Images/NewTrialBC.png","37"
"image-keyboard-response","459","652580","0.0-4.0-1.146","9","Low_HMMActual","null","","","","Images/BlackBeadChoice.png","null"
"image-keyboard-response","460","653282","0.0-4.0-2.146","9","Low_HMMActual","null","","","","Images/BlackBeadChoiceCorrect.png","null"
"image-keyboard-response","461","653697","0.0-4.0-0.147","9","Low_HMMActual","414.0800000000745","","","","Images/NewTrialBC.png","37"
"image-keyboard-response","462","654098","0.0-4.0-1.147","9","Low_HMMActual","null","","","","Images/BlackBeadChoice.png","null"
"image-keyboard-response","463","654800","0.0-4.0-2.147","9","Low_HMMActual","null","","","","Images/BlackBeadChoiceCorrect.png","null"
"image-keyboard-response","464","655767","0.0-4.0-0.148","9","Low_HMMActual","965.9049999997951","","","","Images/NewTrialBC.png","37"
"image-keyboard-response","465","656169","0.0-4.0-1.148","9","Low_HMMActual","null","","","","Images/BlackBeadChoice.png","null"
"image-keyboard-response","466","656870","0.0-4.0-2.148","9","Low_HMMActual","null","","","","Images/BlackBeadChoiceCorrect.png","null"
"image-keyboard-response","467","657147","0.0-4.0-0.149","9","Low_HMMActual","276.67500000004657","","","","Images/NewTrialBC.png","37"
"image-keyboard-response","468","657549","0.0-4.0-1.149","9","Low_HMMActual","null","","","","Images/BlackBeadChoice.png","null"
"image-keyboard-response","469","658251","0.0-4.0-2.149","9","Low_HMMActual","null","","","","Images/BlackBeadChoiceCorrect.png","null"
"image-keyboard-response","470","658412","0.0-4.0-0.150","9","Low_HMMActual","161.1050000002142","","","","Images/NewTrialBC.png","37"
"image-keyboard-response","471","658813","0.0-4.0-1.150","9","Low_HMMActual","null","","","","Images/BlackBeadChoice.png","null"
"image-keyboard-response","472","659516","0.0-4.0-2.150","9","Low_HMMActual","null","","","","Images/BlackBeadChoiceCorrect.png","null"
"image-keyboard-response","473","659778","0.0-4.0-0.151","9","Low_HMMActual","262.0699999999488","","","","Images/NewTrialBC.png","37"
"image-keyboard-response","474","660180","0.0-4.0-1.151","9","Low_HMMActual","null","","","","Images/BlackBeadChoice.png","null"
"image-keyboard-response","475","660881","0.0-4.0-2.151","9","Low_HMMActual","null","","","","Images/BlackBeadChoiceWrong.png","null"
"image-keyboard-response","476","661291","0.0-4.0-0.152","9","Low_HMMActual","409.35000000020955","","","","Images/NewTrialWC.png","37"
"image-keyboard-response","477","661693","0.0-4.0-1.152","9","Low_HMMActual","null","","","","Images/BlackBeadChoice.png","null"
"image-keyboard-response","478","662394","0.0-4.0-2.152","9","Low_HMMActual","null","","","","Images/BlackBeadChoiceWrong.png","null"
"image-keyboard-response","479","662849","0.0-4.0-0.153","9","Low_HMMActual","454.6899999998277","","","","Images/NewTrialWC.png","39"
"image-keyboard-response","480","663251","0.0-4.0-1.153","9","Low_HMMActual","null","","","","Images/WhiteBeadChoice.png","null"
"image-keyboard-response","481","663952","0.0-4.0-2.153","9","Low_HMMActual","null","","","","Images/WhiteBeadChoiceCorrect.png","null"
"image-keyboard-response","482","664224","0.0-4.0-0.154","9","Low_HMMActual","270.71999999997206","","","","Images/NewTrialWC.png","39"
"image-keyboard-response","483","664625","0.0-4.0-1.154","9","Low_HMMActual","null","","","","Images/WhiteBeadChoice.png","null"
"image-keyboard-response","484","665326","0.0-4.0-2.154","9","Low_HMMActual","null","","","","Images/WhiteBeadChoiceWrong.png","null"
"image-keyboard-response","485","665576","0.0-4.0-0.155","9","Low_HMMActual","249.29000000003725","","","","Images/NewTrialBC.png","39"
"image-keyboard-response","486","665977","0.0-4.0-1.155","9","Low_HMMActual","null","","","","Images/WhiteBeadChoice.png","null"
"image-keyboard-response","487","666678","0.0-4.0-2.155","9","Low_HMMActual","null","","","","Images/WhiteBeadChoiceCorrect.png","null"
"image-keyboard-response","488","667013","0.0-4.0-0.156","9","Low_HMMActual","335.0050000001211","","","","Images/NewTrialWC.png","39"
"image-keyboard-response","489","667414","0.0-4.0-1.156","9","Low_HMMActual","null","","","","Images/WhiteBeadChoice.png","null"
"image-keyboard-response","490","668116","0.0-4.0-2.156","9","Low_HMMActual","572.3100000000559","","","","Images/WhiteBeadChoiceCorrect.png","39"
"image-keyboard-response","491","668756","0.0-4.0-0.157","9","Low_HMMActual","640.3499999998603","","","","Images/NewTrialWC.png","39"
"image-keyboard-response","492","669159","0.0-4.0-1.157","9","Low_HMMActual","null","","","","Images/WhiteBeadChoice.png","null"
"image-keyboard-response","493","669860","0.0-4.0-2.157","9","Low_HMMActual","null","","","","Images/WhiteBeadChoiceCorrect.png","null"
"image-keyboard-response","494","670030","0.0-4.0-0.158","9","Low_HMMActual","169.40500000014435","","","","Images/NewTrialWC.png","39"
"image-keyboard-response","495","670431","0.0-4.0-1.158","9","Low_HMMActual","null","","","","Images/WhiteBeadChoice.png","null"
"image-keyboard-response","496","671132","0.0-4.0-2.158","9","Low_HMMActual","null","","","","Images/WhiteBeadChoiceWrong.png","null"
"image-keyboard-response","497","671220","0.0-4.0-0.159","9","Low_HMMActual","87.59499999997206","","","","Images/NewTrialBC.png","39"
"image-keyboard-response","498","671622","0.0-4.0-1.159","9","Low_HMMActual","null","","","","Images/WhiteBeadChoice.png","null"
"image-keyboard-response","499","672324","0.0-4.0-2.159","9","Low_HMMActual","null","","","","Images/WhiteBeadChoiceCorrect.png","null"
"image-keyboard-response","500","672634","0.0-4.0-0.160","9","Low_HMMActual","309.82499999995343","","","","Images/NewTrialWC.png","39"
"image-keyboard-response","501","673036","0.0-4.0-1.160","9","Low_HMMActual","null","","","","Images/WhiteBeadChoice.png","null"
"image-keyboard-response","502","673738","0.0-4.0-2.160","9","Low_HMMActual","null","","","","Images/WhiteBeadChoiceCorrect.png","null"
"image-keyboard-response","503","674188","0.0-4.0-0.161","9","Low_HMMActual","450.15500000002794","","","","Images/NewTrialWC.png","39"
"image-keyboard-response","504","674589","0.0-4.0-1.161","9","Low_HMMActual","null","","","","Images/WhiteBeadChoice.png","null"
"image-keyboard-response","505","675291","0.0-4.0-2.161","9","Low_HMMActual","null","","","","Images/WhiteBeadChoiceCorrect.png","null"
"image-keyboard-response","506","675531","0.0-4.0-0.162","9","Low_HMMActual","238.40499999991152","","","","Images/NewTrialWC.png","39"
"image-keyboard-response","507","675931","0.0-4.0-1.162","9","Low_HMMActual","null","","","","Images/WhiteBeadChoice.png","null"
"image-keyboard-response","508","676633","0.0-4.0-2.162","9","Low_HMMActual","null","","","","Images/WhiteBeadChoiceCorrect.png","null"
"image-keyboard-response","509","676912","0.0-4.0-0.163","9","Low_HMMActual","278.7750000000233","","","","Images/NewTrialWC.png","39"
"image-keyboard-response","510","677313","0.0-4.0-1.163","9","Low_HMMActual","136.60999999998603","","","","Images/WhiteBeadChoice.png","39"
"image-keyboard-response","511","678015","0.0-4.0-2.163","9","Low_HMMActual","null","","","","Images/WhiteBeadChoiceWrong.png","null"
"image-keyboard-response","512","678158","0.0-4.0-0.164","9","Low_HMMActual","143.21999999997206","","","","Images/NewTrialBC.png","39"
"image-keyboard-response","513","678560","0.0-4.0-1.164","9","Low_HMMActual","null","","","","Images/WhiteBeadChoice.png","null"
"image-keyboard-response","514","679261","0.0-4.0-2.164","9","Low_HMMActual","null","","","","Images/WhiteBeadChoiceCorrect.png","null"
"image-keyboard-response","515","679392","0.0-4.0-0.165","9","Low_HMMActual","130.65499999991152","","","","Images/NewTrialWC.png","39"
"image-keyboard-response","516","679793","0.0-4.0-1.165","9","Low_HMMActual","null","","","","Images/WhiteBeadChoice.png","null"
"image-keyboard-response","517","680495","0.0-4.0-2.165","9","Low_HMMActual","null","","","","Images/WhiteBeadChoiceCorrect.png","null"
"image-keyboard-response","518","680722","0.0-4.0-0.166","9","Low_HMMActual","226.81500000006054","","","","Images/NewTrialWC.png","39"
"image-keyboard-response","519","681123","0.0-4.0-1.166","9","Low_HMMActual","null","","","","Images/WhiteBeadChoice.png","null"
"image-keyboard-response","520","681825","0.0-4.0-2.166","9","Low_HMMActual","null","","","","Images/WhiteBeadChoiceCorrect.png","null"
"image-keyboard-response","521","682317","0.0-4.0-0.167","9","Low_HMMActual","492.2950000000419","","","","Images/NewTrialWC.png","39"
"image-keyboard-response","522","682719","0.0-4.0-1.167","9","Low_HMMActual","null","","","","Images/WhiteBeadChoice.png","null"
"image-keyboard-response","523","683419","0.0-4.0-2.167","9","Low_HMMActual","null","","","","Images/WhiteBeadChoiceCorrect.png","null"
"image-keyboard-response","524","683992","0.0-4.0-0.168","9","Low_HMMActual","572.2550000001211","","","","Images/NewTrialWC.png","39"
"image-keyboard-response","525","684394","0.0-4.0-1.168","9","Low_HMMActual","null","","","","Images/WhiteBeadChoice.png","null"
"image-keyboard-response","526","685095","0.0-4.0-2.168","9","Low_HMMActual","null","","","","Images/WhiteBeadChoiceCorrect.png","null"
"image-keyboard-response","527","686561","0.0-4.0-0.169","9","Low_HMMActual","1465.595000000205","","","","Images/NewTrialWC.png","39"
"image-keyboard-response","528","686963","0.0-4.0-1.169","9","Low_HMMActual","null","","","","Images/WhiteBeadChoice.png","null"
"image-keyboard-response","529","687664","0.0-4.0-2.169","9","Low_HMMActual","null","","","","Images/WhiteBeadChoiceCorrect.png","null"
"image-keyboard-response","530","688339","0.0-4.0-0.170","9","Low_HMMActual","674.8849999998929","","","","Images/NewTrialWC.png","39"
"image-keyboard-response","531","688741","0.0-4.0-1.170","9","Low_HMMActual","null","","","","Images/WhiteBeadChoice.png","null"
"image-keyboard-response","532","689443","0.0-4.0-2.170","9","Low_HMMActual","null","","","","Images/WhiteBeadChoiceCorrect.png","null"
"image-keyboard-response","533","689974","0.0-4.0-0.171","9","Low_HMMActual","531.2249999999767","","","","Images/NewTrialWC.png","39"
"image-keyboard-response","534","690377","0.0-4.0-1.171","9","Low_HMMActual","null","","","","Images/WhiteBeadChoice.png","null"
"image-keyboard-response","535","691078","0.0-4.0-2.171","9","Low_HMMActual","null","","","","Images/WhiteBeadChoiceCorrect.png","null"
"image-keyboard-response","536","691349","0.0-4.0-0.172","9","Low_HMMActual","269.949999999837","","","","Images/NewTrialWC.png","39"
"image-keyboard-response","537","691749","0.0-4.0-1.172","9","Low_HMMActual","null","","","","Images/WhiteBeadChoice.png","null"
"image-keyboard-response","538","692450","0.0-4.0-2.172","9","Low_HMMActual","null","","","","Images/WhiteBeadChoiceCorrect.png","null"
"image-keyboard-response","539","692710","0.0-4.0-0.173","9","Low_HMMActual","259.4550000001909","","","","Images/NewTrialWC.png","39"
"image-keyboard-response","540","693111","0.0-4.0-1.173","9","Low_HMMActual","null","","","","Images/WhiteBeadChoice.png","null"
"image-keyboard-response","541","693813","0.0-4.0-2.173","9","Low_HMMActual","null","","","","Images/WhiteBeadChoiceWrong.png","null"
"image-keyboard-response","542","694373","0.0-4.0-0.174","9","Low_HMMActual","560.1600000000326","","","","Images/NewTrialBC.png","39"
"image-keyboard-response","543","694774","0.0-4.0-1.174","9","Low_HMMActual","null","","","","Images/WhiteBeadChoice.png","null"
"image-keyboard-response","544","695475","0.0-4.0-2.174","9","Low_HMMActual","null","","","","Images/WhiteBeadChoiceCorrect.png","null"
"image-keyboard-response","545","695883","0.0-4.0-0.175","9","Low_HMMActual","407.3649999999907","","","","Images/NewTrialWC.png","39"
"image-keyboard-response","546","696285","0.0-4.0-1.175","9","Low_HMMActual","null","","","","Images/WhiteBeadChoice.png","null"
"image-keyboard-response","547","696985","0.0-4.0-2.175","9","Low_HMMActual","null","","","","Images/WhiteBeadChoiceCorrect.png","null"
"image-keyboard-response","548","697383","0.0-4.0-0.176","9","Low_HMMActual","396.75500000000466","","","","Images/NewTrialWC.png","39"
"image-keyboard-response","549","697784","0.0-4.0-1.176","9","Low_HMMActual","null","","","","Images/WhiteBeadChoice.png","null"
"image-keyboard-response","550","698485","0.0-4.0-2.176","9","Low_HMMActual","null","","","","Images/WhiteBeadChoiceCorrect.png","null"
"image-keyboard-response","551","699125","0.0-4.0-0.177","9","Low_HMMActual","639.3399999999674","","","","Images/NewTrialWC.png","39"
"image-keyboard-response","552","699527","0.0-4.0-1.177","9","Low_HMMActual","null","","","","Images/WhiteBeadChoice.png","null"
"image-keyboard-response","553","700228","0.0-4.0-2.177","9","Low_HMMActual","null","","","","Images/WhiteBeadChoiceCorrect.png","null"
"image-keyboard-response","554","700585","0.0-4.0-0.178","9","Low_HMMActual","356.0649999999441","","","","Images/NewTrialWC.png","39"
"image-keyboard-response","555","700986","0.0-4.0-1.178","9","Low_HMMActual","null","","","","Images/WhiteBeadChoice.png","null"
"image-keyboard-response","556","701687","0.0-4.0-2.178","9","Low_HMMActual","null","","","","Images/WhiteBeadChoiceCorrect.png","null"
"image-keyboard-response","557","705096","0.0-4.0-0.179","9","Low_HMMActual","3408.140000000014","","","","Images/NewTrialWC.png","39"
"image-keyboard-response","558","705497","0.0-4.0-1.179","9","Low_HMMActual","null","","","","Images/WhiteBeadChoice.png","null"
"image-keyboard-response","559","706199","0.0-4.0-2.179","9","Low_HMMActual","null","","","","Images/WhiteBeadChoiceCorrect.png","null"
"image-keyboard-response","560","706487","0.0-4.0-0.180","9","Low_HMMActual","288.2249999999767","","","","Images/NewTrialWC.png","39"
"image-keyboard-response","561","706889","0.0-4.0-1.180","9","Low_HMMActual","null","","","","Images/WhiteBeadChoice.png","null"
"image-keyboard-response","562","707591","0.0-4.0-2.180","9","Low_HMMActual","null","","","","Images/WhiteBeadChoiceCorrect.png","null"
"image-keyboard-response","563","707721","0.0-4.0-0.181","9","Low_HMMActual","128.91500000003725","","","","Images/NewTrialWC.png","39"
"image-keyboard-response","564","708122","0.0-4.0-1.181","9","Low_HMMActual","null","","","","Images/WhiteBeadChoice.png","null"
"image-keyboard-response","565","708823","0.0-4.0-2.181","9","Low_HMMActual","null","","","","Images/WhiteBeadChoiceWrong.png","null"
"image-keyboard-response","566","709394","0.0-4.0-0.182","9","Low_HMMActual","570.4550000000745","","","","Images/NewTrialBC.png","39"
"image-keyboard-response","567","709795","0.0-4.0-1.182","9","Low_HMMActual","null","","","","Images/WhiteBeadChoice.png","null"
"image-keyboard-response","568","710497","0.0-4.0-2.182","9","Low_HMMActual","null","","","","Images/WhiteBeadChoiceCorrect.png","null"
"image-keyboard-response","569","710756","0.0-4.0-0.183","9","Low_HMMActual","259.0800000000745","","","","Images/NewTrialWC.png","39"
"image-keyboard-response","570","711157","0.0-4.0-1.183","9","Low_HMMActual","null","","","","Images/WhiteBeadChoice.png","null"
"image-keyboard-response","571","711859","0.0-4.0-2.183","9","Low_HMMActual","null","","","","Images/WhiteBeadChoiceCorrect.png","null"
"image-keyboard-response","572","712499","0.0-4.0-0.184","9","Low_HMMActual","640.4100000000326","","","","Images/NewTrialWC.png","39"
"image-keyboard-response","573","712901","0.0-4.0-1.184","9","Low_HMMActual","null","","","","Images/WhiteBeadChoice.png","null"
"image-keyboard-response","574","713602","0.0-4.0-2.184","9","Low_HMMActual","null","","","","Images/WhiteBeadChoiceCorrect.png","null"
"image-keyboard-response","575","713802","0.0-4.0-0.185","9","Low_HMMActual","200.17000000015832","","","","Images/NewTrialWC.png","39"
"image-keyboard-response","576","714204","0.0-4.0-1.185","9","Low_HMMActual","null","","","","Images/WhiteBeadChoice.png","null"
"image-keyboard-response","577","714905","0.0-4.0-2.185","9","Low_HMMActual","null","","","","Images/WhiteBeadChoiceCorrect.png","null"
"image-keyboard-response","578","715300","0.0-4.0-0.186","9","Low_HMMActual","394.3800000002375","","","","Images/NewTrialWC.png","39"
"image-keyboard-response","579","715701","0.0-4.0-1.186","9","Low_HMMActual","null","","","","Images/WhiteBeadChoice.png","null"
"image-keyboard-response","580","716519","0.0-4.0-2.186","9","Low_HMMActual","null","","","","Images/WhiteBeadChoiceCorrect.png","null"
"image-keyboard-response","581","718698","0.0-4.0-0.187","9","Low_HMMActual","2178.9749999999767","","","","Images/NewTrialWC.png","39"
"image-keyboard-response","582","719099","0.0-4.0-1.187","9","Low_HMMActual","null","","","","Images/WhiteBeadChoice.png","null"
"image-keyboard-response","583","719801","0.0-4.0-2.187","9","Low_HMMActual","null","","","","Images/WhiteBeadChoiceCorrect.png","null"
"image-keyboard-response","584","720173","0.0-4.0-0.188","9","Low_HMMActual","371.7799999999115","","","","Images/NewTrialWC.png","39"
"image-keyboard-response","585","720575","0.0-4.0-1.188","9","Low_HMMActual","null","","","","Images/WhiteBeadChoice.png","null"
"image-keyboard-response","586","721277","0.0-4.0-2.188","9","Low_HMMActual","null","","","","Images/WhiteBeadChoiceCorrect.png","null"
"image-keyboard-response","587","721652","0.0-4.0-0.189","9","Low_HMMActual","374.7950000001583","","","","Images/NewTrialWC.png","39"
"image-keyboard-response","588","722053","0.0-4.0-1.189","9","Low_HMMActual","null","","","","Images/WhiteBeadChoice.png","null"
"image-keyboard-response","589","722755","0.0-4.0-2.189","9","Low_HMMActual","null","","","","Images/WhiteBeadChoiceCorrect.png","null"
"image-keyboard-response","590","723560","0.0-4.0-0.190","9","Low_HMMActual","803.6600000000326","","","","Images/NewTrialWC.png","39"
"image-keyboard-response","591","723962","0.0-4.0-1.190","9","Low_HMMActual","null","","","","Images/WhiteBeadChoice.png","null"
"image-keyboard-response","592","724664","0.0-4.0-2.190","9","Low_HMMActual","null","","","","Images/WhiteBeadChoiceCorrect.png","null"
"image-keyboard-response","593","726280","0.0-4.0-0.191","9","Low_HMMActual","1615.5699999999488","","","","Images/NewTrialWC.png","39"
"image-keyboard-response","594","726682","0.0-4.0-1.191","9","Low_HMMActual","null","","","","Images/WhiteBeadChoice.png","null"
"image-keyboard-response","595","727382","0.0-4.0-2.191","9","Low_HMMActual","null","","","","Images/WhiteBeadChoiceCorrect.png","null"
"image-keyboard-response","596","727699","0.0-4.0-0.192","9","Low_HMMActual","316.21999999985565","","","","Images/NewTrialWC.png","39"
"image-keyboard-response","597","728101","0.0-4.0-1.192","9","Low_HMMActual","null","","","","Images/WhiteBeadChoice.png","null"
"image-keyboard-response","598","728802","0.0-4.0-2.192","9","Low_HMMActual","null","","","","Images/WhiteBeadChoiceCorrect.png","null"
"image-keyboard-response","599","729017","0.0-4.0-0.193","9","Low_HMMActual","214.91500000003725","","","","Images/NewTrialWC.png","39"
"image-keyboard-response","600","729418","0.0-4.0-1.193","9","Low_HMMActual","null","","","","Images/WhiteBeadChoice.png","null"
"image-keyboard-response","601","730120","0.0-4.0-2.193","9","Low_HMMActual","null","","","","Images/WhiteBeadChoiceCorrect.png","null"
"image-keyboard-response","602","730171","0.0-4.0-0.194","9","Low_HMMActual","51.11999999999534","","","","Images/NewTrialWC.png","39"
"image-keyboard-response","603","730572","0.0-4.0-1.194","9","Low_HMMActual","null","","","","Images/WhiteBeadChoice.png","null"
"image-keyboard-response","604","731275","0.0-4.0-2.194","9","Low_HMMActual","399.29000000003725","","","","Images/WhiteBeadChoiceCorrect.png","122"
"image-keyboard-response","605","732826","0.0-4.0-0.195","9","Low_HMMActual","1551.2800000001444","","","","Images/NewTrialWC.png","39"
"image-keyboard-response","606","733227","0.0-4.0-1.195","9","Low_HMMActual","null","","","","Images/WhiteBeadChoice.png","null"
"image-keyboard-response","607","733928","0.0-4.0-2.195","9","Low_HMMActual","605.2550000001211","","","","Images/WhiteBeadChoiceCorrect.png","39"
"image-keyboard-response","608","734220","0.0-4.0-0.196","9","Low_HMMActual","291.91499999992084","","","","Images/NewTrialWC.png","39"
"image-keyboard-response","609","734623","0.0-4.0-1.196","9","Low_HMMActual","null","","","","Images/WhiteBeadChoice.png","null"
"image-keyboard-response","610","735325","0.0-4.0-2.196","9","Low_HMMActual","null","","","","Images/WhiteBeadChoiceCorrect.png","null"
"image-keyboard-response","611","735534","0.0-4.0-0.197","9","Low_HMMActual","208.99999999976717","","","","Images/NewTrialWC.png","39"
"image-keyboard-response","612","735935","0.0-4.0-1.197","9","Low_HMMActual","null","","","","Images/WhiteBeadChoice.png","null"
"image-keyboard-response","613","736636","0.0-4.0-2.197","9","Low_HMMActual","null","","","","Images/WhiteBeadChoiceCorrect.png","null"
"image-keyboard-response","614","736789","0.0-4.0-0.198","9","Low_HMMActual","152.8300000000745","","","","Images/NewTrialWC.png","39"
"image-keyboard-response","615","737191","0.0-4.0-1.198","9","Low_HMMActual","null","","","","Images/WhiteBeadChoice.png","null"
"image-keyboard-response","616","737893","0.0-4.0-2.198","9","Low_HMMActual","null","","","","Images/WhiteBeadChoiceCorrect.png","null"
"image-keyboard-response","617","737991","0.0-4.0-0.199","9","Low_HMMActual","98.02500000002328","","","","Images/NewTrialWC.png","39"
"image-keyboard-response","618","738392","0.0-4.0-1.199","9","Low_HMMActual","null","","","","Images/WhiteBeadChoice.png","null"
"image-keyboard-response","619","739093","0.0-4.0-2.199","9","Low_HMMActual","null","","","","Images/WhiteBeadChoiceCorrect.png","null"
"image-keyboard-response","620","739240","0.0-4.0-0.200","9","Low_HMMActual","146.86499999987427","","","","Images/NewTrialWC.png","39"
"image-keyboard-response","621","739641","0.0-4.0-1.200","9","Low_HMMActual","null","","","","Images/WhiteBeadChoice.png","null"
"image-keyboard-response","622","740343","0.0-4.0-2.200","9","Low_HMMActual","null","","","","Images/WhiteBeadChoiceCorrect.png","null"
"image-keyboard-response","623","740586","0.0-4.0-0.201","9","Low_HMMActual","242.785000000149","","","","Images/NewTrialWC.png","39"
"image-keyboard-response","624","740987","0.0-4.0-1.201","9","Low_HMMActual","null","","","","Images/WhiteBeadChoice.png","null"
"image-keyboard-response","625","741689","0.0-4.0-2.201","9","Low_HMMActual","null","","","","Images/WhiteBeadChoiceCorrect.png","null"
"image-keyboard-response","626","741901","0.0-4.0-0.202","9","Low_HMMActual","211.8200000000652","","","","Images/NewTrialWC.png","39"
"image-keyboard-response","627","742302","0.0-4.0-1.202","9","Low_HMMActual","null","","","","Images/WhiteBeadChoice.png","null"
"image-keyboard-response","628","743004","0.0-4.0-2.202","9","Low_HMMActual","null","","","","Images/WhiteBeadChoiceWrong.png","null"
"image-keyboard-response","629","743784","0.0-4.0-0.203","9","Low_HMMActual","779.6949999999488","","","","Images/NewTrialBC.png","39"
"image-keyboard-response","630","744185","0.0-4.0-1.203","9","Low_HMMActual","null","","","","Images/WhiteBeadChoice.png","null"
"image-keyboard-response","631","744887","0.0-4.0-2.203","9","Low_HMMActual","null","","","","Images/WhiteBeadChoiceCorrect.png","null"
"image-keyboard-response","632","745148","0.0-4.0-0.204","9","Low_HMMActual","260.28999999992084","","","","Images/NewTrialWC.png","39"
"image-keyboard-response","633","745548","0.0-4.0-1.204","9","Low_HMMActual","null","","","","Images/WhiteBeadChoice.png","null"
"image-keyboard-response","634","746249","0.0-4.0-2.204","9","Low_HMMActual","null","","","","Images/WhiteBeadChoiceWrong.png","null"
"image-keyboard-response","635","748083","0.0-4.0-0.205","9","Low_HMMActual","1833.3699999999953","","","","Images/NewTrialBC.png","37"
"image-keyboard-response","636","748485","0.0-4.0-1.205","9","Low_HMMActual","null","","","","Images/BlackBeadChoice.png","null"
"image-keyboard-response","637","749187","0.0-4.0-2.205","9","Low_HMMActual","null","","","","Images/BlackBeadChoiceCorrect.png","null"
"image-keyboard-response","638","749504","0.0-4.0-0.206","9","Low_HMMActual","316.27499999990687","","","","Images/NewTrialBC.png","37"
"image-keyboard-response","639","749905","0.0-4.0-1.206","9","Low_HMMActual","null","","","","Images/BlackBeadChoice.png","null"
"image-keyboard-response","640","750607","0.0-4.0-2.206","9","Low_HMMActual","null","","","","Images/BlackBeadChoiceWrong.png","null"
"image-keyboard-response","641","750877","0.0-4.0-0.207","9","Low_HMMActual","269.40500000002794","","","","Images/NewTrialWC.png","37"
"image-keyboard-response","642","751279","0.0-4.0-1.207","9","Low_HMMActual","null","","","","Images/BlackBeadChoice.png","null"
"image-keyboard-response","643","751981","0.0-4.0-2.207","9","Low_HMMActual","null","","","","Images/BlackBeadChoiceWrong.png","null"
"image-keyboard-response","644","752479","0.0-4.0-0.208","9","Low_HMMActual","498.18499999993946","","","","Images/NewTrialWC.png","39"
"image-keyboard-response","645","752881","0.0-4.0-1.208","9","Low_HMMActual","null","","","","Images/WhiteBeadChoice.png","null"
"image-keyboard-response","646","753582","0.0-4.0-2.208","9","Low_HMMActual","null","","","","Images/WhiteBeadChoiceWrong.png","null"
"image-keyboard-response","647","754742","0.0-4.0-0.209","9","Low_HMMActual","1159.6850000000559","","","","Images/NewTrialBC.png","37"
"image-keyboard-response","648","755144","0.0-4.0-1.209","9","Low_HMMActual","null","","","","Images/BlackBeadChoice.png","null"
"image-keyboard-response","649","755846","0.0-4.0-2.209","9","Low_HMMActual","null","","","","Images/BlackBeadChoiceWrong.png","null"
"image-keyboard-response","650","756068","0.0-4.0-0.210","9","Low_HMMActual","220.93500000005588","","","","Images/NewTrialWC.png","39"
"image-keyboard-response","651","756469","0.0-4.0-1.210","9","Low_HMMActual","null","","","","Images/WhiteBeadChoice.png","null"
"image-keyboard-response","652","757171","0.0-4.0-2.210","9","Low_HMMActual","null","","","","Images/WhiteBeadChoiceCorrect.png","null"
"image-keyboard-response","653","757467","0.0-4.0-0.211","9","Low_HMMActual","294.78999999992084","","","","Images/NewTrialWC.png","39"
"image-keyboard-response","654","757869","0.0-4.0-1.211","9","Low_HMMActual","null","","","","Images/WhiteBeadChoice.png","null"
"image-keyboard-response","655","758570","0.0-4.0-2.211","9","Low_HMMActual","null","","","","Images/WhiteBeadChoiceCorrect.png","null"
"image-keyboard-response","656","759003","0.0-4.0-0.212","9","Low_HMMActual","433.0299999999115","","","","Images/NewTrialWC.png","39"
"image-keyboard-response","657","759405","0.0-4.0-1.212","9","Low_HMMActual","null","","","","Images/WhiteBeadChoice.png","null"
"image-keyboard-response","658","760106","0.0-4.0-2.212","9","Low_HMMActual","null","","","","Images/WhiteBeadChoiceCorrect.png","null"
"image-keyboard-response","659","772425","0.0-4.0-0.213","9","Low_HMMActual","12318.384999999893","","","","Images/NewTrialWC.png","39"
"image-keyboard-response","660","772826","0.0-4.0-1.213","9","Low_HMMActual","null","","","","Images/WhiteBeadChoice.png","null"
"image-keyboard-response","661","773528","0.0-4.0-2.213","9","Low_HMMActual","null","","","","Images/WhiteBeadChoiceWrong.png","null"
"image-keyboard-response","662","773684","0.0-4.0-0.214","9","Low_HMMActual","155.79500000015832","","","","Images/NewTrialBC.png","39"
"image-keyboard-response","663","774085","0.0-4.0-1.214","9","Low_HMMActual","null","","","","Images/WhiteBeadChoice.png","null"
"image-keyboard-response","664","774786","0.0-4.0-2.214","9","Low_HMMActual","null","","","","Images/WhiteBeadChoiceWrong.png","null"
"image-keyboard-response","665","775046","0.0-4.0-0.215","9","Low_HMMActual","259.17499999993015","","","","Images/NewTrialBC.png","37"
"image-keyboard-response","666","775447","0.0-4.0-1.215","9","Low_HMMActual","null","","","","Images/BlackBeadChoice.png","null"
"image-keyboard-response","667","776148","0.0-4.0-2.215","9","Low_HMMActual","null","","","","Images/BlackBeadChoiceCorrect.png","null"
"image-keyboard-response","668","776192","0.0-4.0-0.216","9","Low_HMMActual","43.3499999998603","","","","Images/NewTrialBC.png","37"
"image-keyboard-response","669","776594","0.0-4.0-1.216","9","Low_HMMActual","null","","","","Images/BlackBeadChoice.png","null"
"image-keyboard-response","670","777296","0.0-4.0-2.216","9","Low_HMMActual","null","","","","Images/BlackBeadChoiceCorrect.png","null"
"image-keyboard-response","671","777462","0.0-4.0-0.217","9","Low_HMMActual","165.93499999993946","","","","Images/NewTrialBC.png","37"
"image-keyboard-response","672","777864","0.0-4.0-1.217","9","Low_HMMActual","null","","","","Images/BlackBeadChoice.png","null"
"image-keyboard-response","673","778565","0.0-4.0-2.217","9","Low_HMMActual","null","","","","Images/BlackBeadChoiceWrong.png","null"
"image-keyboard-response","674","778856","0.0-4.0-0.218","9","Low_HMMActual","290.88000000000466","","","","Images/NewTrialWC.png","37"
"image-keyboard-response","675","779257","0.0-4.0-1.218","9","Low_HMMActual","null","","","","Images/BlackBeadChoice.png","null"
"image-keyboard-response","676","779959","0.0-4.0-2.218","9","Low_HMMActual","null","","","","Images/BlackBeadChoiceWrong.png","null"
"image-keyboard-response","677","780277","0.0-4.0-0.219","9","Low_HMMActual","317.64000000001397","","","","Images/NewTrialWC.png","37"
"image-keyboard-response","678","780679","0.0-4.0-1.219","9","Low_HMMActual","null","","","","Images/BlackBeadChoice.png","null"
"image-keyboard-response","679","781380","0.0-4.0-2.219","9","Low_HMMActual","null","","","","Images/BlackBeadChoiceWrong.png","null"
"image-keyboard-response","680","781724","0.0-4.0-0.220","9","Low_HMMActual","343.10000000009313","","","","Images/NewTrialWC.png","39"
"image-keyboard-response","681","782125","0.0-4.0-1.220","9","Low_HMMActual","null","","","","Images/WhiteBeadChoice.png","null"
"image-keyboard-response","682","782827","0.0-4.0-2.220","9","Low_HMMActual","null","","","","Images/WhiteBeadChoiceCorrect.png","null"
"image-keyboard-response","683","783193","0.0-4.0-0.221","9","Low_HMMActual","366.1700000000419","","","","Images/NewTrialWC.png","39"
"image-keyboard-response","684","783594","0.0-4.0-1.221","9","Low_HMMActual","null","","","","Images/WhiteBeadChoice.png","null"
"image-keyboard-response","685","784296","0.0-4.0-2.221","9","Low_HMMActual","null","","","","Images/WhiteBeadChoiceCorrect.png","null"
"image-keyboard-response","686","784499","0.0-4.0-0.222","9","Low_HMMActual","202.8049999998184","","","","Images/NewTrialWC.png","39"
"image-keyboard-response","687","784901","0.0-4.0-1.222","9","Low_HMMActual","null","","","","Images/WhiteBeadChoice.png","null"
"image-keyboard-response","688","785602","0.0-4.0-2.222","9","Low_HMMActual","null","","","","Images/WhiteBeadChoiceCorrect.png","null"
"image-keyboard-response","689","785696","0.0-4.0-0.223","9","Low_HMMActual","93.77999999991152","","","","Images/NewTrialWC.png","39"
"image-keyboard-response","690","786098","0.0-4.0-1.223","9","Low_HMMActual","null","","","","Images/WhiteBeadChoice.png","null"
"image-keyboard-response","691","786799","0.0-4.0-2.223","9","Low_HMMActual","null","","","","Images/WhiteBeadChoiceCorrect.png","null"
"image-keyboard-response","692","786914","0.0-4.0-0.224","9","Low_HMMActual","114.62499999988358","","","","Images/NewTrialWC.png","39"
"image-keyboard-response","693","787315","0.0-4.0-1.224","9","Low_HMMActual","null","","","","Images/WhiteBeadChoice.png","null"
"image-keyboard-response","694","788017","0.0-4.0-2.224","9","Low_HMMActual","null","","","","Images/WhiteBeadChoiceWrong.png","null"
"image-keyboard-response","695","788316","0.0-4.0-0.225","9","Low_HMMActual","299.0600000000559","","","","Images/NewTrialBC.png","39"
"image-keyboard-response","696","788718","0.0-4.0-1.225","9","Low_HMMActual","null","","","","Images/WhiteBeadChoice.png","null"
"image-keyboard-response","697","789419","0.0-4.0-2.225","9","Low_HMMActual","null","","","","Images/WhiteBeadChoiceCorrect.png","null"
"image-keyboard-response","698","789769","0.0-4.0-0.226","9","Low_HMMActual","349.86999999999534","","","","Images/NewTrialWC.png","39"
"image-keyboard-response","699","790171","0.0-4.0-1.226","9","Low_HMMActual","null","","","","Images/WhiteBeadChoice.png","null"
"image-keyboard-response","700","790873","0.0-4.0-2.226","9","Low_HMMActual","null","","","","Images/WhiteBeadChoiceCorrect.png","null"
"image-keyboard-response","701","790931","0.0-4.0-0.227","9","Low_HMMActual","58.035000000032596","","","","Images/NewTrialWC.png","39"
"image-keyboard-response","702","791332","0.0-4.0-1.227","9","Low_HMMActual","null","","","","Images/WhiteBeadChoice.png","null"
"image-keyboard-response","703","792033","0.0-4.0-2.227","9","Low_HMMActual","null","","","","Images/WhiteBeadChoiceWrong.png","null"
"image-keyboard-response","704","792417","0.0-4.0-0.228","9","Low_HMMActual","382.9700000000885","","","","Images/NewTrialBC.png","39"
"image-keyboard-response","705","792817","0.0-4.0-1.228","9","Low_HMMActual","null","","","","Images/WhiteBeadChoice.png","null"
"image-keyboard-response","706","793519","0.0-4.0-2.228","9","Low_HMMActual","null","","","","Images/WhiteBeadChoiceCorrect.png","null"
"image-keyboard-response","707","795336","0.0-4.0-0.229","9","Low_HMMActual","1816.6750000000466","","","","Images/NewTrialWC.png","39"
"image-keyboard-response","708","795738","0.0-4.0-1.229","9","Low_HMMActual","null","","","","Images/WhiteBeadChoice.png","null"
"image-keyboard-response","709","796439","0.0-4.0-2.229","9","Low_HMMActual","null","","","","Images/WhiteBeadChoiceCorrect.png","null"
"image-keyboard-response","710","796970","0.0-4.0-0.230","9","Low_HMMActual","530.1850000000559","","","","Images/NewTrialWC.png","39"
"image-keyboard-response","711","797373","0.0-4.0-1.230","9","Low_HMMActual","null","","","","Images/WhiteBeadChoice.png","null"
"image-keyboard-response","712","798073","0.0-4.0-2.230","9","Low_HMMActual","null","","","","Images/WhiteBeadChoiceWrong.png","null"
"image-keyboard-response","713","798773","0.0-4.0-0.231","9","Low_HMMActual","698.7750000000233","","","","Images/NewTrialBC.png","39"
"image-keyboard-response","714","799174","0.0-4.0-1.231","9","Low_HMMActual","null","","","","Images/WhiteBeadChoice.png","null"
"image-keyboard-response","715","799876","0.0-4.0-2.231","9","Low_HMMActual","null","","","","Images/WhiteBeadChoiceCorrect.png","null"
"image-keyboard-response","716","800109","0.0-4.0-0.232","9","Low_HMMActual","232.99000000022352","","","","Images/NewTrialWC.png","39"
"image-keyboard-response","717","800511","0.0-4.0-1.232","9","Low_HMMActual","null","","","","Images/WhiteBeadChoice.png","null"
"image-keyboard-response","718","801213","0.0-4.0-2.232","9","Low_HMMActual","null","","","","Images/WhiteBeadChoiceWrong.png","null"
"image-keyboard-response","719","802665","0.0-4.0-0.233","9","Low_HMMActual","1451.359999999986","","","","Images/NewTrialBC.png","39"
"image-keyboard-response","720","803066","0.0-4.0-1.233","9","Low_HMMActual","null","","","","Images/WhiteBeadChoice.png","null"
"image-keyboard-response","721","803767","0.0-4.0-2.233","9","Low_HMMActual","null","","","","Images/WhiteBeadChoiceCorrect.png","null"
"image-keyboard-response","722","804101","0.0-4.0-0.234","9","Low_HMMActual","333.76499999978114","","","","Images/NewTrialWC.png","39"
"image-keyboard-response","723","804503","0.0-4.0-1.234","9","Low_HMMActual","null","","","","Images/WhiteBeadChoice.png","null"
"image-keyboard-response","724","805205","0.0-4.0-2.234","9","Low_HMMActual","null","","","","Images/WhiteBeadChoiceCorrect.png","null"
"image-keyboard-response","725","805290","0.0-4.0-0.235","9","Low_HMMActual","85.10999999998603","","","","Images/NewTrialWC.png","39"
