"trial_type","trial_index","time_elapsed","internal_node_id","Script_Picker","rt","url","responses","question_order","stimulus","key_press"
"pavlovia","0","6","0.0-0.0","9","","","","","",""
"external-html","1","9715","0.0-1.0-0.0","9","9657.104999991134","consent.html","","","",""
"survey-multi-choice","2","16538","0.0-1.0-1.0","9","6820.9799999604","","{""Q0"":""Female"",""Q1"":""White""}","[0,1]","",""
"survey-text","3","19359","0.0-1.0-2.0","9","2817.4899999867193","","{""Q0"":""20""}","","",""
"survey-text","4","27321","0.0-1.0-3.0","9","7851.50499996962","","{""Q0"":""5cf10bfe8d4d660001edc5b4""}","","",""
"html-keyboard-response","5","44913","0.0-2.0-0.0","9","17483.339999977034","","","","<div class=""container"" style=""height:800px;width:800px;display:flex;flex-direction:column;justify-content:center;align-items:center;text-align:center;font-weight:normal;font-family:Arial;font-size:20px""><p>In this task you will see black or white beads being pulled from jars. <br><br>On each trial, a bead will be pulled from one of two jars. Once you see this bead, your goal is to predict the color of NEXT bead that will be pulled. <br> <br>Every time you correctly guess the color of the NEXT bead, you will get a point. The more points you get, the higher your win bonus at the end of the experiment <br><br>Press the SPACEBAR to continue.</p><div>","32"
"html-keyboard-response","6","55630","0.0-2.0-1.0","9","10714.730000006966","","","","<div class=""container"" style=""height:800px;width:800px;display:flex;flex-direction:column;justify-content:center;align-items:center;text-align:center;font-weight:normal;font-family:Arial;font-size:20px""><p>There are two types of jars:<br><br>1) Jars filled with ONLY white or black beads<br><br>2) Jars filled with 90% white or black beads and 10% of the opposite color mixed in<br><br>Press the SPACEBAR to continue. </p><div>","32"
"image-keyboard-response","7","57846","0.0-2.0-2.0","9","2213.095000013709","","","","resources/WhiteJar_MM.png","32"
"image-keyboard-response","8","59031","0.0-2.0-3.0","9","1182.184999983292","","","","resources/BlackJar_MM.png","32"
"image-keyboard-response","9","61133","0.0-2.0-4.0","9","2099.305000039749","","","","resources/WhiteJar_HMM.png","32"
"image-keyboard-response","10","62378","0.0-2.0-5.0","9","1243.694999953732","","","","resources/BlackJar_HMM.png","32"
"html-keyboard-response","11","74774","0.0-2.0-6.0","9","12394.13000002969","","","","<div class=""container"" style=""height:800px;width:800px;display:flex;flex-direction:column;justify-content:center;align-items:center;text-align:center;font-weight:normal;font-family:Arial;font-size:20px""><p>There will be four blocks of trials. In each block, you will see the pair of jars that beads will be pulled from.<br><br>The pair of jars used in each block will ONLY ever be 100% white and black jars, or 90/10 mixed jars. <br><br>The pair of jars in each block will not change until the next block.<br><br>Here are examples of what you will see on each trial.<br><br>Press the SPACEBAR to continue. </p><div>","32"
"image-keyboard-response","12","79009","0.0-2.0-7.0","9","4232.714999991003","","","","Images/NoChoiceMM.png","32"
"image-keyboard-response","13","81201","0.0-2.0-8.0","9","2190.530000021681","","","","Images/NoChoice.png","32"
"html-keyboard-response","14","98251","0.0-2.0-9.0","9","17047.53999999957","","","","<div class=""container"" style=""height:800px;width:800px;display:flex;flex-direction:column;justify-content:center;align-items:center;text-align:center;font-weight:normal;font-family:Arial;font-size:20px""><p> The jar the beads are pulled from is NOT choosen at random on each trial.<br><br>After each prediction, there will be a chance that the jars will switch, and that the next bead will be pulled from the opposite jar as the previous trial.<br><br>In each block, the chance that a jar will switch will either be LOW (the jars will not switch very often), or HIGH (the jars will switch almost all the time).<br><br>At the start of each block, you will be told the probability that the jars will switch on each trial. This switch probability will stay constant throughout the block.<br><br>Press the SPACEBAR to continue. </p><div>","32"
"image-keyboard-response","15","105034","0.0-2.0-10.0","9","6780.960000003688","","","","Images/TutorialBlackJarDrawMM.png","32"
"image-keyboard-response","16","108243","0.0-2.0-11.0","9","3207.1650000289083","","","","Images/TutorialWhiteJarDrawMM.png","32"
"html-keyboard-response","17","124002","0.0-2.0-12.0","9","15757.805000001099","","","","<div class=""container"" style=""height:800px;width:800px;display:flex;flex-direction:column;justify-content:center;align-items:center;text-align:center;font-weight:normal;font-family:Arial;font-size:20px""><p> When the jars are filled with only one color, each bead is guaranteed to have come from the same-colored jar. During these blocks, the best strategy is to use the jar switch probability to predict whether the next bead will be the same or different from the previous trial.<br><br> When the jars contain a mix of black and white beads, you will sometimes see black beads pulled from the mostly white jar, and white beads pulled from the mostly black jar. <br><br>Here is an example.<br><br>Press the SPACEBAR to continue.  </p><div>","32"
"image-keyboard-response","18","128358","0.0-2.0-13.0","9","4353.409999981523","","","","Images/TutorialWhiteJarDrawHMMC.png","32"
"image-keyboard-response","19","130626","0.0-2.0-14.0","9","2266.239999968093","","","","Images/TutorialBlackJarDrawHMMC.png","32"
"image-keyboard-response","20","132484","0.0-2.0-15.0","9","1856.5650000236928","","","","Images/TutorialBlackJarDrawHMMI.png","32"
"html-keyboard-response","21","139032","0.0-2.0-16.0","9","6546.175000024959","","","","<div class=""container"" style=""height:800px;width:800px;display:flex;flex-direction:column;justify-content:center;align-items:center;text-align:center;font-weight:normal;font-family:Arial;font-size:20px""><p> As you observed, a white bead was pulled from a 90% white jar, the jars switched and a black bead was pulled from the 90% black jar, but then low-probability white bead was pulled from the 90% black jar. <br><br>In these mixed-jar blocks, you will first have to figure out which jar the current bead was pulled from, then use the jar switch probability to predict the color of the next bead.<br><br>Press SPACEBAR to conitnue.</p><div>","32"
"html-keyboard-response","22","140864","0.0-2.0-17.0","9","1830.8749999850988","","","","<div class=""container"" style=""height:800px;width:800px;display:flex;flex-direction:column;justify-content:center;align-items:center;text-align:center;font-weight:normal;font-family:Arial;font-size:20px""><p> You will now be given a 3 question quiz to make sure you understand the fundamentals. </p><div>","32"
"image-keyboard-response","23","151208","0.0-2.0-18.0","9","10341.529999976046","","","","Images/TutorialQuestion1.png","39"
"image-keyboard-response","24","157956","0.0-2.0-19.0","9","4129.744999983814","","","","Images/TutorialQuestion2.png","38"
"html-keyboard-response","25","170534","0.0-3.0","9","10981.735000037588","","","","<div class=""container"" style=""height:800px;width:800px;display:flex;flex-direction:column;justify-content:center;align-items:center;text-align:center;font-weight:normal;font-family:Arial;font-size:20px""><p>Loading episode&hellip;</p><div>","32"
"image-keyboard-response","26","173994","0.0-4.0-0.0","9","3455.8349999715574","","","","Images/NoChoice.png","37"
"image-keyboard-response","27","174251","0.0-4.0-1.0","9","null","","","","Images/BlackBeadChoice.png","null"
"image-keyboard-response","28","174768","0.0-4.0-2.0","9","null","","","","Images/BlackBeadChoiceWrong.png","null"
"image-keyboard-response","29","180552","0.0-4.0-0.1","9","5780.494999955408","","","","Images/NewTrialWC.png","39"
"image-keyboard-response","30","180806","0.0-4.0-1.1","9","null","","","","Images/WhiteBeadChoice.png","null"
"image-keyboard-response","31","181309","0.0-4.0-2.1","9","null","","","","Images/WhiteBeadChoiceCorrect.png","null"
"image-keyboard-response","32","182323","0.0-4.0-0.2","9","1010.7750000315718","","","","Images/NewTrialWC.png","39"
"image-keyboard-response","33","182578","0.0-4.0-1.2","9","null","","","","Images/WhiteBeadChoice.png","null"
"image-keyboard-response","34","183093","0.0-4.0-2.2","9","null","","","","Images/WhiteBeadChoiceCorrect.png","null"
"image-keyboard-response","35","183992","0.0-4.0-0.3","9","896.1450000060722","","","","Images/NewTrialWC.png","39"
"image-keyboard-response","36","184243","0.0-4.0-1.3","9","null","","","","Images/WhiteBeadChoice.png","null"
"image-keyboard-response","37","184749","0.0-4.0-2.3","9","null","","","","Images/WhiteBeadChoiceCorrect.png","null"
"image-keyboard-response","38","185605","0.0-4.0-0.4","9","852.5299999746494","","","","Images/NewTrialWC.png","39"
"image-keyboard-response","39","185858","0.0-4.0-1.4","9","null","","","","Images/WhiteBeadChoice.png","null"
"image-keyboard-response","40","186362","0.0-4.0-2.4","9","null","","","","Images/WhiteBeadChoiceCorrect.png","null"
"image-keyboard-response","41","187028","0.0-4.0-0.5","9","663.2100000279024","","","","Images/NewTrialWC.png","39"
"image-keyboard-response","42","187283","0.0-4.0-1.5","9","null","","","","Images/WhiteBeadChoice.png","null"
"image-keyboard-response","43","187787","0.0-4.0-2.5","9","null","","","","Images/WhiteBeadChoiceCorrect.png","null"
"image-keyboard-response","44","188341","0.0-4.0-0.6","9","551.1849999893457","","","","Images/NewTrialWC.png","39"
"image-keyboard-response","45","188599","0.0-4.0-1.6","9","null","","","","Images/WhiteBeadChoice.png","null"
"image-keyboard-response","46","189104","0.0-4.0-2.6","9","null","","","","Images/WhiteBeadChoiceCorrect.png","null"
"image-keyboard-response","47","189587","0.0-4.0-0.7","9","479.9650000059046","","","","Images/NewTrialWC.png","39"
"image-keyboard-response","48","189841","0.0-4.0-1.7","9","null","","","","Images/WhiteBeadChoice.png","null"
"image-keyboard-response","49","190345","0.0-4.0-2.7","9","null","","","","Images/WhiteBeadChoiceCorrect.png","null"
"image-keyboard-response","50","190869","0.0-4.0-0.8","9","521.439999982249","","","","Images/NewTrialWC.png","39"
"image-keyboard-response","51","191136","0.0-4.0-1.8","9","null","","","","Images/WhiteBeadChoice.png","null"
"image-keyboard-response","52","191643","0.0-4.0-2.8","9","null","","","","Images/WhiteBeadChoiceCorrect.png","null"
"image-keyboard-response","53","192162","0.0-4.0-0.9","9","516.2499999860302","","","","Images/NewTrialWC.png","39"
"image-keyboard-response","54","192418","0.0-4.0-1.9","9","null","","","","Images/WhiteBeadChoice.png","null"
"image-keyboard-response","55","192923","0.0-4.0-2.9","9","null","","","","Images/WhiteBeadChoiceCorrect.png","null"
"image-keyboard-response","56","193345","0.0-4.0-0.10","9","419.0449999878183","","","","Images/NewTrialWC.png","39"
"image-keyboard-response","57","193601","0.0-4.0-1.10","9","null","","","","Images/WhiteBeadChoice.png","null"
"image-keyboard-response","58","194110","0.0-4.0-2.10","9","null","","","","Images/WhiteBeadChoiceCorrect.png","null"
"image-keyboard-response","59","194653","0.0-4.0-0.11","9","540.7099999720231","","","","Images/NewTrialWC.png","39"
"image-keyboard-response","60","194921","0.0-4.0-1.11","9","null","","","","Images/WhiteBeadChoice.png","null"
"image-keyboard-response","61","195427","0.0-4.0-2.11","9","null","","","","Images/WhiteBeadChoiceWrong.png","null"
"image-keyboard-response","62","197205","0.0-4.0-0.12","9","1776.335000002291","","","","Images/NewTrialBC.png","39"
"image-keyboard-response","63","197461","0.0-4.0-1.12","9","null","","","","Images/WhiteBeadChoice.png","null"
"image-keyboard-response","64","197974","0.0-4.0-2.12","9","null","","","","Images/WhiteBeadChoiceCorrect.png","null"
"image-keyboard-response","65","198624","0.0-4.0-0.13","9","647.5249999784864","","","","Images/NewTrialWC.png","39"
"image-keyboard-response","66","198879","0.0-4.0-1.13","9","null","","","","Images/WhiteBeadChoice.png","null"
"image-keyboard-response","67","199386","0.0-4.0-2.13","9","null","","","","Images/WhiteBeadChoiceWrong.png","null"
"image-keyboard-response","68","201467","0.0-4.0-0.14","9","2078.1849999912083","","","","Images/NewTrialBC.png","39"
"image-keyboard-response","69","201735","0.0-4.0-1.14","9","null","","","","Images/WhiteBeadChoice.png","null"
"image-keyboard-response","70","202245","0.0-4.0-2.14","9","null","","","","Images/WhiteBeadChoiceCorrect.png","null"
"image-keyboard-response","71","202732","0.0-4.0-0.15","9","485.5749999987893","","","","Images/NewTrialWC.png","39"
"image-keyboard-response","72","203002","0.0-4.0-1.15","9","null","","","","Images/WhiteBeadChoice.png","null"
"image-keyboard-response","73","203513","0.0-4.0-2.15","9","null","","","","Images/WhiteBeadChoiceCorrect.png","null"
"image-keyboard-response","74","203939","0.0-4.0-0.16","9","423.01500000758097","","","","Images/NewTrialWC.png","39"
"image-keyboard-response","75","204192","0.0-4.0-1.16","9","null","","","","Images/WhiteBeadChoice.png","null"
"image-keyboard-response","76","204698","0.0-4.0-2.16","9","null","","","","Images/WhiteBeadChoiceCorrect.png","null"
"image-keyboard-response","77","205093","0.0-4.0-0.17","9","393.2600000407547","","","","Images/NewTrialWC.png","39"
"image-keyboard-response","78","205361","0.0-4.0-1.17","9","null","","","","Images/WhiteBeadChoice.png","null"
"image-keyboard-response","79","205876","0.0-4.0-2.17","9","null","","","","Images/WhiteBeadChoiceWrong.png","null"
"image-keyboard-response","80","207208","0.0-4.0-0.18","9","1329.6849999460392","","","","Images/NewTrialBC.png","39"
"image-keyboard-response","81","207460","0.0-4.0-1.18","9","null","","","","Images/WhiteBeadChoice.png","null"
"image-keyboard-response","82","207981","0.0-4.0-2.18","9","null","","","","Images/WhiteBeadChoiceCorrect.png","null"
"image-keyboard-response","83","208537","0.0-4.0-0.19","9","554.9450000398792","","","","Images/NewTrialWC.png","39"
"image-keyboard-response","84","208790","0.0-4.0-1.19","9","null","","","","Images/WhiteBeadChoice.png","null"
"image-keyboard-response","85","209295","0.0-4.0-2.19","9","null","","","","Images/WhiteBeadChoiceWrong.png","null"
"image-keyboard-response","86","211019","0.0-4.0-0.20","9","1722.3200000007637","","","","Images/NewTrialBC.png","37"
"image-keyboard-response","87","211277","0.0-4.0-1.20","9","null","","","","Images/BlackBeadChoice.png","null"
"image-keyboard-response","88","211792","0.0-4.0-2.20","9","null","","","","Images/BlackBeadChoiceCorrect.png","null"
"image-keyboard-response","89","212333","0.0-4.0-0.21","9","538.7600000249222","","","","Images/NewTrialBC.png","37"
"image-keyboard-response","90","212595","0.0-4.0-1.21","9","null","","","","Images/BlackBeadChoice.png","null"
"image-keyboard-response","91","213102","0.0-4.0-2.21","9","null","","","","Images/BlackBeadChoiceCorrect.png","null"
"image-keyboard-response","92","213576","0.0-4.0-0.22","9","470.88999999687076","","","","Images/NewTrialBC.png","37"
"image-keyboard-response","93","213835","0.0-4.0-1.22","9","null","","","","Images/BlackBeadChoice.png","null"
"image-keyboard-response","94","214356","0.0-4.0-2.22","9","null","","","","Images/BlackBeadChoiceCorrect.png","null"
"image-keyboard-response","95","214783","0.0-4.0-0.23","9","425.6549999699928","","","","Images/NewTrialBC.png","37"
"image-keyboard-response","96","215038","0.0-4.0-1.23","9","null","","","","Images/BlackBeadChoice.png","null"
"image-keyboard-response","97","215541","0.0-4.0-2.23","9","null","","","","Images/BlackBeadChoiceCorrect.png","null"
"image-keyboard-response","98","215931","0.0-4.0-0.24","9","387.3800000292249","","","","Images/NewTrialBC.png","37"
"image-keyboard-response","99","216194","0.0-4.0-1.24","9","null","","","","Images/BlackBeadChoice.png","null"
"image-keyboard-response","100","216720","0.0-4.0-2.24","9","null","","","","Images/BlackBeadChoiceCorrect.png","null"
"image-keyboard-response","101","217121","0.0-4.0-0.25","9","398.0349999619648","","","","Images/NewTrialBC.png","37"
"image-keyboard-response","102","217376","0.0-4.0-1.25","9","null","","","","Images/BlackBeadChoice.png","null"
"image-keyboard-response","103","217883","0.0-4.0-2.25","9","null","","","","Images/BlackBeadChoiceWrong.png","null"
"image-keyboard-response","104","219169","0.0-4.0-0.26","9","1283.5549999726936","","","","Images/NewTrialWC.png","37"
"image-keyboard-response","105","219434","0.0-4.0-1.26","9","null","","","","Images/BlackBeadChoice.png","null"
"image-keyboard-response","106","219939","0.0-4.0-2.26","9","null","","","","Images/BlackBeadChoiceWrong.png","null"
"image-keyboard-response","107","220273","0.0-4.0-0.27","9","332.0600000442937","","","","Images/NewTrialWC.png","39"
"image-keyboard-response","108","220526","0.0-4.0-1.27","9","null","","","","Images/WhiteBeadChoice.png","null"
"image-keyboard-response","109","221042","0.0-4.0-2.27","9","null","","","","Images/WhiteBeadChoiceCorrect.png","null"
"image-keyboard-response","110","221498","0.0-4.0-0.28","9","453.87500000651926","","","","Images/NewTrialWC.png","39"
"image-keyboard-response","111","221754","0.0-4.0-1.28","9","null","","","","Images/WhiteBeadChoice.png","null"
"image-keyboard-response","112","222259","0.0-4.0-2.28","9","null","","","","Images/WhiteBeadChoiceWrong.png","null"
"image-keyboard-response","113","223978","0.0-4.0-0.29","9","1717.015000001993","","","","Images/NewTrialBC.png","39"
"image-keyboard-response","114","224233","0.0-4.0-1.29","9","null","","","","Images/WhiteBeadChoice.png","null"
"image-keyboard-response","115","224751","0.0-4.0-2.29","9","null","","","","Images/WhiteBeadChoiceCorrect.png","null"
"image-keyboard-response","116","225149","0.0-4.0-0.30","9","395.20999998785555","","","","Images/NewTrialWC.png","39"
"image-keyboard-response","117","225414","0.0-4.0-1.30","9","null","","","","Images/WhiteBeadChoice.png","null"
"image-keyboard-response","118","225922","0.0-4.0-2.30","9","null","","","","Images/WhiteBeadChoiceCorrect.png","null"
"image-keyboard-response","119","226302","0.0-4.0-0.31","9","377.22999998368323","","","","Images/NewTrialWC.png","39"
"image-keyboard-response","120","226571","0.0-4.0-1.31","9","null","","","","Images/WhiteBeadChoice.png","null"
"image-keyboard-response","121","227075","0.0-4.0-2.31","9","null","","","","Images/WhiteBeadChoiceCorrect.png","null"
"image-keyboard-response","122","227402","0.0-4.0-0.32","9","324.7550000087358","","","","Images/NewTrialWC.png","39"
"image-keyboard-response","123","227658","0.0-4.0-1.32","9","null","","","","Images/WhiteBeadChoice.png","null"
"image-keyboard-response","124","228175","0.0-4.0-2.32","9","null","","","","Images/WhiteBeadChoiceCorrect.png","null"
"image-keyboard-response","125","228574","0.0-4.0-0.33","9","396.66999998735264","","","","Images/NewTrialWC.png","39"
"image-keyboard-response","126","228829","0.0-4.0-1.33","9","null","","","","Images/WhiteBeadChoice.png","null"
"image-keyboard-response","127","229333","0.0-4.0-2.33","9","null","","","","Images/WhiteBeadChoiceCorrect.png","null"
"image-keyboard-response","128","229769","0.0-4.0-0.34","9","433.1399999791756","","","","Images/NewTrialWC.png","39"
"image-keyboard-response","129","230027","0.0-4.0-1.34","9","null","","","","Images/WhiteBeadChoice.png","null"
"image-keyboard-response","130","230543","0.0-4.0-2.34","9","null","","","","Images/WhiteBeadChoiceWrong.png","null"
"image-keyboard-response","131","230954","0.0-4.0-0.35","9","408.6999999708496","","","","Images/NewTrialBC.png","39"
"image-keyboard-response","132","231210","0.0-4.0-1.35","9","null","","","","Images/WhiteBeadChoice.png","null"
"image-keyboard-response","133","231713","0.0-4.0-2.35","9","null","","","","Images/WhiteBeadChoiceCorrect.png","null"
"image-keyboard-response","134","232195","0.0-4.0-0.36","9","479.92000001249835","","","","Images/NewTrialWC.png","39"
"image-keyboard-response","135","232448","0.0-4.0-1.36","9","null","","","","Images/WhiteBeadChoice.png","null"
"image-keyboard-response","136","232954","0.0-4.0-2.36","9","null","","","","Images/WhiteBeadChoiceCorrect.png","null"
"image-keyboard-response","137","233324","0.0-4.0-0.37","9","368.2700000354089","","","","Images/NewTrialWC.png","39"
"image-keyboard-response","138","233578","0.0-4.0-1.37","9","null","","","","Images/WhiteBeadChoice.png","null"
"image-keyboard-response","139","234097","0.0-4.0-2.37","9","null","","","","Images/WhiteBeadChoiceWrong.png","null"
"image-keyboard-response","140","234502","0.0-4.0-0.38","9","402.4199999985285","","","","Images/NewTrialBC.png","39"
"image-keyboard-response","141","234754","0.0-4.0-1.38","9","null","","","","Images/WhiteBeadChoice.png","null"
"image-keyboard-response","142","235258","0.0-4.0-2.38","9","null","","","","Images/WhiteBeadChoiceCorrect.png","null"
"image-keyboard-response","143","235688","0.0-4.0-0.39","9","427.1300000254996","","","","Images/NewTrialWC.png","39"
"image-keyboard-response","144","235942","0.0-4.0-1.39","9","null","","","","Images/WhiteBeadChoice.png","null"
"image-keyboard-response","145","236459","0.0-4.0-2.39","9","null","","","","Images/WhiteBeadChoiceWrong.png","null"
"image-keyboard-response","146","236851","0.0-4.0-0.40","9","389.22499999171123","","","","Images/NewTrialBC.png","39"
"image-keyboard-response","147","237111","0.0-4.0-1.40","9","null","","","","Images/WhiteBeadChoice.png","null"
"image-keyboard-response","148","237615","0.0-4.0-2.40","9","null","","","","Images/WhiteBeadChoiceWrong.png","null"
"image-keyboard-response","149","237983","0.0-4.0-0.41","9","365.6499999924563","","","","Images/NewTrialBC.png","37"
"image-keyboard-response","150","238238","0.0-4.0-1.41","9","null","","","","Images/BlackBeadChoice.png","null"
"image-keyboard-response","151","238749","0.0-4.0-2.41","9","null","","","","Images/BlackBeadChoiceCorrect.png","null"
"image-keyboard-response","152","239134","0.0-4.0-0.42","9","383.13500001095235","","","","Images/NewTrialBC.png","37"
"image-keyboard-response","153","239399","0.0-4.0-1.42","9","null","","","","Images/BlackBeadChoice.png","null"
"image-keyboard-response","154","239904","0.0-4.0-2.42","9","null","","","","Images/BlackBeadChoiceCorrect.png","null"
"image-keyboard-response","155","240182","0.0-4.0-0.43","9","275.35000001080334","","","","Images/NewTrialBC.png","37"
"image-keyboard-response","156","240436","0.0-4.0-1.43","9","null","","","","Images/BlackBeadChoice.png","null"
"image-keyboard-response","157","240948","0.0-4.0-2.43","9","null","","","","Images/BlackBeadChoiceWrong.png","null"
"image-keyboard-response","158","241302","0.0-4.0-0.44","9","351.4549999963492","","","","Images/NewTrialWC.png","37"
"image-keyboard-response","159","241569","0.0-4.0-1.44","9","null","","","","Images/BlackBeadChoice.png","null"
"image-keyboard-response","160","242076","0.0-4.0-2.44","9","null","","","","Images/BlackBeadChoiceWrong.png","null"
"image-keyboard-response","161","242376","0.0-4.0-0.45","9","297.64499998418614","","","","Images/NewTrialWC.png","39"
"image-keyboard-response","162","242629","0.0-4.0-1.45","9","null","","","","Images/WhiteBeadChoice.png","null"
"image-keyboard-response","163","243141","0.0-4.0-2.45","9","null","","","","Images/WhiteBeadChoiceCorrect.png","null"
"image-keyboard-response","164","243614","0.0-4.0-0.46","9","471.3800000026822","","","","Images/NewTrialWC.png","39"
"image-keyboard-response","165","243868","0.0-4.0-1.46","9","null","","","","Images/WhiteBeadChoice.png","null"
"image-keyboard-response","166","244375","0.0-4.0-2.46","9","null","","","","Images/WhiteBeadChoiceWrong.png","null"
"image-keyboard-response","167","244945","0.0-4.0-0.47","9","567.6450000028126","","","","Images/NewTrialBC.png","39"
"image-keyboard-response","168","245198","0.0-4.0-1.47","9","null","","","","Images/WhiteBeadChoice.png","null"
"image-keyboard-response","169","245705","0.0-4.0-2.47","9","null","","","","Images/WhiteBeadChoiceWrong.png","null"
"image-keyboard-response","170","246022","0.0-4.0-0.48","9","314.51999995624647","","","","Images/NewTrialBC.png","37"
"image-keyboard-response","171","246286","0.0-4.0-1.48","9","null","","","","Images/BlackBeadChoice.png","null"
"image-keyboard-response","172","246792","0.0-4.0-2.48","9","null","","","","Images/BlackBeadChoiceCorrect.png","null"
"image-keyboard-response","173","247190","0.0-4.0-0.49","9","394.5850000018254","","","","Images/NewTrialBC.png","37"
"image-keyboard-response","174","247445","0.0-4.0-1.49","9","null","","","","Images/BlackBeadChoice.png","null"
"image-keyboard-response","175","247956","0.0-4.0-2.49","9","null","","","","Images/BlackBeadChoiceCorrect.png","null"
"image-keyboard-response","176","248342","0.0-4.0-0.50","9","384.444999974221","","","","Images/NewTrialBC.png","37"
"image-keyboard-response","177","248597","0.0-4.0-1.50","9","null","","","","Images/BlackBeadChoice.png","null"
"image-keyboard-response","178","249100","0.0-4.0-2.50","9","null","","","","Images/BlackBeadChoiceCorrect.png","null"
"image-keyboard-response","179","249443","0.0-4.0-0.51","9","341.27000003354624","","","","Images/NewTrialBC.png","37"
"image-keyboard-response","180","249708","0.0-4.0-1.51","9","null","","","","Images/BlackBeadChoice.png","null"
"image-keyboard-response","181","250214","0.0-4.0-2.51","9","null","","","","Images/BlackBeadChoiceWrong.png","null"
"image-keyboard-response","182","250674","0.0-4.0-0.52","9","457.265000033658","","","","Images/NewTrialWC.png","37"
"image-keyboard-response","183","250943","0.0-4.0-1.52","9","null","","","","Images/BlackBeadChoice.png","null"
"image-keyboard-response","184","251446","0.0-4.0-2.52","9","null","","","","Images/BlackBeadChoiceCorrect.png","null"
"image-keyboard-response","185","251795","0.0-4.0-0.53","9","346.14999999757856","","","","Images/NewTrialBC.png","37"
"image-keyboard-response","186","252051","0.0-4.0-1.53","9","null","","","","Images/BlackBeadChoice.png","null"
"image-keyboard-response","187","252563","0.0-4.0-2.53","9","null","","","","Images/BlackBeadChoiceCorrect.png","null"
"image-keyboard-response","188","252857","0.0-4.0-0.54","9","291.9200000469573","","","","Images/NewTrialBC.png","37"
"image-keyboard-response","189","253110","0.0-4.0-1.54","9","null","","","","Images/BlackBeadChoice.png","null"
"image-keyboard-response","190","253616","0.0-4.0-2.54","9","null","","","","Images/BlackBeadChoiceCorrect.png","null"
"image-keyboard-response","191","253992","0.0-4.0-0.55","9","374.10499999532476","","","","Images/NewTrialBC.png","37"
"image-keyboard-response","192","254247","0.0-4.0-1.55","9","null","","","","Images/BlackBeadChoice.png","null"
"image-keyboard-response","193","254766","0.0-4.0-2.55","9","null","","","","Images/BlackBeadChoiceCorrect.png","null"
"image-keyboard-response","194","255047","0.0-4.0-0.56","9","278.3550000167452","","","","Images/NewTrialBC.png","37"
"image-keyboard-response","195","255311","0.0-4.0-1.56","9","null","","","","Images/BlackBeadChoice.png","null"
"image-keyboard-response","196","255815","0.0-4.0-2.56","9","null","","","","Images/BlackBeadChoiceWrong.png","null"
"image-keyboard-response","197","256129","0.0-4.0-0.57","9","311.5949999773875","","","","Images/NewTrialWC.png","37"
"image-keyboard-response","198","256385","0.0-4.0-1.57","9","null","","","","Images/BlackBeadChoice.png","null"
"image-keyboard-response","199","256904","0.0-4.0-2.57","9","null","","","","Images/BlackBeadChoiceCorrect.png","null"
"image-keyboard-response","200","257231","0.0-4.0-0.58","9","324.7599999886006","","","","Images/NewTrialBC.png","37"
"image-keyboard-response","201","257488","0.0-4.0-1.58","9","null","","","","Images/BlackBeadChoice.png","null"
"image-keyboard-response","202","257994","0.0-4.0-2.58","9","null","","","","Images/BlackBeadChoiceCorrect.png","null"
"image-keyboard-response","203","258212","0.0-4.0-0.59","9","214.88500002305955","","","","Images/NewTrialBC.png","37"
"image-keyboard-response","204","258465","0.0-4.0-1.59","9","null","","","","Images/BlackBeadChoice.png","null"
"image-keyboard-response","205","258978","0.0-4.0-2.59","9","null","","","","Images/BlackBeadChoiceCorrect.png","null"
"image-keyboard-response","206","259280","0.0-4.0-0.60","9","299.82999997446314","","","","Images/NewTrialBC.png","37"
"image-keyboard-response","207","259548","0.0-4.0-1.60","9","null","","","","Images/BlackBeadChoice.png","null"
"image-keyboard-response","208","260051","0.0-4.0-2.60","9","null","","","","Images/BlackBeadChoiceCorrect.png","null"
"image-keyboard-response","209","260361","0.0-4.0-0.61","9","307.8850000165403","","","","Images/NewTrialBC.png","37"
"image-keyboard-response","210","260616","0.0-4.0-1.61","9","null","","","","Images/BlackBeadChoice.png","null"
"image-keyboard-response","211","261128","0.0-4.0-2.61","9","null","","","","Images/BlackBeadChoiceCorrect.png","null"
"image-keyboard-response","212","261490","0.0-4.0-0.62","9","359.49499998241663","","","","Images/NewTrialBC.png","37"
"image-keyboard-response","213","261748","0.0-4.0-1.62","9","null","","","","Images/BlackBeadChoice.png","null"
"image-keyboard-response","214","262254","0.0-4.0-2.62","9","null","","","","Images/BlackBeadChoiceWrong.png","null"
"image-keyboard-response","215","262604","0.0-4.0-0.63","9","347.74999995715916","","","","Images/NewTrialWC.png","37"
"image-keyboard-response","216","262862","0.0-4.0-1.63","9","null","","","","Images/BlackBeadChoice.png","null"
"image-keyboard-response","217","263366","0.0-4.0-2.63","9","null","","","","Images/BlackBeadChoiceWrong.png","null"
"image-keyboard-response","218","263889","0.0-4.0-0.64","9","520.699999993667","","","","Images/NewTrialWC.png","39"
"image-keyboard-response","219","264141","0.0-4.0-1.64","9","null","","","","Images/WhiteBeadChoice.png","null"
"image-keyboard-response","220","264648","0.0-4.0-2.64","9","null","","","","Images/WhiteBeadChoiceWrong.png","null"
"image-keyboard-response","221","265048","0.0-4.0-0.65","9","397.19499996863306","","","","Images/NewTrialBC.png","37"
"image-keyboard-response","222","265302","0.0-4.0-1.65","9","null","","","","Images/BlackBeadChoice.png","null"
"image-keyboard-response","223","265816","0.0-4.0-2.65","9","null","","","","Images/BlackBeadChoiceWrong.png","null"
"image-keyboard-response","224","266497","0.0-4.0-0.66","9","677.9850000166334","","","","Images/NewTrialWC.png","39"
"image-keyboard-response","225","266760","0.0-4.0-1.66","9","null","","","","Images/WhiteBeadChoice.png","null"
"image-keyboard-response","226","267273","0.0-4.0-2.66","9","null","","","","Images/WhiteBeadChoiceCorrect.png","null"
"image-keyboard-response","227","267677","0.0-4.0-0.67","9","401.6499999561347","","","","Images/NewTrialWC.png","39"
"image-keyboard-response","228","267945","0.0-4.0-1.67","9","null","","","","Images/WhiteBeadChoice.png","null"
"image-keyboard-response","229","268455","0.0-4.0-2.67","9","null","","","","Images/WhiteBeadChoiceCorrect.png","null"
"image-keyboard-response","230","268808","0.0-4.0-0.68","9","350.70000000996515","","","","Images/NewTrialWC.png","39"
"image-keyboard-response","231","269062","0.0-4.0-1.68","9","null","","","","Images/WhiteBeadChoice.png","null"
"image-keyboard-response","232","269568","0.0-4.0-2.68","9","null","","","","Images/WhiteBeadChoiceCorrect.png","null"
"image-keyboard-response","233","269946","0.0-4.0-0.69","9","375.29500003438443","","","","Images/NewTrialWC.png","39"
"image-keyboard-response","234","270209","0.0-4.0-1.69","9","null","","","","Images/WhiteBeadChoice.png","null"
"image-keyboard-response","235","270713","0.0-4.0-2.69","9","null","","","","Images/WhiteBeadChoiceCorrect.png","null"
"image-keyboard-response","236","271101","0.0-4.0-0.70","9","385.4099999880418","","","","Images/NewTrialWC.png","39"
"image-keyboard-response","237","271356","0.0-4.0-1.70","9","null","","","","Images/WhiteBeadChoice.png","null"
"image-keyboard-response","238","271871","0.0-4.0-2.70","9","null","","","","Images/WhiteBeadChoiceCorrect.png","null"
"image-keyboard-response","239","272358","0.0-4.0-0.71","9","484.7699999809265","","","","Images/NewTrialWC.png","39"
"image-keyboard-response","240","272617","0.0-4.0-1.71","9","null","","","","Images/WhiteBeadChoice.png","null"
"image-keyboard-response","241","273125","0.0-4.0-2.71","9","null","","","","Images/WhiteBeadChoiceCorrect.png","null"
"image-keyboard-response","242","273591","0.0-4.0-0.72","9","463.39499996975064","","","","Images/NewTrialWC.png","39"
"image-keyboard-response","243","273847","0.0-4.0-1.72","9","null","","","","Images/WhiteBeadChoice.png","null"
"image-keyboard-response","244","274350","0.0-4.0-2.72","9","null","","","","Images/WhiteBeadChoiceCorrect.png","null"
"image-keyboard-response","245","274716","0.0-4.0-0.73","9","363.6500000138767","","","","Images/NewTrialWC.png","39"
"image-keyboard-response","246","274972","0.0-4.0-1.73","9","null","","","","Images/WhiteBeadChoice.png","null"
"image-keyboard-response","247","275481","0.0-4.0-2.73","9","null","","","","Images/WhiteBeadChoiceCorrect.png","null"
"image-keyboard-response","248","275851","0.0-4.0-0.74","9","366.99499998940155","","","","Images/NewTrialWC.png","39"
"image-keyboard-response","249","276118","0.0-4.0-1.74","9","null","","","","Images/WhiteBeadChoice.png","null"
"image-keyboard-response","250","276622","0.0-4.0-2.74","9","null","","","","Images/WhiteBeadChoiceWrong.png","null"
"image-keyboard-response","251","276973","0.0-4.0-0.75","9","346.674999978859","","","","Images/NewTrialBC.png","39"
"image-keyboard-response","252","277230","0.0-4.0-1.75","9","null","","","","Images/WhiteBeadChoice.png","null"
"image-keyboard-response","253","277735","0.0-4.0-2.75","9","null","","","","Images/WhiteBeadChoiceCorrect.png","null"
"image-keyboard-response","254","278088","0.0-4.0-0.76","9","350.64999997848645","","","","Images/NewTrialWC.png","39"
"image-keyboard-response","255","278342","0.0-4.0-1.76","9","null","","","","Images/WhiteBeadChoice.png","null"
"image-keyboard-response","256","278847","0.0-4.0-2.76","9","null","","","","Images/WhiteBeadChoiceWrong.png","null"
"image-keyboard-response","257","279159","0.0-4.0-0.77","9","309.56500000320375","","","","Images/NewTrialBC.png","39"
"image-keyboard-response","258","279429","0.0-4.0-1.77","9","null","","","","Images/WhiteBeadChoice.png","null"
"image-keyboard-response","259","279946","0.0-4.0-2.77","9","null","","","","Images/WhiteBeadChoiceWrong.png","null"
"image-keyboard-response","260","280275","0.0-4.0-0.78","9","327.04999996349216","","","","Images/NewTrialBC.png","37"
"image-keyboard-response","261","280551","0.0-4.0-1.78","9","null","","","","Images/BlackBeadChoice.png","null"
"image-keyboard-response","262","281059","0.0-4.0-2.78","9","null","","","","Images/BlackBeadChoiceCorrect.png","null"
"image-keyboard-response","263","281438","0.0-4.0-0.79","9","376.98500003898516","","","","Images/NewTrialBC.png","37"
"image-keyboard-response","264","281698","0.0-4.0-1.79","9","null","","","","Images/BlackBeadChoice.png","null"
"image-keyboard-response","265","282207","0.0-4.0-2.79","9","null","","","","Images/BlackBeadChoiceCorrect.png","null"
"image-keyboard-response","266","282575","0.0-4.0-0.80","9","365.4549999628216","","","","Images/NewTrialBC.png","37"
"image-keyboard-response","267","282830","0.0-4.0-1.80","9","null","","","","Images/BlackBeadChoice.png","null"
"image-keyboard-response","268","283345","0.0-4.0-2.80","9","null","","","","Images/BlackBeadChoiceWrong.png","null"
"image-keyboard-response","269","285041","0.0-4.0-0.81","9","1693.1850000401028","","","","Images/NewTrialWC.png","37"
"image-keyboard-response","270","285306","0.0-4.0-1.81","9","null","","","","Images/BlackBeadChoice.png","null"
"image-keyboard-response","271","285808","0.0-4.0-2.81","9","null","","","","Images/BlackBeadChoiceCorrect.png","null"
"image-keyboard-response","272","286175","0.0-4.0-0.82","9","364.6450000233017","","","","Images/NewTrialBC.png","37"
"image-keyboard-response","273","286434","0.0-4.0-1.82","9","null","","","","Images/BlackBeadChoice.png","null"
"image-keyboard-response","274","286948","0.0-4.0-2.82","9","null","","","","Images/BlackBeadChoiceCorrect.png","null"
"image-keyboard-response","275","287296","0.0-4.0-0.83","9","346.9049999839626","","","","Images/NewTrialBC.png","37"
"image-keyboard-response","276","287549","0.0-4.0-1.83","9","null","","","","Images/BlackBeadChoice.png","null"
"image-keyboard-response","277","288054","0.0-4.0-2.83","9","null","","","","Images/BlackBeadChoiceCorrect.png","null"
"image-keyboard-response","278","288375","0.0-4.0-0.84","9","318.54000000748783","","","","Images/NewTrialBC.png","37"
"image-keyboard-response","279","288633","0.0-4.0-1.84","9","null","","","","Images/BlackBeadChoice.png","null"
"image-keyboard-response","280","289136","0.0-4.0-2.84","9","null","","","","Images/BlackBeadChoiceCorrect.png","null"
"image-keyboard-response","281","289526","0.0-4.0-0.85","9","386.82499999413267","","","","Images/NewTrialBC.png","37"
"image-keyboard-response","282","289786","0.0-4.0-1.85","9","null","","","","Images/BlackBeadChoice.png","null"
"image-keyboard-response","283","290314","0.0-4.0-2.85","9","null","","","","Images/BlackBeadChoiceCorrect.png","null"
"image-keyboard-response","284","290650","0.0-4.0-0.86","9","333.9799999957904","","","","Images/NewTrialBC.png","37"
"image-keyboard-response","285","290904","0.0-4.0-1.86","9","null","","","","Images/BlackBeadChoice.png","null"
"image-keyboard-response","286","291408","0.0-4.0-2.86","9","null","","","","Images/BlackBeadChoiceCorrect.png","null"
"image-keyboard-response","287","291786","0.0-4.0-0.87","9","375.1150000025518","","","","Images/NewTrialBC.png","37"
"image-keyboard-response","288","292039","0.0-4.0-1.87","9","null","","","","Images/BlackBeadChoice.png","null"
"image-keyboard-response","289","292548","0.0-4.0-2.87","9","null","","","","Images/BlackBeadChoiceCorrect.png","null"
"image-keyboard-response","290","292912","0.0-4.0-0.88","9","361.5550000104122","","","","Images/NewTrialBC.png","37"
"image-keyboard-response","291","293168","0.0-4.0-1.88","9","null","","","","Images/BlackBeadChoice.png","null"
"image-keyboard-response","292","293676","0.0-4.0-2.88","9","null","","","","Images/BlackBeadChoiceCorrect.png","null"
"image-keyboard-response","293","294078","0.0-4.0-0.89","9","400.034999998752","","","","Images/NewTrialBC.png","37"
"image-keyboard-response","294","294343","0.0-4.0-1.89","9","null","","","","Images/BlackBeadChoice.png","null"
"image-keyboard-response","295","294848","0.0-4.0-2.89","9","null","","","","Images/BlackBeadChoiceCorrect.png","null"
"image-keyboard-response","296","295248","0.0-4.0-0.90","9","398.57499999925494","","","","Images/NewTrialBC.png","37"
"image-keyboard-response","297","295500","0.0-4.0-1.90","9","null","","","","Images/BlackBeadChoice.png","null"
"image-keyboard-response","298","296023","0.0-4.0-2.90","9","null","","","","Images/BlackBeadChoiceCorrect.png","null"
"image-keyboard-response","299","296343","0.0-4.0-0.91","9","318.509999953676","","","","Images/NewTrialBC.png","37"
"image-keyboard-response","300","296604","0.0-4.0-1.91","9","null","","","","Images/BlackBeadChoice.png","null"
"image-keyboard-response","301","297110","0.0-4.0-2.91","9","null","","","","Images/BlackBeadChoiceCorrect.png","null"
"image-keyboard-response","302","297474","0.0-4.0-0.92","9","361.5500000305474","","","","Images/NewTrialBC.png","37"
"image-keyboard-response","303","297736","0.0-4.0-1.92","9","null","","","","Images/BlackBeadChoice.png","null"
"image-keyboard-response","304","298246","0.0-4.0-2.92","9","null","","","","Images/BlackBeadChoiceWrong.png","null"
"image-keyboard-response","305","298613","0.0-4.0-0.93","9","364.0699999523349","","","","Images/NewTrialWC.png","37"
"image-keyboard-response","306","298867","0.0-4.0-1.93","9","null","","","","Images/BlackBeadChoice.png","null"
"image-keyboard-response","307","299369","0.0-4.0-2.93","9","null","","","","Images/BlackBeadChoiceWrong.png","null"
"image-keyboard-response","308","299705","0.0-4.0-0.94","9","333.0450000357814","","","","Images/NewTrialWC.png","39"
"image-keyboard-response","309","299962","0.0-4.0-1.94","9","null","","","","Images/WhiteBeadChoice.png","null"
"image-keyboard-response","310","300467","0.0-4.0-2.94","9","null","","","","Images/WhiteBeadChoiceCorrect.png","null"
"image-keyboard-response","311","300938","0.0-4.0-0.95","9","469.07999995164573","","","","Images/NewTrialWC.png","39"
"image-keyboard-response","312","301196","0.0-4.0-1.95","9","null","","","","Images/WhiteBeadChoice.png","null"
"image-keyboard-response","313","301700","0.0-4.0-2.95","9","null","","","","Images/WhiteBeadChoiceCorrect.png","null"
"image-keyboard-response","314","302118","0.0-4.0-0.96","9","415.4800000251271","","","","Images/NewTrialWC.png","39"
"image-keyboard-response","315","302377","0.0-4.0-1.96","9","null","","","","Images/WhiteBeadChoice.png","null"
"image-keyboard-response","316","302882","0.0-4.0-2.96","9","null","","","","Images/WhiteBeadChoiceCorrect.png","null"
"image-keyboard-response","317","303200","0.0-4.0-0.97","9","315.5200000037439","","","","Images/NewTrialWC.png","39"
"image-keyboard-response","318","303456","0.0-4.0-1.97","9","null","","","","Images/WhiteBeadChoice.png","null"
"image-keyboard-response","319","303963","0.0-4.0-2.97","9","null","","","","Images/WhiteBeadChoiceCorrect.png","null"
"image-keyboard-response","320","304385","0.0-4.0-0.98","9","420.60999997192994","","","","Images/NewTrialWC.png","39"
"image-keyboard-response","321","304649","0.0-4.0-1.98","9","null","","","","Images/WhiteBeadChoice.png","null"
"image-keyboard-response","322","305152","0.0-4.0-2.98","9","null","","","","Images/WhiteBeadChoiceCorrect.png","null"
"image-keyboard-response","323","305554","0.0-4.0-0.99","9","401.4200000092387","","","","Images/NewTrialWC.png","39"
"image-keyboard-response","324","305808","0.0-4.0-1.99","9","null","","","","Images/WhiteBeadChoice.png","null"
"image-keyboard-response","325","306328","0.0-4.0-2.99","9","null","","","","Images/WhiteBeadChoiceCorrect.png","null"
"image-keyboard-response","326","306737","0.0-4.0-0.100","9","407.2150000138208","","","","Images/NewTrialWC.png","39"
"image-keyboard-response","327","306991","0.0-4.0-1.100","9","null","","","","Images/WhiteBeadChoice.png","null"
"image-keyboard-response","328","307494","0.0-4.0-2.100","9","null","","","","Images/WhiteBeadChoiceCorrect.png","null"
"image-keyboard-response","329","307860","0.0-4.0-0.101","9","363.6500000138767","","","","Images/NewTrialWC.png","39"
"image-keyboard-response","330","308117","0.0-4.0-1.101","9","null","","","","Images/WhiteBeadChoice.png","null"
"image-keyboard-response","331","308622","0.0-4.0-2.101","9","null","","","","Images/WhiteBeadChoiceCorrect.png","null"
"image-keyboard-response","332","309070","0.0-4.0-0.102","9","445.78499998897314","","","","Images/NewTrialWC.png","39"
"image-keyboard-response","333","309324","0.0-4.0-1.102","9","null","","","","Images/WhiteBeadChoice.png","null"
"image-keyboard-response","334","309834","0.0-4.0-2.102","9","null","","","","Images/WhiteBeadChoiceCorrect.png","null"
"image-keyboard-response","335","310228","0.0-4.0-0.103","9","391.5699999779463","","","","Images/NewTrialWC.png","39"
"image-keyboard-response","336","310485","0.0-4.0-1.103","9","null","","","","Images/WhiteBeadChoice.png","null"
"image-keyboard-response","337","310989","0.0-4.0-2.103","9","null","","","","Images/WhiteBeadChoiceWrong.png","null"
"image-keyboard-response","338","311822","0.0-4.0-0.104","9","829.6250000130385","","","","Images/NewTrialBC.png","39"
"image-keyboard-response","339","312084","0.0-4.0-1.104","9","null","","","","Images/WhiteBeadChoice.png","null"
"image-keyboard-response","340","312610","0.0-4.0-2.104","9","null","","","","Images/WhiteBeadChoiceCorrect.png","null"
"image-keyboard-response","341","313050","0.0-4.0-0.105","9","437.7749999985099","","","","Images/NewTrialWC.png","39"
"image-keyboard-response","342","313315","0.0-4.0-1.105","9","null","","","","Images/WhiteBeadChoice.png","null"
"image-keyboard-response","343","313820","0.0-4.0-2.105","9","null","","","","Images/WhiteBeadChoiceCorrect.png","null"
"image-keyboard-response","344","314211","0.0-4.0-0.106","9","389.0150000224821","","","","Images/NewTrialWC.png","39"
"image-keyboard-response","345","314465","0.0-4.0-1.106","9","null","","","","Images/WhiteBeadChoice.png","null"
"image-keyboard-response","346","314975","0.0-4.0-2.106","9","null","","","","Images/WhiteBeadChoiceCorrect.png","null"
"image-keyboard-response","347","315348","0.0-4.0-0.107","9","370.9650000091642","","","","Images/NewTrialWC.png","39"
"image-keyboard-response","348","315604","0.0-4.0-1.107","9","null","","","","Images/WhiteBeadChoice.png","null"
"image-keyboard-response","349","316107","0.0-4.0-2.107","9","null","","","","Images/WhiteBeadChoiceCorrect.png","null"
"image-keyboard-response","350","316508","0.0-4.0-0.108","9","398.89000001130626","","","","Images/NewTrialWC.png","39"
"image-keyboard-response","351","316763","0.0-4.0-1.108","9","null","","","","Images/WhiteBeadChoice.png","null"
"image-keyboard-response","352","317266","0.0-4.0-2.108","9","null","","","","Images/WhiteBeadChoiceCorrect.png","null"
"image-keyboard-response","353","317608","0.0-4.0-0.109","9","338.76000001328066","","","","Images/NewTrialWC.png","39"
"image-keyboard-response","354","317873","0.0-4.0-1.109","9","null","","","","Images/WhiteBeadChoice.png","null"
"image-keyboard-response","355","318390","0.0-4.0-2.109","9","null","","","","Images/WhiteBeadChoiceCorrect.png","null"
"image-keyboard-response","356","318716","0.0-4.0-0.110","9","324.3800000054762","","","","Images/NewTrialWC.png","39"
"image-keyboard-response","357","318978","0.0-4.0-1.110","9","null","","","","Images/WhiteBeadChoice.png","null"
"image-keyboard-response","358","319481","0.0-4.0-2.110","9","null","","","","Images/WhiteBeadChoiceCorrect.png","null"
"image-keyboard-response","359","319833","0.0-4.0-0.111","9","348.82500005187467","","","","Images/NewTrialWC.png","39"
"image-keyboard-response","360","320113","0.0-4.0-1.111","9","null","","","","Images/WhiteBeadChoice.png","null"
"image-keyboard-response","361","320623","0.0-4.0-2.111","9","null","","","","Images/WhiteBeadChoiceCorrect.png","null"
"image-keyboard-response","362","320954","0.0-4.0-0.112","9","329.76499997312203","","","","Images/NewTrialWC.png","39"
"image-keyboard-response","363","321217","0.0-4.0-1.112","9","null","","","","Images/WhiteBeadChoice.png","null"
"image-keyboard-response","364","321737","0.0-4.0-2.112","9","null","","","","Images/WhiteBeadChoiceWrong.png","null"
"image-keyboard-response","365","322075","0.0-4.0-0.113","9","335.99000005051494","","","","Images/NewTrialBC.png","39"
"image-keyboard-response","366","322335","0.0-4.0-1.113","9","null","","","","Images/WhiteBeadChoice.png","null"
"image-keyboard-response","367","322856","0.0-4.0-2.113","9","null","","","","Images/WhiteBeadChoiceWrong.png","null"
"image-keyboard-response","368","323238","0.0-4.0-0.114","9","379.9449999933131","","","","Images/NewTrialBC.png","37"
"image-keyboard-response","369","323506","0.0-4.0-1.114","9","null","","","","Images/BlackBeadChoice.png","null"
"image-keyboard-response","370","324012","0.0-4.0-2.114","9","null","","","","Images/BlackBeadChoiceCorrect.png","null"
"image-keyboard-response","371","324412","0.0-4.0-0.115","9","397.90999999968335","","","","Images/NewTrialBC.png","37"
"image-keyboard-response","372","324666","0.0-4.0-1.115","9","null","","","","Images/BlackBeadChoice.png","null"
"image-keyboard-response","373","325172","0.0-4.0-2.115","9","null","","","","Images/BlackBeadChoiceCorrect.png","null"
"image-keyboard-response","374","325553","0.0-4.0-0.116","9","378.6650000256486","","","","Images/NewTrialBC.png","37"
"image-keyboard-response","375","325805","0.0-4.0-1.116","9","null","","","","Images/BlackBeadChoice.png","null"
"image-keyboard-response","376","326310","0.0-4.0-2.116","9","null","","","","Images/BlackBeadChoiceCorrect.png","null"
"image-keyboard-response","377","326664","0.0-4.0-0.117","9","351.3399999937974","","","","Images/NewTrialBC.png","37"
"image-keyboard-response","378","326934","0.0-4.0-1.117","9","null","","","","Images/BlackBeadChoice.png","null"
"image-keyboard-response","379","327442","0.0-4.0-2.117","9","null","","","","Images/BlackBeadChoiceCorrect.png","null"
"image-keyboard-response","380","327731","0.0-4.0-0.118","9","287.2649999917485","","","","Images/NewTrialBC.png","37"
"image-keyboard-response","381","327986","0.0-4.0-1.118","9","null","","","","Images/BlackBeadChoice.png","null"
"image-keyboard-response","382","328492","0.0-4.0-2.118","9","null","","","","Images/BlackBeadChoiceCorrect.png","null"
"image-keyboard-response","383","328800","0.0-4.0-0.119","9","305.86000002222136","","","","Images/NewTrialBC.png","37"
"image-keyboard-response","384","329054","0.0-4.0-1.119","9","null","","","","Images/BlackBeadChoice.png","null"
"image-keyboard-response","385","329559","0.0-4.0-2.119","9","null","","","","Images/BlackBeadChoiceWrong.png","null"
"image-keyboard-response","386","329889","0.0-4.0-0.120","9","327.91999995242804","","","","Images/NewTrialWC.png","37"
"image-keyboard-response","387","330147","0.0-4.0-1.120","9","null","","","","Images/BlackBeadChoice.png","null"
"image-keyboard-response","388","330664","0.0-4.0-2.120","9","null","","","","Images/BlackBeadChoiceWrong.png","null"
"image-keyboard-response","389","331004","0.0-4.0-0.121","9","338.05000002030283","","","","Images/NewTrialWC.png","39"
"image-keyboard-response","390","331259","0.0-4.0-1.121","9","null","","","","Images/WhiteBeadChoice.png","null"
"image-keyboard-response","391","331768","0.0-4.0-2.121","9","null","","","","Images/WhiteBeadChoiceCorrect.png","null"
"image-keyboard-response","392","332166","0.0-4.0-0.122","9","395.35000000614673","","","","Images/NewTrialWC.png","39"
"image-keyboard-response","393","332421","0.0-4.0-1.122","9","null","","","","Images/WhiteBeadChoice.png","null"
"image-keyboard-response","394","332924","0.0-4.0-2.122","9","null","","","","Images/WhiteBeadChoiceCorrect.png","null"
"image-keyboard-response","395","333292","0.0-4.0-0.123","9","365.4050000477582","","","","Images/NewTrialWC.png","39"
"image-keyboard-response","396","333557","0.0-4.0-1.123","9","null","","","","Images/WhiteBeadChoice.png","null"
"image-keyboard-response","397","334063","0.0-4.0-2.123","9","null","","","","Images/WhiteBeadChoiceCorrect.png","null"
"image-keyboard-response","398","334419","0.0-4.0-0.124","9","354.189999983646","","","","Images/NewTrialWC.png","39"
"image-keyboard-response","399","334680","0.0-4.0-1.124","9","null","","","","Images/WhiteBeadChoice.png","null"
"image-keyboard-response","400","335198","0.0-4.0-2.124","9","null","","","","Images/WhiteBeadChoiceCorrect.png","null"
"image-keyboard-response","401","335535","0.0-4.0-0.125","9","333.8000000221655","","","","Images/NewTrialWC.png","39"
"image-keyboard-response","402","335790","0.0-4.0-1.125","9","null","","","","Images/WhiteBeadChoice.png","null"
"image-keyboard-response","403","336296","0.0-4.0-2.125","9","null","","","","Images/WhiteBeadChoiceCorrect.png","null"
"image-keyboard-response","404","336659","0.0-4.0-0.126","9","360.86000001523644","","","","Images/NewTrialWC.png","39"
"image-keyboard-response","405","336926","0.0-4.0-1.126","9","null","","","","Images/WhiteBeadChoice.png","null"
"image-keyboard-response","406","337433","0.0-4.0-2.126","9","null","","","","Images/WhiteBeadChoiceWrong.png","null"
"image-keyboard-response","407","337776","0.0-4.0-0.127","9","341.2499999976717","","","","Images/NewTrialBC.png","39"
"image-keyboard-response","408","338030","0.0-4.0-1.127","9","null","","","","Images/WhiteBeadChoice.png","null"
"image-keyboard-response","409","338547","0.0-4.0-2.127","9","null","","","","Images/WhiteBeadChoiceCorrect.png","null"
"image-keyboard-response","410","338851","0.0-4.0-0.128","9","300.88499997509643","","","","Images/NewTrialWC.png","39"
"image-keyboard-response","411","339107","0.0-4.0-1.128","9","null","","","","Images/WhiteBeadChoice.png","null"
"image-keyboard-response","412","339613","0.0-4.0-2.128","9","null","","","","Images/WhiteBeadChoiceCorrect.png","null"
"image-keyboard-response","413","339963","0.0-4.0-0.129","9","347.4749999586493","","","","Images/NewTrialWC.png","39"
"image-keyboard-response","414","340218","0.0-4.0-1.129","9","null","","","","Images/WhiteBeadChoice.png","null"
"image-keyboard-response","415","340724","0.0-4.0-2.129","9","null","","","","Images/WhiteBeadChoiceWrong.png","null"
"image-keyboard-response","416","341078","0.0-4.0-0.130","9","351.5100000076927","","","","Images/NewTrialBC.png","39"
"image-keyboard-response","417","341330","0.0-4.0-1.130","9","null","","","","Images/WhiteBeadChoice.png","null"
"image-keyboard-response","418","341837","0.0-4.0-2.130","9","null","","","","Images/WhiteBeadChoiceCorrect.png","null"
"image-keyboard-response","419","342212","0.0-4.0-0.131","9","372.8700000210665","","","","Images/NewTrialWC.png","39"
"image-keyboard-response","420","342475","0.0-4.0-1.131","9","null","","","","Images/WhiteBeadChoice.png","null"
"image-keyboard-response","421","342989","0.0-4.0-2.131","9","null","","","","Images/WhiteBeadChoiceWrong.png","null"
"image-keyboard-response","422","343339","0.0-4.0-0.132","9","347.60999999707565","","","","Images/NewTrialBC.png","39"
"image-keyboard-response","423","343603","0.0-4.0-1.132","9","null","","","","Images/WhiteBeadChoice.png","null"
"image-keyboard-response","424","344109","0.0-4.0-2.132","9","null","","","","Images/WhiteBeadChoiceWrong.png","null"
"image-keyboard-response","425","344399","0.0-4.0-0.133","9","288.79000002052635","","","","Images/NewTrialBC.png","37"
"image-keyboard-response","426","344653","0.0-4.0-1.133","9","null","","","","Images/BlackBeadChoice.png","null"
"image-keyboard-response","427","345171","0.0-4.0-2.133","9","null","","","","Images/BlackBeadChoiceCorrect.png","null"
"image-keyboard-response","428","345547","0.0-4.0-0.134","9","372.71000002510846","","","","Images/NewTrialBC.png","37"
"image-keyboard-response","429","345803","0.0-4.0-1.134","9","null","","","","Images/BlackBeadChoice.png","null"
"image-keyboard-response","430","346318","0.0-4.0-2.134","9","null","","","","Images/BlackBeadChoiceCorrect.png","null"
"image-keyboard-response","431","346649","0.0-4.0-0.135","9","328.4350000321865","","","","Images/NewTrialBC.png","37"
"image-keyboard-response","432","346909","0.0-4.0-1.135","9","null","","","","Images/BlackBeadChoice.png","null"
"image-keyboard-response","433","347415","0.0-4.0-2.135","9","null","","","","Images/BlackBeadChoiceCorrect.png","null"
"image-keyboard-response","434","347818","0.0-4.0-0.136","9","400.88999998988584","","","","Images/NewTrialBC.png","37"
"image-keyboard-response","435","348085","0.0-4.0-1.136","9","null","","","","Images/BlackBeadChoice.png","null"
"image-keyboard-response","436","348597","0.0-4.0-2.136","9","null","","","","Images/BlackBeadChoiceCorrect.png","null"
"image-keyboard-response","437","348894","0.0-4.0-0.137","9","294.86999998334795","","","","Images/NewTrialBC.png","37"
"image-keyboard-response","438","349148","0.0-4.0-1.137","9","null","","","","Images/BlackBeadChoice.png","null"
"image-keyboard-response","439","349653","0.0-4.0-2.137","9","null","","","","Images/BlackBeadChoiceCorrect.png","null"
"image-keyboard-response","440","349953","0.0-4.0-0.138","9","297.4450000328943","","","","Images/NewTrialBC.png","37"
"image-keyboard-response","441","350208","0.0-4.0-1.138","9","null","","","","Images/BlackBeadChoice.png","null"
"image-keyboard-response","442","350712","0.0-4.0-2.138","9","null","","","","Images/BlackBeadChoiceCorrect.png","null"
"image-keyboard-response","443","351049","0.0-4.0-0.139","9","334.2350000166334","","","","Images/NewTrialBC.png","37"
"image-keyboard-response","444","351311","0.0-4.0-1.139","9","null","","","","Images/BlackBeadChoice.png","null"
"image-keyboard-response","445","351815","0.0-4.0-2.139","9","null","","","","Images/BlackBeadChoiceCorrect.png","null"
"image-keyboard-response","446","352082","0.0-4.0-0.140","9","264.39000002574176","","","","Images/NewTrialBC.png","37"
"image-keyboard-response","447","352336","0.0-4.0-1.140","9","null","","","","Images/BlackBeadChoice.png","null"
"image-keyboard-response","448","352847","0.0-4.0-2.140","9","null","","","","Images/BlackBeadChoiceCorrect.png","null"
"image-keyboard-response","449","353100","0.0-4.0-0.141","9","250.27499999850988","","","","Images/NewTrialBC.png","37"
"image-keyboard-response","450","353361","0.0-4.0-1.141","9","null","","","","Images/BlackBeadChoice.png","null"
"image-keyboard-response","451","353866","0.0-4.0-2.141","9","null","","","","Images/BlackBeadChoiceCorrect.png","null"
"image-keyboard-response","452","354087","0.0-4.0-0.142","9","218.494999979157","","","","Images/NewTrialBC.png","37"
"image-keyboard-response","453","354348","0.0-4.0-1.142","9","null","","","","Images/BlackBeadChoice.png","null"
"image-keyboard-response","454","354866","0.0-4.0-2.142","9","null","","","","Images/BlackBeadChoiceCorrect.png","null"
"image-keyboard-response","455","355092","0.0-4.0-0.143","9","224.4949999731034","","","","Images/NewTrialBC.png","37"
"image-keyboard-response","456","355345","0.0-4.0-1.143","9","null","","","","Images/BlackBeadChoice.png","null"
"image-keyboard-response","457","355849","0.0-4.0-2.143","9","null","","","","Images/BlackBeadChoiceCorrect.png","null"
"image-keyboard-response","458","356063","0.0-4.0-0.144","9","211.99500001966953","","","","Images/NewTrialBC.png","37"
"image-keyboard-response","459","356318","0.0-4.0-1.144","9","null","","","","Images/BlackBeadChoice.png","null"
"image-keyboard-response","460","356828","0.0-4.0-2.144","9","null","","","","Images/BlackBeadChoiceCorrect.png","null"
"image-keyboard-response","461","357131","0.0-4.0-0.145","9","301.500000001397","","","","Images/NewTrialBC.png","37"
"image-keyboard-response","462","357395","0.0-4.0-1.145","9","null","","","","Images/BlackBeadChoice.png","null"
"image-keyboard-response","463","357901","0.0-4.0-2.145","9","null","","","","Images/BlackBeadChoiceCorrect.png","null"
"image-keyboard-response","464","358098","0.0-4.0-0.146","9","195.03000000258908","","","","Images/NewTrialBC.png","37"
"image-keyboard-response","465","358354","0.0-4.0-1.146","9","null","","","","Images/BlackBeadChoice.png","null"
"image-keyboard-response","466","358862","0.0-4.0-2.146","9","null","","","","Images/BlackBeadChoiceWrong.png","null"
"image-keyboard-response","467","359233","0.0-4.0-0.147","9","368.04999999003485","","","","Images/NewTrialWC.png","37"
"image-keyboard-response","468","359498","0.0-4.0-1.147","9","null","","","","Images/BlackBeadChoice.png","null"
"image-keyboard-response","469","360005","0.0-4.0-2.147","9","null","","","","Images/BlackBeadChoiceWrong.png","null"
"image-keyboard-response","470","360322","0.0-4.0-0.148","9","315.38499996531755","","","","Images/NewTrialWC.png","39"
"image-keyboard-response","471","360577","0.0-4.0-1.148","9","null","","","","Images/WhiteBeadChoice.png","null"
"image-keyboard-response","472","361090","0.0-4.0-2.148","9","null","","","","Images/WhiteBeadChoiceWrong.png","null"
"image-keyboard-response","473","362345","0.0-4.0-0.149","9","1252.1399999968708","","","","Images/NewTrialBC.png","39"
"image-keyboard-response","474","362600","0.0-4.0-1.149","9","null","","","","Images/WhiteBeadChoice.png","null"
"image-keyboard-response","475","363118","0.0-4.0-2.149","9","null","","","","Images/WhiteBeadChoiceWrong.png","null"
"image-keyboard-response","476","363460","0.0-4.0-0.150","9","339.5399999571964","","","","Images/NewTrialBC.png","37"
"image-keyboard-response","477","363713","0.0-4.0-1.150","9","null","","","","Images/BlackBeadChoice.png","null"
"image-keyboard-response","478","364224","0.0-4.0-2.150","9","null","","","","Images/BlackBeadChoiceCorrect.png","null"
"image-keyboard-response","479","364591","0.0-4.0-0.151","9","363.47000004025176","","","","Images/NewTrialBC.png","37"
"image-keyboard-response","480","364854","0.0-4.0-1.151","9","null","","","","Images/BlackBeadChoice.png","null"
"image-keyboard-response","481","365364","0.0-4.0-2.151","9","null","","","","Images/BlackBeadChoiceCorrect.png","null"
"image-keyboard-response","482","365675","0.0-4.0-0.152","9","308.2399999839254","","","","Images/NewTrialBC.png","37"
"image-keyboard-response","483","365936","0.0-4.0-1.152","9","null","","","","Images/BlackBeadChoice.png","null"
"image-keyboard-response","484","366456","0.0-4.0-2.152","9","null","","","","Images/BlackBeadChoiceCorrect.png","null"
"image-keyboard-response","485","366795","0.0-4.0-0.153","9","336.3149999640882","","","","Images/NewTrialBC.png","37"
"image-keyboard-response","486","367051","0.0-4.0-1.153","9","null","","","","Images/BlackBeadChoice.png","null"
"image-keyboard-response","487","367570","0.0-4.0-2.153","9","null","","","","Images/BlackBeadChoiceCorrect.png","null"
"image-keyboard-response","488","367879","0.0-4.0-0.154","9","306.80500000016764","","","","Images/NewTrialBC.png","37"
"image-keyboard-response","489","368134","0.0-4.0-1.154","9","null","","","","Images/BlackBeadChoice.png","null"
"image-keyboard-response","490","368637","0.0-4.0-2.154","9","null","","","","Images/BlackBeadChoiceCorrect.png","null"
"image-keyboard-response","491","368976","0.0-4.0-0.155","9","336.1799999838695","","","","Images/NewTrialBC.png","37"
"image-keyboard-response","492","369237","0.0-4.0-1.155","9","null","","","","Images/BlackBeadChoice.png","null"
"image-keyboard-response","493","369753","0.0-4.0-2.155","9","null","","","","Images/BlackBeadChoiceCorrect.png","null"
"image-keyboard-response","494","370255","0.0-4.0-0.156","9","499.7349999612197","","","","Images/NewTrialBC.png","37"
"image-keyboard-response","495","370507","0.0-4.0-1.156","9","null","","","","Images/BlackBeadChoice.png","null"
"image-keyboard-response","496","371028","0.0-4.0-2.156","9","null","","","","Images/BlackBeadChoiceCorrect.png","null"
"image-keyboard-response","497","371297","0.0-4.0-0.157","9","266.2349999882281","","","","Images/NewTrialBC.png","37"
"image-keyboard-response","498","371562","0.0-4.0-1.157","9","null","","","","Images/BlackBeadChoice.png","null"
"image-keyboard-response","499","372066","0.0-4.0-2.157","9","null","","","","Images/BlackBeadChoiceCorrect.png","null"
"image-keyboard-response","500","372309","0.0-4.0-0.158","9","240.25000003166497","","","","Images/NewTrialBC.png","37"
"image-keyboard-response","501","372564","0.0-4.0-1.158","9","null","","","","Images/BlackBeadChoice.png","null"
"image-keyboard-response","502","373073","0.0-4.0-2.158","9","null","","","","Images/BlackBeadChoiceWrong.png","null"
"image-keyboard-response","503","374173","0.0-4.0-0.159","9","1097.7299999794923","","","","Images/NewTrialWC.png","37"
"image-keyboard-response","504","374432","0.0-4.0-1.159","9","null","","","","Images/BlackBeadChoice.png","null"
"image-keyboard-response","505","374948","0.0-4.0-2.159","9","null","","","","Images/BlackBeadChoiceCorrect.png","null"
"image-keyboard-response","506","375282","0.0-4.0-0.160","9","331.5350000048056","","","","Images/NewTrialBC.png","37"
"image-keyboard-response","507","375537","0.0-4.0-1.160","9","null","","","","Images/BlackBeadChoice.png","null"
"image-keyboard-response","508","376054","0.0-4.0-2.160","9","null","","","","Images/BlackBeadChoiceCorrect.png","null"
"image-keyboard-response","509","376342","0.0-4.0-0.161","9","286.0450000152923","","","","Images/NewTrialBC.png","37"
"image-keyboard-response","510","376595","0.0-4.0-1.161","9","null","","","","Images/BlackBeadChoice.png","null"
"image-keyboard-response","511","377102","0.0-4.0-2.161","9","null","","","","Images/BlackBeadChoiceCorrect.png","null"
"image-keyboard-response","512","377390","0.0-4.0-0.162","9","285.38499999558553","","","","Images/NewTrialBC.png","37"
"image-keyboard-response","513","377656","0.0-4.0-1.162","9","null","","","","Images/BlackBeadChoice.png","null"
"image-keyboard-response","514","378166","0.0-4.0-2.162","9","null","","","","Images/BlackBeadChoiceCorrect.png","null"
"image-keyboard-response","515","378426","0.0-4.0-0.163","9","258.2999999867752","","","","Images/NewTrialBC.png","37"
"image-keyboard-response","516","378684","0.0-4.0-1.163","9","null","","","","Images/BlackBeadChoice.png","null"
"image-keyboard-response","517","379188","0.0-4.0-2.163","9","null","","","","Images/BlackBeadChoiceCorrect.png","null"
"image-keyboard-response","518","379438","0.0-4.0-0.164","9","247.3749999771826","","","","Images/NewTrialBC.png","37"
"image-keyboard-response","519","379705","0.0-4.0-1.164","9","null","","","","Images/BlackBeadChoice.png","null"
"image-keyboard-response","520","380218","0.0-4.0-2.164","9","null","","","","Images/BlackBeadChoiceCorrect.png","null"
"image-keyboard-response","521","380468","0.0-4.0-0.165","9","247.36000003758818","","","","Images/NewTrialBC.png","37"
"image-keyboard-response","522","380739","0.0-4.0-1.165","9","null","","","","Images/BlackBeadChoice.png","null"
"image-keyboard-response","523","381244","0.0-4.0-2.165","9","null","","","","Images/BlackBeadChoiceWrong.png","null"
"image-keyboard-response","524","382666","0.0-4.0-0.166","9","1419.6099999826401","","","","Images/NewTrialWC.png","37"
"image-keyboard-response","525","382925","0.0-4.0-1.166","9","null","","","","Images/BlackBeadChoice.png","null"
"image-keyboard-response","526","383433","0.0-4.0-2.166","9","null","","","","Images/BlackBeadChoiceWrong.png","null"
"image-keyboard-response","527","383692","0.0-4.0-0.167","9","256.9050000165589","","","","Images/NewTrialWC.png","39"
"image-keyboard-response","528","383951","0.0-4.0-1.167","9","null","","","","Images/WhiteBeadChoice.png","null"
"image-keyboard-response","529","384468","0.0-4.0-2.167","9","null","","","","Images/WhiteBeadChoiceWrong.png","null"
"image-keyboard-response","530","386539","0.0-4.0-0.168","9","2069.0750000067055","","","","Images/NewTrialBC.png","37"
"image-keyboard-response","531","386797","0.0-4.0-1.168","9","null","","","","Images/BlackBeadChoice.png","null"
"image-keyboard-response","532","387302","0.0-4.0-2.168","9","null","","","","Images/BlackBeadChoiceCorrect.png","null"
"image-keyboard-response","533","387484","0.0-4.0-0.169","9","180.1199999754317","","","","Images/NewTrialBC.png","37"
"image-keyboard-response","534","387753","0.0-4.0-1.169","9","null","","","","Images/BlackBeadChoice.png","null"
"image-keyboard-response","535","388269","0.0-4.0-2.169","9","null","","","","Images/BlackBeadChoiceCorrect.png","null"
"image-keyboard-response","536","388465","0.0-4.0-0.170","9","193.28000000678003","","","","Images/NewTrialBC.png","37"
"image-keyboard-response","537","388734","0.0-4.0-1.170","9","null","","","","Images/BlackBeadChoice.png","null"
"image-keyboard-response","538","389240","0.0-4.0-2.170","9","null","","","","Images/BlackBeadChoiceCorrect.png","null"
"image-keyboard-response","539","389568","0.0-4.0-0.171","9","325.63500001560897","","","","Images/NewTrialBC.png","37"
"image-keyboard-response","540","389823","0.0-4.0-1.171","9","null","","","","Images/BlackBeadChoice.png","null"
"image-keyboard-response","541","390328","0.0-4.0-2.171","9","null","","","","Images/BlackBeadChoiceCorrect.png","null"
"image-keyboard-response","542","390603","0.0-4.0-0.172","9","272.98000000882894","","","","Images/NewTrialBC.png","37"
"image-keyboard-response","543","390878","0.0-4.0-1.172","9","null","","","","Images/BlackBeadChoice.png","null"
"image-keyboard-response","544","391404","0.0-4.0-2.172","9","null","","","","Images/BlackBeadChoiceCorrect.png","null"
"image-keyboard-response","545","391730","0.0-4.0-0.173","9","323.74000002164394","","","","Images/NewTrialBC.png","37"
"image-keyboard-response","546","391985","0.0-4.0-1.173","9","null","","","","Images/BlackBeadChoice.png","null"
"image-keyboard-response","547","392490","0.0-4.0-2.173","9","null","","","","Images/BlackBeadChoiceWrong.png","null"
"image-keyboard-response","548","392819","0.0-4.0-0.174","9","326.0299999965355","","","","Images/NewTrialWC.png","37"
"image-keyboard-response","549","393076","0.0-4.0-1.174","9","null","","","","Images/BlackBeadChoice.png","null"
"image-keyboard-response","550","393588","0.0-4.0-2.174","9","null","","","","Images/BlackBeadChoiceCorrect.png","null"
"image-keyboard-response","551","393893","0.0-4.0-0.175","9","303.0199999921024","","","","Images/NewTrialBC.png","37"
"image-keyboard-response","552","394145","0.0-4.0-1.175","9","null","","","","Images/BlackBeadChoice.png","null"
"image-keyboard-response","553","394651","0.0-4.0-2.175","9","null","","","","Images/BlackBeadChoiceWrong.png","null"
"image-keyboard-response","554","395246","0.0-4.0-0.176","9","593.75","","","","Images/NewTrialWC.png","37"
"image-keyboard-response","555","395500","0.0-4.0-1.176","9","null","","","","Images/BlackBeadChoice.png","null"
"image-keyboard-response","556","396003","0.0-4.0-2.176","9","454.8349999822676","","","","Images/BlackBeadChoiceWrong.png","39"
"image-keyboard-response","557","396572","0.0-4.0-0.177","9","566.0400000051595","","","","Images/NewTrialWC.png","39"
"image-keyboard-response","558","396831","0.0-4.0-1.177","9","null","","","","Images/WhiteBeadChoice.png","null"
"image-keyboard-response","559","397334","0.0-4.0-2.177","9","null","","","","Images/WhiteBeadChoiceCorrect.png","null"
"image-keyboard-response","560","397671","0.0-4.0-0.178","9","335.1949999923818","","","","Images/NewTrialWC.png","39"
"image-keyboard-response","561","397925","0.0-4.0-1.178","9","null","","","","Images/WhiteBeadChoice.png","null"
"image-keyboard-response","562","398431","0.0-4.0-2.178","9","null","","","","Images/WhiteBeadChoiceCorrect.png","null"
"image-keyboard-response","563","398641","0.0-4.0-0.179","9","207.24000001791865","","","","Images/NewTrialWC.png","39"
"image-keyboard-response","564","398898","0.0-4.0-1.179","9","null","","","","Images/WhiteBeadChoice.png","null"
"image-keyboard-response","565","399405","0.0-4.0-2.179","9","null","","","","Images/WhiteBeadChoiceCorrect.png","null"
"image-keyboard-response","566","399605","0.0-4.0-0.180","9","198.34000000264496","","","","Images/NewTrialWC.png","39"
"image-keyboard-response","567","399873","0.0-4.0-1.180","9","null","","","","Images/WhiteBeadChoice.png","null"
"image-keyboard-response","568","400387","0.0-4.0-2.180","9","null","","","","Images/WhiteBeadChoiceCorrect.png","null"
"image-keyboard-response","569","400559","0.0-4.0-0.181","9","169.88000000128523","","","","Images/NewTrialWC.png","39"
"image-keyboard-response","570","400818","0.0-4.0-1.181","9","null","","","","Images/WhiteBeadChoice.png","null"
"image-keyboard-response","571","401335","0.0-4.0-2.181","9","null","","","","Images/WhiteBeadChoiceWrong.png","null"
"image-keyboard-response","572","401937","0.0-4.0-0.182","9","599.7300000162795","","","","Images/NewTrialBC.png","39"
"image-keyboard-response","573","402198","0.0-4.0-1.182","9","null","","","","Images/WhiteBeadChoice.png","null"
"image-keyboard-response","574","402707","0.0-4.0-2.182","9","null","","","","Images/WhiteBeadChoiceWrong.png","null"
"image-keyboard-response","575","403288","0.0-4.0-0.183","9","579.3549999943934","","","","Images/NewTrialBC.png","37"
"image-keyboard-response","576","403545","0.0-4.0-1.183","9","null","","","","Images/BlackBeadChoice.png","null"
"image-keyboard-response","577","404051","0.0-4.0-2.183","9","null","","","","Images/BlackBeadChoiceCorrect.png","null"
"image-keyboard-response","578","404322","0.0-4.0-0.184","9","268.7249999726191","","","","Images/NewTrialBC.png","37"
"image-keyboard-response","579","404574","0.0-4.0-1.184","9","null","","","","Images/BlackBeadChoice.png","null"
"image-keyboard-response","580","405078","0.0-4.0-2.184","9","null","","","","Images/BlackBeadChoiceCorrect.png","null"
"image-keyboard-response","581","405454","0.0-4.0-0.185","9","373.58999997377396","","","","Images/NewTrialBC.png","37"
"image-keyboard-response","582","405709","0.0-4.0-1.185","9","null","","","","Images/BlackBeadChoice.png","null"
"image-keyboard-response","583","406213","0.0-4.0-2.185","9","null","","","","Images/BlackBeadChoiceCorrect.png","null"
"image-keyboard-response","584","406377","0.0-4.0-0.186","9","160.7250000233762","","","","Images/NewTrialBC.png","37"
"image-keyboard-response","585","406635","0.0-4.0-1.186","9","null","","","","Images/BlackBeadChoice.png","null"
"image-keyboard-response","586","407141","0.0-4.0-2.186","9","null","","","","Images/BlackBeadChoiceCorrect.png","null"
"image-keyboard-response","587","407538","0.0-4.0-0.187","9","394.2699999897741","","","","Images/NewTrialBC.png","37"
"image-keyboard-response","588","407801","0.0-4.0-1.187","9","null","","","","Images/BlackBeadChoice.png","null"
"image-keyboard-response","589","408315","0.0-4.0-2.187","9","null","","","","Images/BlackBeadChoiceCorrect.png","null"
"image-keyboard-response","590","408639","0.0-4.0-0.188","9","322.0649999566376","","","","Images/NewTrialBC.png","37"
"image-keyboard-response","591","408893","0.0-4.0-1.188","9","null","","","","Images/BlackBeadChoice.png","null"
"image-keyboard-response","592","409397","0.0-4.0-2.188","9","null","","","","Images/BlackBeadChoiceCorrect.png","null"
"image-keyboard-response","593","409700","0.0-4.0-0.189","9","299.91500003961846","","","","Images/NewTrialBC.png","37"
"image-keyboard-response","594","409962","0.0-4.0-1.189","9","null","","","","Images/BlackBeadChoice.png","null"
"image-keyboard-response","595","410473","0.0-4.0-2.189","9","null","","","","Images/BlackBeadChoiceCorrect.png","null"
"image-keyboard-response","596","410783","0.0-4.0-0.190","9","306.3850000035018","","","","Images/NewTrialBC.png","37"
"image-keyboard-response","597","411039","0.0-4.0-1.190","9","null","","","","Images/BlackBeadChoice.png","null"
"image-keyboard-response","598","411543","0.0-4.0-2.190","9","null","","","","Images/BlackBeadChoiceCorrect.png","null"
"image-keyboard-response","599","411754","0.0-4.0-0.191","9","209.2549999943003","","","","Images/NewTrialBC.png","37"
"image-keyboard-response","600","412013","0.0-4.0-1.191","9","null","","","","Images/BlackBeadChoice.png","null"
"image-keyboard-response","601","412522","0.0-4.0-2.191","9","null","","","","Images/BlackBeadChoiceCorrect.png","null"
"image-keyboard-response","602","412770","0.0-4.0-0.192","9","245.7050000084564","","","","Images/NewTrialBC.png","37"
"image-keyboard-response","603","413023","0.0-4.0-1.192","9","null","","","","Images/BlackBeadChoice.png","null"
"image-keyboard-response","604","413530","0.0-4.0-2.192","9","null","","","","Images/BlackBeadChoiceCorrect.png","null"
"image-keyboard-response","605","413806","0.0-4.0-0.193","9","273.2600000454113","","","","Images/NewTrialBC.png","37"
"image-keyboard-response","606","414065","0.0-4.0-1.193","9","null","","","","Images/BlackBeadChoice.png","null"
"image-keyboard-response","607","414583","0.0-4.0-2.193","9","null","","","","Images/BlackBeadChoiceWrong.png","null"
"image-keyboard-response","608","414912","0.0-4.0-0.194","9","326.5949999913573","","","","Images/NewTrialWC.png","37"
"image-keyboard-response","609","415164","0.0-4.0-1.194","9","null","","","","Images/BlackBeadChoice.png","null"
"image-keyboard-response","610","415669","0.0-4.0-2.194","9","null","","","","Images/BlackBeadChoiceWrong.png","null"
"image-keyboard-response","611","416003","0.0-4.0-0.195","9","331.1000000103377","","","","Images/NewTrialWC.png","39"
"image-keyboard-response","612","416258","0.0-4.0-1.195","9","null","","","","Images/WhiteBeadChoice.png","null"
"image-keyboard-response","613","416763","0.0-4.0-2.195","9","null","","","","Images/WhiteBeadChoiceCorrect.png","null"
"image-keyboard-response","614","417150","0.0-4.0-0.196","9","385.24999999208376","","","","Images/NewTrialWC.png","39"
"image-keyboard-response","615","417406","0.0-4.0-1.196","9","null","","","","Images/WhiteBeadChoice.png","null"
"image-keyboard-response","616","417924","0.0-4.0-2.196","9","null","","","","Images/WhiteBeadChoiceCorrect.png","null"
"image-keyboard-response","617","418294","0.0-4.0-0.197","9","368.27499995706603","","","","Images/NewTrialWC.png","39"
"image-keyboard-response","618","418571","0.0-4.0-1.197","9","null","","","","Images/WhiteBeadChoice.png","null"
"image-keyboard-response","619","419082","0.0-4.0-2.197","9","null","","","","Images/WhiteBeadChoiceCorrect.png","null"
"image-keyboard-response","620","419399","0.0-4.0-0.198","9","314.24999999580905","","","","Images/NewTrialWC.png","39"
"image-keyboard-response","621","419658","0.0-4.0-1.198","9","null","","","","Images/WhiteBeadChoice.png","null"
"image-keyboard-response","622","420165","0.0-4.0-2.198","9","null","","","","Images/WhiteBeadChoiceCorrect.png","null"
"image-keyboard-response","623","420519","0.0-4.0-0.199","9","350.95500003080815","","","","Images/NewTrialWC.png","39"
"image-keyboard-response","624","420772","0.0-4.0-1.199","9","null","","","","Images/WhiteBeadChoice.png","null"
"image-keyboard-response","625","421288","0.0-4.0-2.199","9","null","","","","Images/WhiteBeadChoiceCorrect.png","null"
"html-keyboard-response","626","426209","0.0-5.0","9","4920.25999998441","","","","","32"
"html-keyboard-response","627","433820","0.0-6.0","9","7607.4399999924935","","","","<div class=""container"" style=""height:800px;width:800px;display:flex;flex-direction:column;justify-content:center;align-items:center;text-align:center;font-weight:normal;font-family:Arial;font-size:20px""><p>Loading episode&hellip;</p><div>","32"
"image-keyboard-response","628","434964","0.0-7.0-0.0","9","1141.814999980852","","","","Images/NoChoiceMM.png","39"
"image-keyboard-response","629","435219","0.0-7.0-1.0","9","null","","","","Images/WhiteBeadChoiceMM.png","null"
"image-keyboard-response","630","435737","0.0-7.0-2.0","9","null","","","","Images/WhiteBeadChoiceWrongMM.png","null"
"image-keyboard-response","631","435965","0.0-7.0-0.1","9","226.1949999956414","","","","Images/NewTrialBCMM.png","37"
"image-keyboard-response","632","436218","0.0-7.0-1.1","9","null","","","","Images/BlackBeadChoiceMM.png","null"
"image-keyboard-response","633","436729","0.0-7.0-2.1","9","null","","","","Images/BlackBeadChoiceCorrectMM.png","null"
"image-keyboard-response","634","436823","0.0-7.0-0.2","9","91.0450000083074","","","","Images/NewTrialBCMM.png","37"
"image-keyboard-response","635","437078","0.0-7.0-1.2","9","null","","","","Images/BlackBeadChoiceMM.png","null"
"image-keyboard-response","636","437584","0.0-7.0-2.2","9","null","","","","Images/BlackBeadChoiceCorrectMM.png","null"
"image-keyboard-response","637","437718","0.0-7.0-0.3","9","131.6600000136532","","","","Images/NewTrialBCMM.png","37"
"image-keyboard-response","638","437983","0.0-7.0-1.3","9","null","","","","Images/BlackBeadChoiceMM.png","null"
"image-keyboard-response","639","438494","0.0-7.0-2.3","9","null","","","","Images/BlackBeadChoiceCorrectMM.png","null"
"image-keyboard-response","640","438726","0.0-7.0-0.4","9","230.05000001285225","","","","Images/NewTrialBCMM.png","37"
"image-keyboard-response","641","438982","0.0-7.0-1.4","9","null","","","","Images/BlackBeadChoiceMM.png","null"
"image-keyboard-response","642","439489","0.0-7.0-2.4","9","null","","","","Images/BlackBeadChoiceCorrectMM.png","null"
"image-keyboard-response","643","439590","0.0-7.0-0.5","9","97.94999996665865","","","","Images/NewTrialBCMM.png","37"
"image-keyboard-response","644","439842","0.0-7.0-1.5","9","null","","","","Images/BlackBeadChoiceMM.png","null"
"image-keyboard-response","645","440348","0.0-7.0-2.5","9","null","","","","Images/BlackBeadChoiceCorrectMM.png","null"
"image-keyboard-response","646","440482","0.0-7.0-0.6","9","131.03499996941537","","","","Images/NewTrialBCMM.png","37"
"image-keyboard-response","647","440735","0.0-7.0-1.6","9","null","","","","Images/BlackBeadChoiceMM.png","null"
"image-keyboard-response","648","441248","0.0-7.0-2.6","9","null","","","","Images/BlackBeadChoiceWrongMM.png","null"
"image-keyboard-response","649","441463","0.0-7.0-0.7","9","213.18500000052154","","","","Images/NewTrialWCMM.png","39"
"image-keyboard-response","650","441728","0.0-7.0-1.7","9","null","","","","Images/WhiteBeadChoiceMM.png","null"
"image-keyboard-response","651","442232","0.0-7.0-2.7","9","null","","","","Images/WhiteBeadChoiceCorrectMM.png","null"
"image-keyboard-response","652","442344","0.0-7.0-0.8","9","109.80499995639548","","","","Images/NewTrialWCMM.png","39"
"image-keyboard-response","653","442597","0.0-7.0-1.8","9","null","","","","Images/WhiteBeadChoiceMM.png","null"
"image-keyboard-response","654","443104","0.0-7.0-2.8","9","null","","","","Images/WhiteBeadChoiceCorrectMM.png","null"
"image-keyboard-response","655","443157","0.0-7.0-0.9","9","50.41999998502433","","","","Images/NewTrialWCMM.png","39"
"image-keyboard-response","656","443412","0.0-7.0-1.9","9","null","","","","Images/WhiteBeadChoiceMM.png","null"
"image-keyboard-response","657","443915","0.0-7.0-2.9","9","null","","","","Images/WhiteBeadChoiceCorrectMM.png","null"
"image-keyboard-response","658","447967","0.0-7.0-0.10","9","4048.929999989923","","","","Images/NewTrialWCMM.png","39"
"image-keyboard-response","659","448221","0.0-7.0-1.10","9","null","","","","Images/WhiteBeadChoiceMM.png","null"
"image-keyboard-response","660","448734","0.0-7.0-2.10","9","null","","","","Images/WhiteBeadChoiceCorrectMM.png","null"
"image-keyboard-response","661","448827","0.0-7.0-0.11","9","91.06000000610948","","","","Images/NewTrialWCMM.png","39"
"image-keyboard-response","662","449080","0.0-7.0-1.11","9","null","","","","Images/WhiteBeadChoiceMM.png","null"
"image-keyboard-response","663","449586","0.0-7.0-2.11","9","null","","","","Images/WhiteBeadChoiceCorrectMM.png","null"
"image-keyboard-response","664","449734","0.0-7.0-0.12","9","145.38500003982335","","","","Images/NewTrialWCMM.png","39"
"image-keyboard-response","665","449988","0.0-7.0-1.12","9","null","","","","Images/WhiteBeadChoiceMM.png","null"
"image-keyboard-response","666","450491","0.0-7.0-2.12","9","null","","","","Images/WhiteBeadChoiceCorrectMM.png","null"
"image-keyboard-response","667","450599","0.0-7.0-0.13","9","105.93499999959022","","","","Images/NewTrialWCMM.png","39"
"image-keyboard-response","668","450869","0.0-7.0-1.13","9","null","","","","Images/WhiteBeadChoiceMM.png","null"
"image-keyboard-response","669","451376","0.0-7.0-2.13","9","null","","","","Images/WhiteBeadChoiceCorrectMM.png","null"
"image-keyboard-response","670","451490","0.0-7.0-0.14","9","111.75500001991168","","","","Images/NewTrialWCMM.png","39"
"image-keyboard-response","671","451743","0.0-7.0-1.14","9","null","","","","Images/WhiteBeadChoiceMM.png","null"
"image-keyboard-response","672","452246","0.0-7.0-2.14","9","null","","","","Images/WhiteBeadChoiceCorrectMM.png","null"
"image-keyboard-response","673","452320","0.0-7.0-0.15","9","71.77999999839813","","","","Images/NewTrialWCMM.png","39"
"image-keyboard-response","674","452574","0.0-7.0-1.15","9","null","","","","Images/WhiteBeadChoiceMM.png","null"
"image-keyboard-response","675","453090","0.0-7.0-2.15","9","null","","","","Images/WhiteBeadChoiceCorrectMM.png","null"
"image-keyboard-response","676","453214","0.0-7.0-0.16","9","121.1650000186637","","","","Images/NewTrialWCMM.png","39"
"image-keyboard-response","677","453472","0.0-7.0-1.16","9","null","","","","Images/WhiteBeadChoiceMM.png","null"
"image-keyboard-response","678","453980","0.0-7.0-2.16","9","null","","","","Images/WhiteBeadChoiceCorrectMM.png","null"
"image-keyboard-response","679","454156","0.0-7.0-0.17","9","173.47500001778826","","","","Images/NewTrialWCMM.png","39"
"image-keyboard-response","680","454410","0.0-7.0-1.17","9","null","","","","Images/WhiteBeadChoiceMM.png","null"
"image-keyboard-response","681","454928","0.0-7.0-2.17","9","null","","","","Images/WhiteBeadChoiceCorrectMM.png","null"
"image-keyboard-response","682","455024","0.0-7.0-0.18","9","93.6700000311248","","","","Images/NewTrialWCMM.png","39"
"image-keyboard-response","683","455293","0.0-7.0-1.18","9","null","","","","Images/WhiteBeadChoiceMM.png","null"
"image-keyboard-response","684","455812","0.0-7.0-2.18","9","null","","","","Images/WhiteBeadChoiceCorrectMM.png","null"
"image-keyboard-response","685","455977","0.0-7.0-0.19","9","162.15500002726912","","","","Images/NewTrialWCMM.png","39"
"image-keyboard-response","686","456237","0.0-7.0-1.19","9","null","","","","Images/WhiteBeadChoiceMM.png","null"
"image-keyboard-response","687","456743","0.0-7.0-2.19","9","null","","","","Images/WhiteBeadChoiceCorrectMM.png","null"
"image-keyboard-response","688","456755","0.0-7.0-0.20","9","9.495000005699694","","","","Images/NewTrialWCMM.png","39"
"image-keyboard-response","689","457009","0.0-7.0-1.20","9","null","","","","Images/WhiteBeadChoiceMM.png","null"
"image-keyboard-response","690","457513","0.0-7.0-2.20","9","null","","","","Images/WhiteBeadChoiceCorrectMM.png","null"
"image-keyboard-response","691","457623","0.0-7.0-0.21","9","107.65999997965991","","","","Images/NewTrialWCMM.png","39"
"image-keyboard-response","692","457883","0.0-7.0-1.21","9","null","","","","Images/WhiteBeadChoiceMM.png","null"
"image-keyboard-response","693","458397","0.0-7.0-2.21","9","null","","","","Images/WhiteBeadChoiceCorrectMM.png","null"
"image-keyboard-response","694","458557","0.0-7.0-0.22","9","157.695000001695","","","","Images/NewTrialWCMM.png","39"
"image-keyboard-response","695","458809","0.0-7.0-1.22","9","null","","","","Images/WhiteBeadChoiceMM.png","null"
"image-keyboard-response","696","459314","0.0-7.0-2.22","9","null","","","","Images/WhiteBeadChoiceCorrectMM.png","null"
"image-keyboard-response","697","459333","0.0-7.0-0.23","9","16.6000000317581","","","","Images/NewTrialWCMM.png","39"
"image-keyboard-response","698","459588","0.0-7.0-1.23","9","null","","","","Images/WhiteBeadChoiceMM.png","null"
"image-keyboard-response","699","460106","0.0-7.0-2.23","9","null","","","","Images/WhiteBeadChoiceWrongMM.png","null"
"image-keyboard-response","700","460262","0.0-7.0-0.24","9","153.6199999973178","","","","Images/NewTrialBCMM.png","37"
"image-keyboard-response","701","460525","0.0-7.0-1.24","9","null","","","","Images/BlackBeadChoiceMM.png","null"
"image-keyboard-response","702","461039","0.0-7.0-2.24","9","null","","","","Images/BlackBeadChoiceCorrectMM.png","null"
"image-keyboard-response","703","461152","0.0-7.0-0.25","9","110.99000001559034","","","","Images/NewTrialBCMM.png","37"
"image-keyboard-response","704","461421","0.0-7.0-1.25","9","null","","","","Images/BlackBeadChoiceMM.png","null"
"image-keyboard-response","705","461931","0.0-7.0-2.25","9","null","","","","Images/BlackBeadChoiceCorrectMM.png","null"
"image-keyboard-response","706","462093","0.0-7.0-0.26","9","159.32499995687976","","","","Images/NewTrialBCMM.png","37"
"image-keyboard-response","707","462352","0.0-7.0-1.26","9","null","","","","Images/BlackBeadChoiceMM.png","null"
"image-keyboard-response","708","462858","0.0-7.0-2.26","9","null","","","","Images/BlackBeadChoiceCorrectMM.png","null"
"image-keyboard-response","709","462888","0.0-7.0-0.27","9","27.799999981652945","","","","Images/NewTrialBCMM.png","37"
"image-keyboard-response","710","463142","0.0-7.0-1.27","9","null","","","","Images/BlackBeadChoiceMM.png","null"
"image-keyboard-response","711","463647","0.0-7.0-2.27","9","null","","","","Images/BlackBeadChoiceCorrectMM.png","null"
"image-keyboard-response","712","463707","0.0-7.0-0.28","9","57.09999997634441","","","","Images/NewTrialBCMM.png","37"
"image-keyboard-response","713","463973","0.0-7.0-1.28","9","null","","","","Images/BlackBeadChoiceMM.png","null"
"image-keyboard-response","714","464483","0.0-7.0-2.28","9","494.6549999876879","","","","Images/BlackBeadChoiceCorrectMM.png","37"
"image-keyboard-response","715","465042","0.0-7.0-0.29","9","557.1749999653548","","","","Images/NewTrialBCMM.png","37"
"image-keyboard-response","716","465307","0.0-7.0-1.29","9","null","","","","Images/BlackBeadChoiceMM.png","null"
"image-keyboard-response","717","465821","0.0-7.0-2.29","9","null","","","","Images/BlackBeadChoiceCorrectMM.png","null"
"image-keyboard-response","718","465823","0.0-7.0-0.30","9","0.30499999411404133","","","","Images/NewTrialBCMM.png","37"
"image-keyboard-response","719","466075","0.0-7.0-1.30","9","null","","","","Images/BlackBeadChoiceMM.png","null"
"image-keyboard-response","720","466589","0.0-7.0-2.30","9","null","","","","Images/BlackBeadChoiceWrongMM.png","null"
"image-keyboard-response","721","466823","0.0-7.0-0.31","9","231.78000003099442","","","","Images/NewTrialWCMM.png","39"
"image-keyboard-response","722","467078","0.0-7.0-1.31","9","null","","","","Images/WhiteBeadChoiceMM.png","null"
"image-keyboard-response","723","467585","0.0-7.0-2.31","9","498.4199999598786","","","","Images/WhiteBeadChoiceCorrectMM.png","39"
"image-keyboard-response","724","468081","0.0-7.0-0.32","9","494.3549999734387","","","","Images/NewTrialWCMM.png","39"
"image-keyboard-response","725","468334","0.0-7.0-1.32","9","null","","","","Images/WhiteBeadChoiceMM.png","null"
"image-keyboard-response","726","468842","0.0-7.0-2.32","9","null","","","","Images/WhiteBeadChoiceCorrectMM.png","null"
"image-keyboard-response","727","468952","0.0-7.0-0.33","9","107.74499998660758","","","","Images/NewTrialWCMM.png","39"
"image-keyboard-response","728","469206","0.0-7.0-1.33","9","null","","","","Images/WhiteBeadChoiceMM.png","null"
"image-keyboard-response","729","469712","0.0-7.0-2.33","9","451.96500001475215","","","","Images/WhiteBeadChoiceCorrectMM.png","39"
"image-keyboard-response","730","470170","0.0-7.0-0.34","9","454.33500001672655","","","","Images/NewTrialWCMM.png","39"
"image-keyboard-response","731","470423","0.0-7.0-1.34","9","null","","","","Images/WhiteBeadChoiceMM.png","null"
"image-keyboard-response","732","470926","0.0-7.0-2.34","9","null","","","","Images/WhiteBeadChoiceCorrectMM.png","null"
"image-keyboard-response","733","471145","0.0-7.0-0.35","9","216.27499995520338","","","","Images/NewTrialWCMM.png","39"
"image-keyboard-response","734","471398","0.0-7.0-1.35","9","null","","","","Images/WhiteBeadChoiceMM.png","null"
"image-keyboard-response","735","471914","0.0-7.0-2.35","9","null","","","","Images/WhiteBeadChoiceCorrectMM.png","null"
"image-keyboard-response","736","471995","0.0-7.0-0.36","9","78.61000002594665","","","","Images/NewTrialWCMM.png","39"
"image-keyboard-response","737","472262","0.0-7.0-1.36","9","null","","","","Images/WhiteBeadChoiceMM.png","null"
"image-keyboard-response","738","472768","0.0-7.0-2.36","9","null","","","","Images/WhiteBeadChoiceCorrectMM.png","null"
"image-keyboard-response","739","472842","0.0-7.0-0.37","9","71.28500001272187","","","","Images/NewTrialWCMM.png","39"
"image-keyboard-response","740","473098","0.0-7.0-1.37","9","null","","","","Images/WhiteBeadChoiceMM.png","null"
"image-keyboard-response","741","473601","0.0-7.0-2.37","9","null","","","","Images/WhiteBeadChoiceCorrectMM.png","null"
"image-keyboard-response","742","473702","0.0-7.0-0.38","9","98.6900000134483","","","","Images/NewTrialWCMM.png","39"
"image-keyboard-response","743","473960","0.0-7.0-1.38","9","null","","","","Images/WhiteBeadChoiceMM.png","null"
"image-keyboard-response","744","474477","0.0-7.0-2.38","9","null","","","","Images/WhiteBeadChoiceCorrectMM.png","null"
"image-keyboard-response","745","474509","0.0-7.0-0.39","9","29.77000002283603","","","","Images/NewTrialWCMM.png","39"
"image-keyboard-response","746","474762","0.0-7.0-1.39","9","null","","","","Images/WhiteBeadChoiceMM.png","null"
"image-keyboard-response","747","475268","0.0-7.0-2.39","9","null","","","","Images/WhiteBeadChoiceCorrectMM.png","null"
"image-keyboard-response","748","475314","0.0-7.0-0.40","9","43.71500003617257","","","","Images/NewTrialWCMM.png","39"
"image-keyboard-response","749","475566","0.0-7.0-1.40","9","null","","","","Images/WhiteBeadChoiceMM.png","null"
"image-keyboard-response","750","476081","0.0-7.0-2.40","9","null","","","","Images/WhiteBeadChoiceCorrectMM.png","null"
"image-keyboard-response","751","476088","0.0-7.0-0.41","9","4.045000008773059","","","","Images/NewTrialWCMM.png","39"
"image-keyboard-response","752","476343","0.0-7.0-1.41","9","null","","","","Images/WhiteBeadChoiceMM.png","null"
"image-keyboard-response","753","476847","0.0-7.0-2.41","9","null","","","","Images/WhiteBeadChoiceCorrectMM.png","null"
"image-keyboard-response","754","476856","0.0-7.0-0.42","9","6.809999991673976","","","","Images/NewTrialWCMM.png","39"
"image-keyboard-response","755","477109","0.0-7.0-1.42","9","null","","","","Images/WhiteBeadChoiceMM.png","null"
"image-keyboard-response","756","477611","0.0-7.0-2.42","9","497.9099999764003","","","","Images/WhiteBeadChoiceCorrectMM.png","39"
"image-keyboard-response","757","478118","0.0-7.0-0.43","9","503.9549999637529","","","","Images/NewTrialWCMM.png","39"
"image-keyboard-response","758","478379","0.0-7.0-1.43","9","null","","","","Images/WhiteBeadChoiceMM.png","null"
"image-keyboard-response","759","478882","0.0-7.0-2.43","9","null","","","","Images/WhiteBeadChoiceCorrectMM.png","null"
"image-keyboard-response","760","478938","0.0-7.0-0.44","9","53.47499996423721","","","","Images/NewTrialWCMM.png","39"
"image-keyboard-response","761","479194","0.0-7.0-1.44","9","null","","","","Images/WhiteBeadChoiceMM.png","null"
"image-keyboard-response","762","479698","0.0-7.0-2.44","9","493.3549999841489","","","","Images/WhiteBeadChoiceCorrectMM.png","39"
"image-keyboard-response","763","480162","0.0-7.0-0.45","9","461.91000001272187","","","","Images/NewTrialWCMM.png","39"
"image-keyboard-response","764","480422","0.0-7.0-1.45","9","null","","","","Images/WhiteBeadChoiceMM.png","null"
"image-keyboard-response","765","480936","0.0-7.0-2.45","9","null","","","","Images/WhiteBeadChoiceCorrectMM.png","null"
"image-keyboard-response","766","481057","0.0-7.0-0.46","9","118.68999997386709","","","","Images/NewTrialWCMM.png","39"
"image-keyboard-response","767","481324","0.0-7.0-1.46","9","null","","","","Images/WhiteBeadChoiceMM.png","null"
"image-keyboard-response","768","481838","0.0-7.0-2.46","9","null","","","","Images/WhiteBeadChoiceCorrectMM.png","null"
"image-keyboard-response","769","481940","0.0-7.0-0.47","9","96.60500002792105","","","","Images/NewTrialWCMM.png","39"
"image-keyboard-response","770","482208","0.0-7.0-1.47","9","null","","","","Images/WhiteBeadChoiceMM.png","null"
"image-keyboard-response","771","482712","0.0-7.0-2.47","9","null","","","","Images/WhiteBeadChoiceCorrectMM.png","null"
"image-keyboard-response","772","482810","0.0-7.0-0.48","9","95.12999997241423","","","","Images/NewTrialWCMM.png","39"
"image-keyboard-response","773","483074","0.0-7.0-1.48","9","null","","","","Images/WhiteBeadChoiceMM.png","null"
"image-keyboard-response","774","483587","0.0-7.0-2.48","9","null","","","","Images/WhiteBeadChoiceCorrectMM.png","null"
"image-keyboard-response","775","483664","0.0-7.0-0.49","9","74.12999996449798","","","","Images/NewTrialWCMM.png","39"
"image-keyboard-response","776","483918","0.0-7.0-1.49","9","null","","","","Images/WhiteBeadChoiceMM.png","null"
"image-keyboard-response","777","484430","0.0-7.0-2.49","9","null","","","","Images/WhiteBeadChoiceCorrectMM.png","null"
"image-keyboard-response","778","484460","0.0-7.0-0.50","9","28.02000002702698","","","","Images/NewTrialWCMM.png","39"
"image-keyboard-response","779","484720","0.0-7.0-1.50","9","null","","","","Images/WhiteBeadChoiceMM.png","null"
"image-keyboard-response","780","485225","0.0-7.0-2.50","9","null","","","","Images/WhiteBeadChoiceCorrectMM.png","null"
"image-keyboard-response","781","485284","0.0-7.0-0.51","9","57.29500000597909","","","","Images/NewTrialWCMM.png","39"
"image-keyboard-response","782","485540","0.0-7.0-1.51","9","null","","","","Images/WhiteBeadChoiceMM.png","null"
"image-keyboard-response","783","486052","0.0-7.0-2.51","9","null","","","","Images/WhiteBeadChoiceCorrectMM.png","null"
"image-keyboard-response","784","486071","0.0-7.0-0.52","9","16.60999999148771","","","","Images/NewTrialWCMM.png","39"
"image-keyboard-response","785","486330","0.0-7.0-1.52","9","null","","","","Images/WhiteBeadChoiceMM.png","null"
"image-keyboard-response","786","486836","0.0-7.0-2.52","9","null","","","","Images/WhiteBeadChoiceCorrectMM.png","null"
"image-keyboard-response","787","486855","0.0-7.0-0.53","9","15.829999989364296","","","","Images/NewTrialWCMM.png","39"
"image-keyboard-response","788","487109","0.0-7.0-1.53","9","null","","","","Images/WhiteBeadChoiceMM.png","null"
"image-keyboard-response","789","487615","0.0-7.0-2.53","9","493.25499997939914","","","","Images/WhiteBeadChoiceCorrectMM.png","39"
"image-keyboard-response","790","488098","0.0-7.0-0.54","9","480.8600000105798","","","","Images/NewTrialWCMM.png","39"
"image-keyboard-response","791","488352","0.0-7.0-1.54","9","null","","","","Images/WhiteBeadChoiceMM.png","null"
"image-keyboard-response","792","488860","0.0-7.0-2.54","9","null","","","","Images/WhiteBeadChoiceCorrectMM.png","null"
"image-keyboard-response","793","489012","0.0-7.0-0.55","9","149.68999999109656","","","","Images/NewTrialWCMM.png","39"
"image-keyboard-response","794","489271","0.0-7.0-1.55","9","null","","","","Images/WhiteBeadChoiceMM.png","null"
"image-keyboard-response","795","489785","0.0-7.0-2.55","9","null","","","","Images/WhiteBeadChoiceCorrectMM.png","null"
"image-keyboard-response","796","489806","0.0-7.0-0.56","9","18.404999980702996","","","","Images/NewTrialWCMM.png","39"
"image-keyboard-response","797","490065","0.0-7.0-1.56","9","null","","","","Images/WhiteBeadChoiceMM.png","null"
"image-keyboard-response","798","490580","0.0-7.0-2.56","9","null","","","","Images/WhiteBeadChoiceCorrectMM.png","null"
"image-keyboard-response","799","490658","0.0-7.0-0.57","9","75.79000003170222","","","","Images/NewTrialWCMM.png","39"
"image-keyboard-response","800","490913","0.0-7.0-1.57","9","null","","","","Images/WhiteBeadChoiceMM.png","null"
"image-keyboard-response","801","491419","0.0-7.0-2.57","9","null","","","","Images/WhiteBeadChoiceCorrectMM.png","null"
"image-keyboard-response","802","491433","0.0-7.0-0.58","9","11.929999978747219","","","","Images/NewTrialWCMM.png","39"
"image-keyboard-response","803","491686","0.0-7.0-1.58","9","null","","","","Images/WhiteBeadChoiceMM.png","null"
"image-keyboard-response","804","492190","0.0-7.0-2.58","9","null","","","","Images/WhiteBeadChoiceCorrectMM.png","null"
"image-keyboard-response","805","492386","0.0-7.0-0.59","9","193.38000001152977","","","","Images/NewTrialWCMM.png","39"
"image-keyboard-response","806","492650","0.0-7.0-1.59","9","null","","","","Images/WhiteBeadChoiceMM.png","null"
"image-keyboard-response","807","493168","0.0-7.0-2.59","9","null","","","","Images/WhiteBeadChoiceCorrectMM.png","null"
"image-keyboard-response","808","493294","0.0-7.0-0.60","9","122.7099999669008","","","","Images/NewTrialWCMM.png","39"
"image-keyboard-response","809","493559","0.0-7.0-1.60","9","null","","","","Images/WhiteBeadChoiceMM.png","null"
"image-keyboard-response","810","494067","0.0-7.0-2.60","9","488.8500000233762","","","","Images/WhiteBeadChoiceCorrectMM.png","39"
"image-keyboard-response","811","494527","0.0-7.0-0.61","9","457.90500001749024","","","","Images/NewTrialWCMM.png","39"
"image-keyboard-response","812","494780","0.0-7.0-1.61","9","null","","","","Images/WhiteBeadChoiceMM.png","null"
"image-keyboard-response","813","495292","0.0-7.0-2.61","9","null","","","","Images/WhiteBeadChoiceCorrectMM.png","null"
