"trial_type","trial_index","time_elapsed","internal_node_id","Script_Picker","Block_Type","rt","url","responses","question_order","stimulus","key_press"
"pavlovia","0","9","0.0-0.0","3","Low_HMMActual","","","","","",""
"external-html","1","40036","0.0-1.0-0.0","3","Low_HMMActual","39598.34500000579","consent.html","","","",""
"survey-multi-choice","2","49962","0.0-1.0-1.0","3","Low_HMMActual","9908.465000044089","","{""Q0"":""Female"",""Q1"":""White""}","[0,1]","",""
"survey-text","3","54182","0.0-1.0-2.0","3","Low_HMMActual","4205.030000011902","","{""Q0"":""22""}","","",""
"survey-text","4","58849","0.0-1.0-3.0","3","Low_HMMActual","4561.914999969304","","{""Q0"":""5d1a035978bf96001a5d7d65""}","","",""
"html-keyboard-response","5","77601","0.0-2.0-0.0","3","Low_HMMActual","18648.205000034068","","","","<div class=""container"" style=""height:800px;width:800px;display:flex;flex-direction:column;justify-content:center;align-items:center;text-align:center;font-weight:normal;font-family:Arial;font-size:20px""><p>In this task you will see black or white beads being pulled from jars. <br><br>On each trial, a bead will be pulled from one of two jars. Once you see this bead, your goal is to predict the color of NEXT bead that will be pulled. <br> <br>Every time you correctly guess the color of the NEXT bead, you will get a point. <br><br>Press the SPACEBAR to continue.</p><div>","32"
"html-keyboard-response","6","86116","0.0-2.0-1.0","3","Low_HMMActual","8514.005000004545","","","","<div class=""container"" style=""height:800px;width:800px;display:flex;flex-direction:column;justify-content:center;align-items:center;text-align:center;font-weight:normal;font-family:Arial;font-size:20px""><p>Jars are filled with 85% white or black beads and 15% of the opposite color mixed in<br><br>Press the SPACEBAR to continue. </p><div>","32"
"image-keyboard-response","7","95021","0.0-2.0-2.0","3","Low_HMMActual","8902.150000038091","","","","resources/WhiteJar_HMM.png","32"
"image-keyboard-response","8","106152","0.0-2.0-3.0","3","Low_HMMActual","11130.449999996927","","","","resources/BlackJar_HMM.png","32"
"html-keyboard-response","9","122239","0.0-2.0-4.0","3","Low_HMMActual","16084.719999984372","","","","<div class=""container"" style=""height:800px;width:800px;display:flex;flex-direction:column;justify-content:center;align-items:center;text-align:center;font-weight:normal;font-family:Arial;font-size:20px""><p>There will be two blocks of trials. Each block will contain 500 trials. <br><br>Here are examples of what you will see on each trial.<br><br>Press the SPACEBAR to continue. </p><div>","32"
"image-keyboard-response","10","127536","0.0-2.0-5.0","3","Low_HMMActual","5293.004999984987","","","","Images/NoChoice.png","32"
"html-keyboard-response","11","172413","0.0-2.0-6.0","3","Low_HMMActual","44875.61499996809","","","","<div class=""container"" style=""height:800px;width:800px;display:flex;flex-direction:column;justify-content:center;align-items:center;text-align:center;font-weight:normal;font-family:Arial;font-size:20px""><p> The jar the beads are pulled from is NOT choosen at random on each trial.<br><br>After each prediction, there will be a chance that the jars will switch, and that the next bead will be pulled from the opposite jar as the previous trial.<br><br>In each block, the chance that a jar will switch will either be LOW (the jars will not switch very often), or HIGH (the jars will switch almost all the time).<br><br>At the start of each block, you will be told the probability that the jars will switch on each trial. This switch probability will stay constant throughout the block.<br><br>Press the SPACEBAR to continue. </p><div>","32"
"image-keyboard-response","12","187926","0.0-2.0-7.0","3","Low_HMMActual","15510.739999997895","","","","Images/TutorialWhiteJarDrawHMMC.png","32"
"image-keyboard-response","13","193357","0.0-2.0-8.0","3","Low_HMMActual","5430.730000021867","","","","Images/TutorialBlackJarDrawHMMC.png","32"
"image-keyboard-response","14","197877","0.0-2.0-9.0","3","Low_HMMActual","4518.7499999883585","","","","Images/TutorialBlackJarDrawHMMI.png","32"
"html-keyboard-response","15","231049","0.0-2.0-10.0","3","Low_HMMActual","33170.105000026524","","","","<div class=""container"" style=""height:800px;width:800px;display:flex;flex-direction:column;justify-content:center;align-items:center;text-align:center;font-weight:normal;font-family:Arial;font-size:20px""><p> As you observed, a white bead was pulled from a 85% white jar, the jars switched and a black bead was pulled from the 85% black jar, but then low-probability white bead was pulled from the 90% black jar. <br><br>In these mixed-jar blocks, you will first have to figure out which jar the current bead was pulled from, then use the jar switch probability to predict the color of the next bead.<br><br>Press SPACEBAR to conitnue.</p><div>","32"
"html-keyboard-response","16","251479","0.0-2.0-11.0","3","Low_HMMActual","20428.25500003528","","","","<div class=""container"" style=""height:800px;width:800px;display:flex;flex-direction:column;justify-content:center;align-items:center;text-align:center;font-weight:normal;font-family:Arial;font-size:20px""><p> You will now be given a 2 question quiz to make sure you understand the fundamentals. </p><div>","32"
"image-keyboard-response","17","263907","0.0-2.0-12.0","3","Low_HMMActual","12425.945000024512","","","","Images/TutorialQuestion1.png","39"
"image-keyboard-response","18","279701","0.0-2.0-13.0","3","Low_HMMActual","13155.109999992419","","","","Images/TutorialQuestion2.png","38"
"html-keyboard-response","19","305321","0.0-3.0","3","Low_HMMActual","23673.41500002658","","","","<div class=""container"" style=""height:800px;width:800px;display:flex;flex-direction:column;justify-content:center;align-items:center;text-align:center;font-weight:normal;font-family:Arial;font-size:20px""><p>Loading episode&hellip;</p><div>","32"
"image-keyboard-response","20","320122","0.0-4.0-0.0","3","Low_HMMActual","14798.705000022892","","","","Images/NoChoice.png","39"
"image-keyboard-response","21","320378","0.0-4.0-1.0","3","Low_HMMActual","null","","","","Images/WhiteBeadChoice.png","null"
"image-keyboard-response","22","320880","0.0-4.0-2.0","3","Low_HMMActual","null","","","","Images/WhiteBeadChoiceCorrect.png","null"
"image-keyboard-response","23","325849","0.0-4.0-0.1","3","Low_HMMActual","4966.954999952577","","","","Images/NewTrialWC.png","39"
"image-keyboard-response","24","326105","0.0-4.0-1.1","3","Low_HMMActual","null","","","","Images/WhiteBeadChoice.png","null"
"image-keyboard-response","25","326609","0.0-4.0-2.1","3","Low_HMMActual","null","","","","Images/WhiteBeadChoiceCorrect.png","null"
"image-keyboard-response","26","327565","0.0-4.0-0.2","3","Low_HMMActual","954.7199999797158","","","","Images/NewTrialWC.png","39"
"image-keyboard-response","27","327820","0.0-4.0-1.2","3","Low_HMMActual","null","","","","Images/WhiteBeadChoice.png","null"
"image-keyboard-response","28","328322","0.0-4.0-2.2","3","Low_HMMActual","null","","","","Images/WhiteBeadChoiceCorrect.png","null"
"image-keyboard-response","29","328706","0.0-4.0-0.3","3","Low_HMMActual","382.85500003257766","","","","Images/NewTrialWC.png","39"
"image-keyboard-response","30","328962","0.0-4.0-1.3","3","Low_HMMActual","null","","","","Images/WhiteBeadChoice.png","null"
"image-keyboard-response","31","329467","0.0-4.0-2.3","3","Low_HMMActual","null","","","","Images/WhiteBeadChoiceWrong.png","null"
"image-keyboard-response","32","332484","0.0-4.0-0.4","3","Low_HMMActual","3016.219999990426","","","","Images/NewTrialBC.png","39"
"image-keyboard-response","33","332740","0.0-4.0-1.4","3","Low_HMMActual","null","","","","Images/WhiteBeadChoice.png","null"
"image-keyboard-response","34","333247","0.0-4.0-2.4","3","Low_HMMActual","null","","","","Images/WhiteBeadChoiceCorrect.png","null"
"image-keyboard-response","35","333905","0.0-4.0-0.5","3","Low_HMMActual","656.4049999578856","","","","Images/NewTrialWC.png","39"
"image-keyboard-response","36","334158","0.0-4.0-1.5","3","Low_HMMActual","null","","","","Images/WhiteBeadChoice.png","null"
"image-keyboard-response","37","334665","0.0-4.0-2.5","3","Low_HMMActual","null","","","","Images/WhiteBeadChoiceCorrect.png","null"
"image-keyboard-response","38","334961","0.0-4.0-0.6","3","Low_HMMActual","295.05499999504536","","","","Images/NewTrialWC.png","39"
"image-keyboard-response","39","335218","0.0-4.0-1.6","3","Low_HMMActual","null","","","","Images/WhiteBeadChoice.png","null"
"image-keyboard-response","40","335724","0.0-4.0-2.6","3","Low_HMMActual","null","","","","Images/WhiteBeadChoiceCorrect.png","null"
"image-keyboard-response","41","335943","0.0-4.0-0.7","3","Low_HMMActual","217.160000000149","","","","Images/NewTrialWC.png","39"
"image-keyboard-response","42","336199","0.0-4.0-1.7","3","Low_HMMActual","null","","","","Images/WhiteBeadChoice.png","null"
"image-keyboard-response","43","336704","0.0-4.0-2.7","3","Low_HMMActual","null","","","","Images/WhiteBeadChoiceWrong.png","null"
"image-keyboard-response","44","338255","0.0-4.0-0.8","3","Low_HMMActual","1549.8150000348687","","","","Images/NewTrialBC.png","39"
"image-keyboard-response","45","338508","0.0-4.0-1.8","3","Low_HMMActual","null","","","","Images/WhiteBeadChoice.png","null"
"image-keyboard-response","46","339014","0.0-4.0-2.8","3","Low_HMMActual","null","","","","Images/WhiteBeadChoiceCorrect.png","null"
"image-keyboard-response","47","339216","0.0-4.0-0.9","3","Low_HMMActual","200.57500002440065","","","","Images/NewTrialWC.png","39"
"image-keyboard-response","48","339473","0.0-4.0-1.9","3","Low_HMMActual","null","","","","Images/WhiteBeadChoice.png","null"
"image-keyboard-response","49","339974","0.0-4.0-2.9","3","Low_HMMActual","null","","","","Images/WhiteBeadChoiceCorrect.png","null"
"image-keyboard-response","50","340048","0.0-4.0-0.10","3","Low_HMMActual","72.64999998733401","","","","Images/NewTrialWC.png","39"
"image-keyboard-response","51","340305","0.0-4.0-1.10","3","Low_HMMActual","null","","","","Images/WhiteBeadChoice.png","null"
"image-keyboard-response","52","340809","0.0-4.0-2.10","3","Low_HMMActual","null","","","","Images/WhiteBeadChoiceCorrect.png","null"
"image-keyboard-response","53","341110","0.0-4.0-0.11","3","Low_HMMActual","300.34000001614913","","","","Images/NewTrialWC.png","39"
"image-keyboard-response","54","341363","0.0-4.0-1.11","3","Low_HMMActual","null","","","","Images/WhiteBeadChoice.png","null"
"image-keyboard-response","55","341869","0.0-4.0-2.11","3","Low_HMMActual","null","","","","Images/WhiteBeadChoiceWrong.png","null"
"image-keyboard-response","56","341974","0.0-4.0-0.12","3","Low_HMMActual","103.62499998882413","","","","Images/NewTrialBC.png","39"
"image-keyboard-response","57","342231","0.0-4.0-1.12","3","Low_HMMActual","null","","","","Images/WhiteBeadChoice.png","null"
"image-keyboard-response","58","342734","0.0-4.0-2.12","3","Low_HMMActual","null","","","","Images/WhiteBeadChoiceWrong.png","null"
"image-keyboard-response","59","343375","0.0-4.0-0.13","3","Low_HMMActual","639.7899999865331","","","","Images/NewTrialBC.png","39"
"image-keyboard-response","60","343628","0.0-4.0-1.13","3","Low_HMMActual","null","","","","Images/WhiteBeadChoice.png","null"
"image-keyboard-response","61","344131","0.0-4.0-2.13","3","Low_HMMActual","493.6800000141375","","","","Images/WhiteBeadChoiceCorrect.png","39"
"image-keyboard-response","62","344863","0.0-4.0-0.14","3","Low_HMMActual","730.8650000486523","","","","Images/NewTrialWC.png","39"
"image-keyboard-response","63","345126","0.0-4.0-1.14","3","Low_HMMActual","null","","","","Images/WhiteBeadChoice.png","null"
"image-keyboard-response","64","345633","0.0-4.0-2.14","3","Low_HMMActual","null","","","","Images/WhiteBeadChoiceCorrect.png","null"
"image-keyboard-response","65","345803","0.0-4.0-0.15","3","Low_HMMActual","168.67500002263114","","","","Images/NewTrialWC.png","39"
"image-keyboard-response","66","346059","0.0-4.0-1.15","3","Low_HMMActual","null","","","","Images/WhiteBeadChoice.png","null"
"image-keyboard-response","67","346566","0.0-4.0-2.15","3","Low_HMMActual","null","","","","Images/WhiteBeadChoiceCorrect.png","null"
"image-keyboard-response","68","346882","0.0-4.0-0.16","3","Low_HMMActual","315.4699999722652","","","","Images/NewTrialWC.png","39"
"image-keyboard-response","69","347141","0.0-4.0-1.16","3","Low_HMMActual","null","","","","Images/WhiteBeadChoice.png","null"
"image-keyboard-response","70","347648","0.0-4.0-2.16","3","Low_HMMActual","464.3849999993108","","","","Images/WhiteBeadChoiceCorrect.png","39"
"image-keyboard-response","71","348100","0.0-4.0-0.17","3","Low_HMMActual","450.8250000071712","","","","Images/NewTrialWC.png","39"
"image-keyboard-response","72","348356","0.0-4.0-1.17","3","Low_HMMActual","null","","","","Images/WhiteBeadChoice.png","null"
"image-keyboard-response","73","348858","0.0-4.0-2.17","3","Low_HMMActual","364.7550000459887","","","","Images/WhiteBeadChoiceCorrect.png","39"
"image-keyboard-response","74","349188","0.0-4.0-0.18","3","Low_HMMActual","328.20000004721805","","","","Images/NewTrialWC.png","39"
"image-keyboard-response","75","349444","0.0-4.0-1.18","3","Low_HMMActual","null","","","","Images/WhiteBeadChoice.png","null"
"image-keyboard-response","76","349946","0.0-4.0-2.18","3","Low_HMMActual","463.5450000059791","","","","Images/WhiteBeadChoiceCorrect.png","39"
"image-keyboard-response","77","350631","0.0-4.0-0.19","3","Low_HMMActual","683.6250000051223","","","","Images/NewTrialWC.png","39"
"image-keyboard-response","78","350887","0.0-4.0-1.19","3","Low_HMMActual","null","","","","Images/WhiteBeadChoice.png","null"
"image-keyboard-response","79","351391","0.0-4.0-2.19","3","Low_HMMActual","null","","","","Images/WhiteBeadChoiceCorrect.png","null"
"image-keyboard-response","80","351803","0.0-4.0-0.20","3","Low_HMMActual","410.7800000347197","","","","Images/NewTrialWC.png","39"
"image-keyboard-response","81","352059","0.0-4.0-1.20","3","Low_HMMActual","null","","","","Images/WhiteBeadChoice.png","null"
"image-keyboard-response","82","352565","0.0-4.0-2.20","3","Low_HMMActual","null","","","","Images/WhiteBeadChoiceCorrect.png","null"
"image-keyboard-response","83","352870","0.0-4.0-0.21","3","Low_HMMActual","303.16499999025837","","","","Images/NewTrialWC.png","39"
"image-keyboard-response","84","353126","0.0-4.0-1.21","3","Low_HMMActual","null","","","","Images/WhiteBeadChoice.png","null"
"image-keyboard-response","85","353629","0.0-4.0-2.21","3","Low_HMMActual","472.5800000014715","","","","Images/WhiteBeadChoiceCorrect.png","39"
"image-keyboard-response","86","354231","0.0-4.0-0.22","3","Low_HMMActual","600.6399999605492","","","","Images/NewTrialWC.png","39"
"image-keyboard-response","87","354485","0.0-4.0-1.22","3","Low_HMMActual","null","","","","Images/WhiteBeadChoice.png","null"
"image-keyboard-response","88","354991","0.0-4.0-2.22","3","Low_HMMActual","308.82500001462176","","","","Images/WhiteBeadChoiceCorrect.png","39"
"image-keyboard-response","89","355128","0.0-4.0-0.23","3","Low_HMMActual","135.39499999023974","","","","Images/NewTrialWC.png","39"
"image-keyboard-response","90","355384","0.0-4.0-1.23","3","Low_HMMActual","null","","","","Images/WhiteBeadChoice.png","null"
"image-keyboard-response","91","355890","0.0-4.0-2.23","3","Low_HMMActual","101.51000000769272","","","","Images/WhiteBeadChoiceCorrect.png","39"
"image-keyboard-response","92","356263","0.0-4.0-0.24","3","Low_HMMActual","372.1600000280887","","","","Images/NewTrialWC.png","39"
"image-keyboard-response","93","356519","0.0-4.0-1.24","3","Low_HMMActual","null","","","","Images/WhiteBeadChoice.png","null"
"image-keyboard-response","94","357026","0.0-4.0-2.24","3","Low_HMMActual","50.989999959710985","","","","Images/WhiteBeadChoiceCorrect.png","39"
"image-keyboard-response","95","357229","0.0-4.0-0.25","3","Low_HMMActual","201.50500000454485","","","","Images/NewTrialWC.png","39"
"image-keyboard-response","96","357485","0.0-4.0-1.25","3","Low_HMMActual","null","","","","Images/WhiteBeadChoice.png","null"
"image-keyboard-response","97","357991","0.0-4.0-2.25","3","Low_HMMActual","73.5149999964051","","","","Images/WhiteBeadChoiceCorrect.png","39"
"image-keyboard-response","98","358247","0.0-4.0-0.26","3","Low_HMMActual","254.92999999551103","","","","Images/NewTrialWC.png","39"
"image-keyboard-response","99","358504","0.0-4.0-1.26","3","Low_HMMActual","null","","","","Images/WhiteBeadChoice.png","null"
"image-keyboard-response","100","359009","0.0-4.0-2.26","3","Low_HMMActual","78.63999996334314","","","","Images/WhiteBeadChoiceCorrect.png","39"
"image-keyboard-response","101","359250","0.0-4.0-0.27","3","Low_HMMActual","239.1899999929592","","","","Images/NewTrialWC.png","39"
"image-keyboard-response","102","359506","0.0-4.0-1.27","3","Low_HMMActual","null","","","","Images/WhiteBeadChoice.png","null"
"image-keyboard-response","103","360010","0.0-4.0-2.27","3","Low_HMMActual","82.35499996226281","","","","Images/WhiteBeadChoiceCorrect.png","39"
"image-keyboard-response","104","360223","0.0-4.0-0.28","3","Low_HMMActual","212.42500003427267","","","","Images/NewTrialWC.png","39"
"image-keyboard-response","105","360480","0.0-4.0-1.28","3","Low_HMMActual","null","","","","Images/WhiteBeadChoice.png","null"
"image-keyboard-response","106","360986","0.0-4.0-2.28","3","Low_HMMActual","11.170000012498349","","","","Images/WhiteBeadChoiceCorrect.png","39"
"image-keyboard-response","107","361065","0.0-4.0-0.29","3","Low_HMMActual","77.77000003261492","","","","Images/NewTrialWC.png","39"
"image-keyboard-response","108","361319","0.0-4.0-1.29","3","Low_HMMActual","null","","","","Images/WhiteBeadChoice.png","null"
"image-keyboard-response","109","361823","0.0-4.0-2.29","3","Low_HMMActual","27.149999979883432","","","","Images/WhiteBeadChoiceCorrect.png","39"
"image-keyboard-response","110","361912","0.0-4.0-0.30","3","Low_HMMActual","88.11500004958361","","","","Images/NewTrialWC.png","39"
"image-keyboard-response","111","362168","0.0-4.0-1.30","3","Low_HMMActual","null","","","","Images/WhiteBeadChoice.png","null"
"image-keyboard-response","112","362670","0.0-4.0-2.30","3","Low_HMMActual","35.730000003241","","","","Images/WhiteBeadChoiceCorrect.png","39"
"image-keyboard-response","113","362861","0.0-4.0-0.31","3","Low_HMMActual","189.60499996319413","","","","Images/NewTrialWC.png","39"
"image-keyboard-response","114","363117","0.0-4.0-1.31","3","Low_HMMActual","null","","","","Images/WhiteBeadChoice.png","null"
"image-keyboard-response","115","363623","0.0-4.0-2.31","3","Low_HMMActual","17.715000023599714","","","","Images/WhiteBeadChoiceCorrect.png","39"
"image-keyboard-response","116","363651","0.0-4.0-0.32","3","Low_HMMActual","27.089999988675117","","","","Images/NewTrialWC.png","39"
"image-keyboard-response","117","363904","0.0-4.0-1.32","3","Low_HMMActual","null","","","","Images/WhiteBeadChoice.png","null"
"image-keyboard-response","118","364410","0.0-4.0-2.32","3","Low_HMMActual","38.46499999053776","","","","Images/WhiteBeadChoiceCorrect.png","39"
"image-keyboard-response","119","364481","0.0-4.0-0.33","3","Low_HMMActual","70.55000000400469","","","","Images/NewTrialWC.png","39"
"image-keyboard-response","120","364736","0.0-4.0-1.33","3","Low_HMMActual","null","","","","Images/WhiteBeadChoice.png","null"
"image-keyboard-response","121","365242","0.0-4.0-2.33","3","Low_HMMActual","4.254999978002161","","","","Images/WhiteBeadChoiceCorrect.png","39"
"image-keyboard-response","122","365346","0.0-4.0-0.34","3","Low_HMMActual","102.454999985639","","","","Images/NewTrialWC.png","39"
"image-keyboard-response","123","365602","0.0-4.0-1.34","3","Low_HMMActual","null","","","","Images/WhiteBeadChoice.png","null"
"image-keyboard-response","124","366107","0.0-4.0-2.34","3","Low_HMMActual","51.725000026635826","","","","Images/WhiteBeadChoiceCorrect.png","39"
"image-keyboard-response","125","366278","0.0-4.0-0.35","3","Low_HMMActual","169.52499997569248","","","","Images/NewTrialWC.png","39"
"image-keyboard-response","126","366531","0.0-4.0-1.35","3","Low_HMMActual","null","","","","Images/WhiteBeadChoice.png","null"
"image-keyboard-response","127","367036","0.0-4.0-2.35","3","Low_HMMActual","67.7799999830313","","","","Images/WhiteBeadChoiceCorrect.png","39"
"image-keyboard-response","128","367180","0.0-4.0-0.36","3","Low_HMMActual","143.6049999902025","","","","Images/NewTrialWC.png","39"
"image-keyboard-response","129","367437","0.0-4.0-1.36","3","Low_HMMActual","null","","","","Images/WhiteBeadChoice.png","null"
"image-keyboard-response","130","367941","0.0-4.0-2.36","3","Low_HMMActual","37.45000000344589","","","","Images/WhiteBeadChoiceCorrect.png","39"
"image-keyboard-response","131","368070","0.0-4.0-0.37","3","Low_HMMActual","127.97999999020249","","","","Images/NewTrialWC.png","39"
"image-keyboard-response","132","368326","0.0-4.0-1.37","3","Low_HMMActual","null","","","","Images/WhiteBeadChoice.png","null"
"image-keyboard-response","133","368833","0.0-4.0-2.37","3","Low_HMMActual","130.585000035353","","","","Images/WhiteBeadChoiceCorrect.png","39"
"image-keyboard-response","134","369057","0.0-4.0-0.38","3","Low_HMMActual","223.15999999409541","","","","Images/NewTrialWC.png","39"
"image-keyboard-response","135","369313","0.0-4.0-1.38","3","Low_HMMActual","null","","","","Images/WhiteBeadChoice.png","null"
"image-keyboard-response","136","369820","0.0-4.0-2.38","3","Low_HMMActual","8.964999986346811","","","","Images/WhiteBeadChoiceWrong.png","39"
"image-keyboard-response","137","369903","0.0-4.0-0.39","3","Low_HMMActual","81.88999997219071","","","","Images/NewTrialBC.png","39"
"image-keyboard-response","138","370159","0.0-4.0-1.39","3","Low_HMMActual","null","","","","Images/WhiteBeadChoice.png","null"
"image-keyboard-response","139","370665","0.0-4.0-2.39","3","Low_HMMActual","98.62999996403232","","","","Images/WhiteBeadChoiceCorrect.png","39"
"image-keyboard-response","140","370828","0.0-4.0-0.40","3","Low_HMMActual","161.75999998813495","","","","Images/NewTrialWC.png","39"
"image-keyboard-response","141","371089","0.0-4.0-1.40","3","Low_HMMActual","214.42500001285225","","","","Images/WhiteBeadChoice.png","39"
"image-keyboard-response","142","371595","0.0-4.0-2.40","3","Low_HMMActual","197.86499999463558","","","","Images/WhiteBeadChoiceCorrect.png","39"
"image-keyboard-response","143","371773","0.0-4.0-0.41","3","Low_HMMActual","176.24000000068918","","","","Images/NewTrialWC.png","39"
"image-keyboard-response","144","372029","0.0-4.0-1.41","3","Low_HMMActual","null","","","","Images/WhiteBeadChoice.png","null"
"image-keyboard-response","145","372536","0.0-4.0-2.41","3","Low_HMMActual","104.69499998725951","","","","Images/WhiteBeadChoiceCorrect.png","39"
"image-keyboard-response","146","372735","0.0-4.0-0.42","3","Low_HMMActual","197.89000001037493","","","","Images/NewTrialWC.png","39"
"image-keyboard-response","147","372991","0.0-4.0-1.42","3","Low_HMMActual","null","","","","Images/WhiteBeadChoice.png","null"
"image-keyboard-response","148","373498","0.0-4.0-2.42","3","Low_HMMActual","23.600000014994293","","","","Images/WhiteBeadChoiceCorrect.png","39"
"image-keyboard-response","149","373559","0.0-4.0-0.43","3","Low_HMMActual","57.72000004071742","","","","Images/NewTrialWC.png","39"
"image-keyboard-response","150","373810","0.0-4.0-1.43","3","Low_HMMActual","null","","","","Images/WhiteBeadChoice.png","null"
"image-keyboard-response","151","374316","0.0-4.0-2.43","3","Low_HMMActual","21.290000004228204","","","","Images/WhiteBeadChoiceWrong.png","39"
"image-keyboard-response","152","374383","0.0-4.0-0.44","3","Low_HMMActual","65.11999998474494","","","","Images/NewTrialBC.png","39"
"image-keyboard-response","153","374634","0.0-4.0-1.44","3","Low_HMMActual","null","","","","Images/WhiteBeadChoice.png","null"
"image-keyboard-response","154","375137","0.0-4.0-2.44","3","Low_HMMActual","47.669999999925494","","","","Images/WhiteBeadChoiceCorrect.png","39"
"image-keyboard-response","155","375275","0.0-4.0-0.45","3","Low_HMMActual","136.7900000186637","","","","Images/NewTrialWC.png","39"
"image-keyboard-response","156","375531","0.0-4.0-1.45","3","Low_HMMActual","null","","","","Images/WhiteBeadChoice.png","null"
"image-keyboard-response","157","376037","0.0-4.0-2.45","3","Low_HMMActual","21.21500001521781","","","","Images/WhiteBeadChoiceCorrect.png","39"
"image-keyboard-response","158","376091","0.0-4.0-0.46","3","Low_HMMActual","51.96999997133389","","","","Images/NewTrialWC.png","39"
"image-keyboard-response","159","376347","0.0-4.0-1.46","3","Low_HMMActual","null","","","","Images/WhiteBeadChoice.png","null"
"image-keyboard-response","160","376853","0.0-4.0-2.46","3","Low_HMMActual","61.23499997192994","","","","Images/WhiteBeadChoiceCorrect.png","39"
"image-keyboard-response","161","376952","0.0-4.0-0.47","3","Low_HMMActual","97.15500002494082","","","","Images/NewTrialWC.png","39"
"image-keyboard-response","162","377208","0.0-4.0-1.47","3","Low_HMMActual","null","","","","Images/WhiteBeadChoice.png","null"
"image-keyboard-response","163","377714","0.0-4.0-2.47","3","Low_HMMActual","9.365000005345792","","","","Images/WhiteBeadChoiceCorrect.png","39"
"image-keyboard-response","164","377875","0.0-4.0-0.48","3","Low_HMMActual","159.1049999697134","","","","Images/NewTrialWC.png","39"
"image-keyboard-response","165","378129","0.0-4.0-1.48","3","Low_HMMActual","null","","","","Images/WhiteBeadChoice.png","null"
"image-keyboard-response","166","378634","0.0-4.0-2.48","3","Low_HMMActual","29.55500001553446","","","","Images/WhiteBeadChoiceCorrect.png","39"
"image-keyboard-response","167","378830","0.0-4.0-0.49","3","Low_HMMActual","194.4950000033714","","","","Images/NewTrialWC.png","39"
"image-keyboard-response","168","379086","0.0-4.0-1.49","3","Low_HMMActual","null","","","","Images/WhiteBeadChoice.png","null"
"image-keyboard-response","169","379590","0.0-4.0-2.49","3","Low_HMMActual","63.655000005383044","","","","Images/WhiteBeadChoiceCorrect.png","39"
"image-keyboard-response","170","379774","0.0-4.0-0.50","3","Low_HMMActual","182.17000004369766","","","","Images/NewTrialWC.png","39"
"image-keyboard-response","171","380026","0.0-4.0-1.50","3","Low_HMMActual","251.01499998709187","","","","Images/WhiteBeadChoice.png","39"
"image-keyboard-response","172","380531","0.0-4.0-2.50","3","Low_HMMActual","253.78500000806525","","","","Images/WhiteBeadChoiceCorrect.png","39"
"image-keyboard-response","173","380599","0.0-4.0-0.51","3","Low_HMMActual","66.48999999742955","","","","Images/NewTrialWC.png","39"
"image-keyboard-response","174","380855","0.0-4.0-1.51","3","Low_HMMActual","182.97999998321757","","","","Images/WhiteBeadChoice.png","39"
"image-keyboard-response","175","381360","0.0-4.0-2.51","3","Low_HMMActual","195.72499999776483","","","","Images/WhiteBeadChoiceCorrect.png","39"
"image-keyboard-response","176","381567","0.0-4.0-0.52","3","Low_HMMActual","205.30000003054738","","","","Images/NewTrialWC.png","39"
"image-keyboard-response","177","381823","0.0-4.0-1.52","3","Low_HMMActual","null","","","","Images/WhiteBeadChoice.png","null"
"image-keyboard-response","178","382329","0.0-4.0-2.52","3","Low_HMMActual","null","","","","Images/WhiteBeadChoiceWrong.png","null"
"image-keyboard-response","179","382637","0.0-4.0-0.53","3","Low_HMMActual","306.9099999847822","","","","Images/NewTrialBC.png","39"
"image-keyboard-response","180","382891","0.0-4.0-1.53","3","Low_HMMActual","null","","","","Images/WhiteBeadChoice.png","null"
"image-keyboard-response","181","383393","0.0-4.0-2.53","3","Low_HMMActual","303.6549999960698","","","","Images/WhiteBeadChoiceCorrect.png","39"
"image-keyboard-response","182","383622","0.0-4.0-0.54","3","Low_HMMActual","227.965000027325","","","","Images/NewTrialWC.png","39"
"image-keyboard-response","183","383874","0.0-4.0-1.54","3","Low_HMMActual","null","","","","Images/WhiteBeadChoice.png","null"
"image-keyboard-response","184","384380","0.0-4.0-2.54","3","Low_HMMActual","2.4349999730475247","","","","Images/WhiteBeadChoiceWrong.png","39"
"image-keyboard-response","185","384519","0.0-4.0-0.55","3","Low_HMMActual","137.02500000363216","","","","Images/NewTrialBC.png","39"
"image-keyboard-response","186","384775","0.0-4.0-1.55","3","Low_HMMActual","null","","","","Images/WhiteBeadChoice.png","null"
"image-keyboard-response","187","385279","0.0-4.0-2.55","3","Low_HMMActual","162.81999996863306","","","","Images/WhiteBeadChoiceCorrect.png","39"
"image-keyboard-response","188","385572","0.0-4.0-0.56","3","Low_HMMActual","292.44999994989485","","","","Images/NewTrialWC.png","39"
"image-keyboard-response","189","385829","0.0-4.0-1.56","3","Low_HMMActual","null","","","","Images/WhiteBeadChoice.png","null"
"image-keyboard-response","190","386333","0.0-4.0-2.56","3","Low_HMMActual","43.75000001164153","","","","Images/WhiteBeadChoiceCorrect.png","39"
"image-keyboard-response","191","386488","0.0-4.0-0.57","3","Low_HMMActual","154.44000001298264","","","","Images/NewTrialWC.png","39"
"image-keyboard-response","192","386745","0.0-4.0-1.57","3","Low_HMMActual","null","","","","Images/WhiteBeadChoice.png","null"
"image-keyboard-response","193","387251","0.0-4.0-2.57","3","Low_HMMActual","165.68500001449138","","","","Images/WhiteBeadChoiceCorrect.png","39"
"image-keyboard-response","194","387273","0.0-4.0-0.58","3","Low_HMMActual","20.450000010896474","","","","Images/NewTrialWC.png","39"
"image-keyboard-response","195","387524","0.0-4.0-1.58","3","Low_HMMActual","238.69999998714775","","","","Images/WhiteBeadChoice.png","39"
"image-keyboard-response","196","388025","0.0-4.0-2.58","3","Low_HMMActual","329.2699999874458","","","","Images/WhiteBeadChoiceWrong.png","39"
"image-keyboard-response","197","388234","0.0-4.0-0.59","3","Low_HMMActual","207.96000002883375","","","","Images/NewTrialBC.png","39"
"image-keyboard-response","198","388487","0.0-4.0-1.59","3","Low_HMMActual","null","","","","Images/WhiteBeadChoice.png","null"
"image-keyboard-response","199","388989","0.0-4.0-2.59","3","Low_HMMActual","167.6049999659881","","","","Images/WhiteBeadChoiceWrong.png","39"
"image-keyboard-response","200","389207","0.0-4.0-0.60","3","Low_HMMActual","216.81999997235835","","","","Images/NewTrialBC.png","39"
"image-keyboard-response","201","389463","0.0-4.0-1.60","3","Low_HMMActual","null","","","","Images/WhiteBeadChoice.png","null"
"image-keyboard-response","202","389970","0.0-4.0-2.60","3","Low_HMMActual","54.635000007692724","","","","Images/WhiteBeadChoiceWrong.png","39"
"image-keyboard-response","203","390158","0.0-4.0-0.61","3","Low_HMMActual","187.06999998539686","","","","Images/NewTrialBC.png","39"
"image-keyboard-response","204","390410","0.0-4.0-1.61","3","Low_HMMActual","null","","","","Images/WhiteBeadChoice.png","null"
"image-keyboard-response","205","390916","0.0-4.0-2.61","3","Low_HMMActual","295.25999998440966","","","","Images/WhiteBeadChoiceWrong.png","39"
"image-keyboard-response","206","391511","0.0-4.0-0.62","3","Low_HMMActual","593.6349999974482","","","","Images/NewTrialBC.png","37"
"image-keyboard-response","207","391767","0.0-4.0-1.62","3","Low_HMMActual","null","","","","Images/BlackBeadChoice.png","null"
"image-keyboard-response","208","392271","0.0-4.0-2.62","3","Low_HMMActual","null","","","","Images/BlackBeadChoiceCorrect.png","null"
"image-keyboard-response","209","392645","0.0-4.0-0.63","3","Low_HMMActual","371.47499999264255","","","","Images/NewTrialBC.png","37"
"image-keyboard-response","210","392901","0.0-4.0-1.63","3","Low_HMMActual","null","","","","Images/BlackBeadChoice.png","null"
"image-keyboard-response","211","393403","0.0-4.0-2.63","3","Low_HMMActual","null","","","","Images/BlackBeadChoiceWrong.png","null"
"image-keyboard-response","212","393900","0.0-4.0-0.64","3","Low_HMMActual","496.59500003326684","","","","Images/NewTrialWC.png","37"
"image-keyboard-response","213","394156","0.0-4.0-1.64","3","Low_HMMActual","null","","","","Images/BlackBeadChoice.png","null"
"image-keyboard-response","214","394660","0.0-4.0-2.64","3","Low_HMMActual","null","","","","Images/BlackBeadChoiceCorrect.png","null"
"image-keyboard-response","215","394691","0.0-4.0-0.65","3","Low_HMMActual","29.50500004226342","","","","Images/NewTrialBC.png","37"
"image-keyboard-response","216","394947","0.0-4.0-1.65","3","Low_HMMActual","null","","","","Images/BlackBeadChoice.png","null"
"image-keyboard-response","217","395454","0.0-4.0-2.65","3","Low_HMMActual","382.54500000039116","","","","Images/BlackBeadChoiceCorrect.png","37"
"image-keyboard-response","218","395867","0.0-4.0-0.66","3","Low_HMMActual","411.9000000064261","","","","Images/NewTrialBC.png","37"
"image-keyboard-response","219","396123","0.0-4.0-1.66","3","Low_HMMActual","null","","","","Images/BlackBeadChoice.png","null"
"image-keyboard-response","220","396625","0.0-4.0-2.66","3","Low_HMMActual","null","","","","Images/BlackBeadChoiceWrong.png","null"
"image-keyboard-response","221","396767","0.0-4.0-0.67","3","Low_HMMActual","140.98000002559274","","","","Images/NewTrialWC.png","37"
"image-keyboard-response","222","397019","0.0-4.0-1.67","3","Low_HMMActual","null","","","","Images/BlackBeadChoice.png","null"
"image-keyboard-response","223","397525","0.0-4.0-2.67","3","Low_HMMActual","null","","","","Images/BlackBeadChoiceCorrect.png","null"
"image-keyboard-response","224","397628","0.0-4.0-0.68","3","Low_HMMActual","101.92500002449378","","","","Images/NewTrialBC.png","37"
"image-keyboard-response","225","397881","0.0-4.0-1.68","3","Low_HMMActual","null","","","","Images/BlackBeadChoice.png","null"
"image-keyboard-response","226","398387","0.0-4.0-2.68","3","Low_HMMActual","null","","","","Images/BlackBeadChoiceCorrect.png","null"
"image-keyboard-response","227","398459","0.0-4.0-0.69","3","Low_HMMActual","70.39000000804663","","","","Images/NewTrialBC.png","37"
"image-keyboard-response","228","398710","0.0-4.0-1.69","3","Low_HMMActual","null","","","","Images/BlackBeadChoice.png","null"
"image-keyboard-response","229","399217","0.0-4.0-2.69","3","Low_HMMActual","null","","","","Images/BlackBeadChoiceCorrect.png","null"
"image-keyboard-response","230","399250","0.0-4.0-0.70","3","Low_HMMActual","31.805000035092235","","","","Images/NewTrialBC.png","37"
"image-keyboard-response","231","399506","0.0-4.0-1.70","3","Low_HMMActual","null","","","","Images/BlackBeadChoice.png","null"
"image-keyboard-response","232","400011","0.0-4.0-2.70","3","Low_HMMActual","null","","","","Images/BlackBeadChoiceCorrect.png","null"
"image-keyboard-response","233","400040","0.0-4.0-0.71","3","Low_HMMActual","28.129999991506338","","","","Images/NewTrialBC.png","37"
"image-keyboard-response","234","400295","0.0-4.0-1.71","3","Low_HMMActual","null","","","","Images/BlackBeadChoice.png","null"
"image-keyboard-response","235","400801","0.0-4.0-2.71","3","Low_HMMActual","395.81499999621883","","","","Images/BlackBeadChoiceCorrect.png","37"
"image-keyboard-response","236","401164","0.0-4.0-0.72","3","Low_HMMActual","361.3400000031106","","","","Images/NewTrialBC.png","37"
"image-keyboard-response","237","401420","0.0-4.0-1.72","3","Low_HMMActual","null","","","","Images/BlackBeadChoice.png","null"
"image-keyboard-response","238","401927","0.0-4.0-2.72","3","Low_HMMActual","null","","","","Images/BlackBeadChoiceWrong.png","null"
"image-keyboard-response","239","401985","0.0-4.0-0.73","3","Low_HMMActual","56.90000002505258","","","","Images/NewTrialWC.png","37"
"image-keyboard-response","240","402244","0.0-4.0-1.73","3","Low_HMMActual","null","","","","Images/BlackBeadChoice.png","null"
"image-keyboard-response","241","402748","0.0-4.0-2.73","3","Low_HMMActual","371.4399999589659","","","","Images/BlackBeadChoiceWrong.png","37"
"image-keyboard-response","242","403451","0.0-4.0-0.74","3","Low_HMMActual","700.8049999712966","","","","Images/NewTrialWC.png","39"
"image-keyboard-response","243","403703","0.0-4.0-1.74","3","Low_HMMActual","null","","","","Images/WhiteBeadChoice.png","null"
"image-keyboard-response","244","404209","0.0-4.0-2.74","3","Low_HMMActual","null","","","","Images/WhiteBeadChoiceWrong.png","null"
"image-keyboard-response","245","404257","0.0-4.0-0.75","3","Low_HMMActual","45.96499999752268","","","","Images/NewTrialBC.png","37"
"image-keyboard-response","246","404510","0.0-4.0-1.75","3","Low_HMMActual","null","","","","Images/BlackBeadChoice.png","null"
"image-keyboard-response","247","405017","0.0-4.0-2.75","3","Low_HMMActual","424.1749999928288","","","","Images/BlackBeadChoiceCorrect.png","37"
"image-keyboard-response","248","405547","0.0-4.0-0.76","3","Low_HMMActual","528.7699999753386","","","","Images/NewTrialBC.png","37"
"image-keyboard-response","249","405803","0.0-4.0-1.76","3","Low_HMMActual","null","","","","Images/BlackBeadChoice.png","null"
"image-keyboard-response","250","406309","0.0-4.0-2.76","3","Low_HMMActual","335.495000006631","","","","Images/BlackBeadChoiceCorrect.png","37"
"image-keyboard-response","251","406667","0.0-4.0-0.77","3","Low_HMMActual","357.1250000386499","","","","Images/NewTrialBC.png","37"
"image-keyboard-response","252","406924","0.0-4.0-1.77","3","Low_HMMActual","null","","","","Images/BlackBeadChoice.png","null"
"image-keyboard-response","253","407429","0.0-4.0-2.77","3","Low_HMMActual","null","","","","Images/BlackBeadChoiceCorrect.png","null"
"image-keyboard-response","254","407436","0.0-4.0-0.78","3","Low_HMMActual","4.8599999863654375","","","","Images/NewTrialBC.png","37"
"image-keyboard-response","255","407691","0.0-4.0-1.78","3","Low_HMMActual","null","","","","Images/BlackBeadChoice.png","null"
"image-keyboard-response","256","408197","0.0-4.0-2.78","3","Low_HMMActual","422.82000003615394","","","","Images/BlackBeadChoiceCorrect.png","37"
"image-keyboard-response","257","408812","0.0-4.0-0.79","3","Low_HMMActual","613.550000009127","","","","Images/NewTrialBC.png","37"
"image-keyboard-response","258","409065","0.0-4.0-1.79","3","Low_HMMActual","null","","","","Images/BlackBeadChoice.png","null"
"image-keyboard-response","259","409570","0.0-4.0-2.79","3","Low_HMMActual","481.7649999749847","","","","Images/BlackBeadChoiceCorrect.png","37"
"image-keyboard-response","260","410153","0.0-4.0-0.80","3","Low_HMMActual","582.5000000186265","","","","Images/NewTrialBC.png","37"
"image-keyboard-response","261","410410","0.0-4.0-1.80","3","Low_HMMActual","null","","","","Images/BlackBeadChoice.png","null"
"image-keyboard-response","262","410916","0.0-4.0-2.80","3","Low_HMMActual","477.55499999038875","","","","Images/BlackBeadChoiceCorrect.png","37"
"image-keyboard-response","263","411722","0.0-4.0-0.81","3","Low_HMMActual","805.0500000244938","","","","Images/NewTrialBC.png","37"
"image-keyboard-response","264","411979","0.0-4.0-1.81","3","Low_HMMActual","null","","","","Images/BlackBeadChoice.png","null"
"image-keyboard-response","265","412485","0.0-4.0-2.81","3","Low_HMMActual","334.6000000019558","","","","Images/BlackBeadChoiceCorrect.png","37"
"image-keyboard-response","266","412620","0.0-4.0-0.82","3","Low_HMMActual","133.7249999633059","","","","Images/NewTrialBC.png","37"
"image-keyboard-response","267","412874","0.0-4.0-1.82","3","Low_HMMActual","null","","","","Images/BlackBeadChoice.png","null"
"image-keyboard-response","268","413377","0.0-4.0-2.82","3","Low_HMMActual","33.93000003416091","","","","Images/BlackBeadChoiceCorrect.png","37"
"image-keyboard-response","269","413460","0.0-4.0-0.83","3","Low_HMMActual","82.27999997325242","","","","Images/NewTrialBC.png","37"
"image-keyboard-response","270","413712","0.0-4.0-1.83","3","Low_HMMActual","null","","","","Images/BlackBeadChoice.png","null"
"image-keyboard-response","271","414216","0.0-4.0-2.83","3","Low_HMMActual","151.0450000059791","","","","Images/BlackBeadChoiceCorrect.png","37"
"image-keyboard-response","272","414532","0.0-4.0-0.84","3","Low_HMMActual","314.2149999621324","","","","Images/NewTrialBC.png","37"
"image-keyboard-response","273","414788","0.0-4.0-1.84","3","Low_HMMActual","null","","","","Images/BlackBeadChoice.png","null"
"image-keyboard-response","274","415295","0.0-4.0-2.84","3","Low_HMMActual","168.6649999464862","","","","Images/BlackBeadChoiceWrong.png","37"
"image-keyboard-response","275","416190","0.0-4.0-0.85","3","Low_HMMActual","894.1950000007637","","","","Images/NewTrialWC.png","37"
"image-keyboard-response","276","416446","0.0-4.0-1.85","3","Low_HMMActual","null","","","","Images/BlackBeadChoice.png","null"
"image-keyboard-response","277","416953","0.0-4.0-2.85","3","Low_HMMActual","null","","","","Images/BlackBeadChoiceCorrect.png","null"
"image-keyboard-response","278","416981","0.0-4.0-0.86","3","Low_HMMActual","26.600000041071326","","","","Images/NewTrialBC.png","37"
"image-keyboard-response","279","417237","0.0-4.0-1.86","3","Low_HMMActual","null","","","","Images/BlackBeadChoice.png","null"
"image-keyboard-response","280","417740","0.0-4.0-2.86","3","Low_HMMActual","null","","","","Images/BlackBeadChoiceWrong.png","null"
"image-keyboard-response","281","417985","0.0-4.0-0.87","3","Low_HMMActual","243.64499998046085","","","","Images/NewTrialWC.png","39"
"image-keyboard-response","282","418237","0.0-4.0-1.87","3","Low_HMMActual","null","","","","Images/WhiteBeadChoice.png","null"
"image-keyboard-response","283","418744","0.0-4.0-2.87","3","Low_HMMActual","null","","","","Images/WhiteBeadChoiceCorrect.png","null"
"image-keyboard-response","284","419158","0.0-4.0-0.88","3","Low_HMMActual","412.3099999851547","","","","Images/NewTrialWC.png","39"
"image-keyboard-response","285","419410","0.0-4.0-1.88","3","Low_HMMActual","null","","","","Images/WhiteBeadChoice.png","null"
"image-keyboard-response","286","419913","0.0-4.0-2.88","3","Low_HMMActual","440.5150000238791","","","","Images/WhiteBeadChoiceCorrect.png","39"
"image-keyboard-response","287","420498","0.0-4.0-0.89","3","Low_HMMActual","583.7199999950826","","","","Images/NewTrialWC.png","39"
"image-keyboard-response","288","420754","0.0-4.0-1.89","3","Low_HMMActual","null","","","","Images/WhiteBeadChoice.png","null"
"image-keyboard-response","289","421261","0.0-4.0-2.89","3","Low_HMMActual","329.51500004855916","","","","Images/WhiteBeadChoiceCorrect.png","39"
"image-keyboard-response","290","421529","0.0-4.0-0.90","3","Low_HMMActual","266.8299999786541","","","","Images/NewTrialWC.png","39"
"image-keyboard-response","291","421785","0.0-4.0-1.90","3","Low_HMMActual","null","","","","Images/WhiteBeadChoice.png","null"
"image-keyboard-response","292","422287","0.0-4.0-2.90","3","Low_HMMActual","384.59999999031425","","","","Images/WhiteBeadChoiceCorrect.png","39"
"image-keyboard-response","293","423127","0.0-4.0-0.91","3","Low_HMMActual","839.0550000476651","","","","Images/NewTrialWC.png","39"
"image-keyboard-response","294","423382","0.0-4.0-1.91","3","Low_HMMActual","null","","","","Images/WhiteBeadChoice.png","null"
"image-keyboard-response","295","423885","0.0-4.0-2.91","3","Low_HMMActual","255.47000003280118","","","","Images/WhiteBeadChoiceCorrect.png","39"
"image-keyboard-response","296","423993","0.0-4.0-0.92","3","Low_HMMActual","106.99000000022352","","","","Images/NewTrialWC.png","39"
"image-keyboard-response","297","424245","0.0-4.0-1.92","3","Low_HMMActual","null","","","","Images/WhiteBeadChoice.png","null"
"image-keyboard-response","298","424746","0.0-4.0-2.92","3","Low_HMMActual","256.5150000154972","","","","Images/WhiteBeadChoiceCorrect.png","39"
"image-keyboard-response","299","425138","0.0-4.0-0.93","3","Low_HMMActual","389.580000017304","","","","Images/NewTrialWC.png","39"
"image-keyboard-response","300","425392","0.0-4.0-1.93","3","Low_HMMActual","null","","","","Images/WhiteBeadChoice.png","null"
"image-keyboard-response","301","425898","0.0-4.0-2.93","3","Low_HMMActual","null","","","","Images/WhiteBeadChoiceWrong.png","null"
"image-keyboard-response","302","426423","0.0-4.0-0.94","3","Low_HMMActual","524.2999999900348","","","","Images/NewTrialBC.png","37"
"image-keyboard-response","303","426674","0.0-4.0-1.94","3","Low_HMMActual","null","","","","Images/BlackBeadChoice.png","null"
"image-keyboard-response","304","427175","0.0-4.0-2.94","3","Low_HMMActual","null","","","","Images/BlackBeadChoiceCorrect.png","null"
"image-keyboard-response","305","427315","0.0-4.0-0.95","3","Low_HMMActual","138.47999996505678","","","","Images/NewTrialBC.png","37"
"image-keyboard-response","306","427571","0.0-4.0-1.95","3","Low_HMMActual","null","","","","Images/BlackBeadChoice.png","null"
"image-keyboard-response","307","428077","0.0-4.0-2.95","3","Low_HMMActual","null","","","","Images/BlackBeadChoiceWrong.png","null"
"image-keyboard-response","308","428170","0.0-4.0-0.96","3","Low_HMMActual","91.13499999511987","","","","Images/NewTrialWC.png","39"
"image-keyboard-response","309","428428","0.0-4.0-1.96","3","Low_HMMActual","null","","","","Images/WhiteBeadChoice.png","null"
"image-keyboard-response","310","428934","0.0-4.0-2.96","3","Low_HMMActual","null","","","","Images/WhiteBeadChoiceCorrect.png","null"
"image-keyboard-response","311","429007","0.0-4.0-0.97","3","Low_HMMActual","71.06499996734783","","","","Images/NewTrialWC.png","39"
"image-keyboard-response","312","429262","0.0-4.0-1.97","3","Low_HMMActual","null","","","","Images/WhiteBeadChoice.png","null"
"image-keyboard-response","313","429766","0.0-4.0-2.97","3","Low_HMMActual","440.340000030119","","","","Images/WhiteBeadChoiceCorrect.png","39"
"image-keyboard-response","314","430329","0.0-4.0-0.98","3","Low_HMMActual","560.5550000327639","","","","Images/NewTrialWC.png","39"
"image-keyboard-response","315","430585","0.0-4.0-1.98","3","Low_HMMActual","null","","","","Images/WhiteBeadChoice.png","null"
"image-keyboard-response","316","431089","0.0-4.0-2.98","3","Low_HMMActual","359.3100000289269","","","","Images/WhiteBeadChoiceCorrect.png","39"
"image-keyboard-response","317","431331","0.0-4.0-0.99","3","Low_HMMActual","240.2449999935925","","","","Images/NewTrialWC.png","39"
"image-keyboard-response","318","431587","0.0-4.0-1.99","3","Low_HMMActual","null","","","","Images/WhiteBeadChoice.png","null"
"image-keyboard-response","319","432094","0.0-4.0-2.99","3","Low_HMMActual","173.1349999899976","","","","Images/WhiteBeadChoiceCorrect.png","39"
"image-keyboard-response","320","432128","0.0-4.0-0.100","3","Low_HMMActual","32.69500000169501","","","","Images/NewTrialWC.png","39"
"image-keyboard-response","321","432384","0.0-4.0-1.100","3","Low_HMMActual","null","","","","Images/WhiteBeadChoice.png","null"
"image-keyboard-response","322","432891","0.0-4.0-2.100","3","Low_HMMActual","null","","","","Images/WhiteBeadChoiceWrong.png","null"
"image-keyboard-response","323","433332","0.0-4.0-0.101","3","Low_HMMActual","439.8049999726936","","","","Images/NewTrialBC.png","37"
"image-keyboard-response","324","433589","0.0-4.0-1.101","3","Low_HMMActual","null","","","","Images/BlackBeadChoice.png","null"
"image-keyboard-response","325","434095","0.0-4.0-2.101","3","Low_HMMActual","null","","","","Images/BlackBeadChoiceWrong.png","null"
"image-keyboard-response","326","434104","0.0-4.0-0.102","3","Low_HMMActual","7.264999963808805","","","","Images/NewTrialWC.png","39"
"image-keyboard-response","327","434360","0.0-4.0-1.102","3","Low_HMMActual","null","","","","Images/WhiteBeadChoice.png","null"
"image-keyboard-response","328","434861","0.0-4.0-2.102","3","Low_HMMActual","358.42000000411645","","","","Images/WhiteBeadChoiceCorrect.png","39"
"image-keyboard-response","329","435307","0.0-4.0-0.103","3","Low_HMMActual","445.02500002272427","","","","Images/NewTrialWC.png","39"
"image-keyboard-response","330","435560","0.0-4.0-1.103","3","Low_HMMActual","null","","","","Images/WhiteBeadChoice.png","null"
"image-keyboard-response","331","436064","0.0-4.0-2.103","3","Low_HMMActual","259.2300000251271","","","","Images/WhiteBeadChoiceCorrect.png","39"
"image-keyboard-response","332","436311","0.0-4.0-0.104","3","Low_HMMActual","246.0350000183098","","","","Images/NewTrialWC.png","39"
"image-keyboard-response","333","436568","0.0-4.0-1.104","3","Low_HMMActual","null","","","","Images/WhiteBeadChoice.png","null"
"image-keyboard-response","334","437074","0.0-4.0-2.104","3","Low_HMMActual","280.5900000385009","","","","Images/WhiteBeadChoiceWrong.png","39"
"image-keyboard-response","335","437343","0.0-4.0-0.105","3","Low_HMMActual","268.0549999931827","","","","Images/NewTrialBC.png","39"
"image-keyboard-response","336","437595","0.0-4.0-1.105","3","Low_HMMActual","null","","","","Images/WhiteBeadChoice.png","null"
"image-keyboard-response","337","438102","0.0-4.0-2.105","3","Low_HMMActual","351.0299999616109","","","","Images/WhiteBeadChoiceCorrect.png","39"
"image-keyboard-response","338","438444","0.0-4.0-0.106","3","Low_HMMActual","341.33500000461936","","","","Images/NewTrialWC.png","39"
"image-keyboard-response","339","438697","0.0-4.0-1.106","3","Low_HMMActual","null","","","","Images/WhiteBeadChoice.png","null"
"image-keyboard-response","340","439204","0.0-4.0-2.106","3","Low_HMMActual","null","","","","Images/WhiteBeadChoiceWrong.png","null"
"image-keyboard-response","341","439507","0.0-4.0-0.107","3","Low_HMMActual","302.0750000141561","","","","Images/NewTrialBC.png","39"
"image-keyboard-response","342","439762","0.0-4.0-1.107","3","Low_HMMActual","null","","","","Images/WhiteBeadChoice.png","null"
"image-keyboard-response","343","440268","0.0-4.0-2.107","3","Low_HMMActual","262.30000000214204","","","","Images/WhiteBeadChoiceCorrect.png","39"
"image-keyboard-response","344","440556","0.0-4.0-0.108","3","Low_HMMActual","286.7700000060722","","","","Images/NewTrialWC.png","39"
"image-keyboard-response","345","440808","0.0-4.0-1.108","3","Low_HMMActual","null","","","","Images/WhiteBeadChoice.png","null"
"image-keyboard-response","346","441312","0.0-4.0-2.108","3","Low_HMMActual","null","","","","Images/WhiteBeadChoiceWrong.png","null"
"image-keyboard-response","347","441840","0.0-4.0-0.109","3","Low_HMMActual","526.914999994915","","","","Images/NewTrialBC.png","39"
"image-keyboard-response","348","442096","0.0-4.0-1.109","3","Low_HMMActual","null","","","","Images/WhiteBeadChoice.png","null"
"image-keyboard-response","349","442603","0.0-4.0-2.109","3","Low_HMMActual","400.61000001151115","","","","Images/WhiteBeadChoiceCorrect.png","39"
"image-keyboard-response","350","443670","0.0-4.0-0.110","3","Low_HMMActual","1065.4750000103377","","","","Images/NewTrialWC.png","39"
"image-keyboard-response","351","443927","0.0-4.0-1.110","3","Low_HMMActual","null","","","","Images/WhiteBeadChoice.png","null"
"image-keyboard-response","352","444434","0.0-4.0-2.110","3","Low_HMMActual","null","","","","Images/WhiteBeadChoiceCorrect.png","null"
"image-keyboard-response","353","444470","0.0-4.0-0.111","3","Low_HMMActual","34.95000000111759","","","","Images/NewTrialWC.png","39"
"image-keyboard-response","354","444724","0.0-4.0-1.111","3","Low_HMMActual","null","","","","Images/WhiteBeadChoice.png","null"
"image-keyboard-response","355","445229","0.0-4.0-2.111","3","Low_HMMActual","null","","","","Images/WhiteBeadChoiceCorrect.png","null"
"image-keyboard-response","356","445283","0.0-4.0-0.112","3","Low_HMMActual","52.795000025071204","","","","Images/NewTrialWC.png","39"
"image-keyboard-response","357","445539","0.0-4.0-1.112","3","Low_HMMActual","null","","","","Images/WhiteBeadChoice.png","null"
"image-keyboard-response","358","446046","0.0-4.0-2.112","3","Low_HMMActual","null","","","","Images/WhiteBeadChoiceCorrect.png","null"
"image-keyboard-response","359","446104","0.0-4.0-0.113","3","Low_HMMActual","57.16000002576038","","","","Images/NewTrialWC.png","39"
"image-keyboard-response","360","446358","0.0-4.0-1.113","3","Low_HMMActual","null","","","","Images/WhiteBeadChoice.png","null"
"image-keyboard-response","361","446862","0.0-4.0-2.113","3","Low_HMMActual","423.08000003686175","","","","Images/WhiteBeadChoiceCorrect.png","39"
"image-keyboard-response","362","447341","0.0-4.0-0.114","3","Low_HMMActual","477.3299999651499","","","","Images/NewTrialWC.png","39"
"image-keyboard-response","363","447597","0.0-4.0-1.114","3","Low_HMMActual","null","","","","Images/WhiteBeadChoice.png","null"
"image-keyboard-response","364","448099","0.0-4.0-2.114","3","Low_HMMActual","302.51000000862405","","","","Images/WhiteBeadChoiceCorrect.png","39"
"image-keyboard-response","365","448343","0.0-4.0-0.115","3","Low_HMMActual","242.5550000043586","","","","Images/NewTrialWC.png","39"
"image-keyboard-response","366","448599","0.0-4.0-1.115","3","Low_HMMActual","null","","","","Images/WhiteBeadChoice.png","null"
"image-keyboard-response","367","449106","0.0-4.0-2.115","3","Low_HMMActual","218.58000004431233","","","","Images/WhiteBeadChoiceCorrect.png","39"
"image-keyboard-response","368","449253","0.0-4.0-0.116","3","Low_HMMActual","145.98500001011416","","","","Images/NewTrialWC.png","39"
"image-keyboard-response","369","449509","0.0-4.0-1.116","3","Low_HMMActual","null","","","","Images/WhiteBeadChoice.png","null"
"image-keyboard-response","370","450014","0.0-4.0-2.116","3","Low_HMMActual","189.84999996609986","","","","Images/WhiteBeadChoiceCorrect.png","39"
"image-keyboard-response","371","450100","0.0-4.0-0.117","3","Low_HMMActual","85.54000000003725","","","","Images/NewTrialWC.png","39"
"image-keyboard-response","372","450357","0.0-4.0-1.117","3","Low_HMMActual","null","","","","Images/WhiteBeadChoice.png","null"
"image-keyboard-response","373","450863","0.0-4.0-2.117","3","Low_HMMActual","167.23999998066574","","","","Images/WhiteBeadChoiceWrong.png","39"
"image-keyboard-response","374","451504","0.0-4.0-0.118","3","Low_HMMActual","639.5499999634922","","","","Images/NewTrialBC.png","39"
"image-keyboard-response","375","451757","0.0-4.0-1.118","3","Low_HMMActual","null","","","","Images/WhiteBeadChoice.png","null"
"image-keyboard-response","376","452260","0.0-4.0-2.118","3","Low_HMMActual","476.48000001208857","","","","Images/WhiteBeadChoiceWrong.png","37"
"image-keyboard-response","377","452767","0.0-4.0-0.119","3","Low_HMMActual","505.82000002032146","","","","Images/NewTrialBC.png","37"
"image-keyboard-response","378","453023","0.0-4.0-1.119","3","Low_HMMActual","null","","","","Images/BlackBeadChoice.png","null"
"image-keyboard-response","379","453527","0.0-4.0-2.119","3","Low_HMMActual","301.500000001397","","","","Images/BlackBeadChoiceCorrect.png","37"
"image-keyboard-response","380","453780","0.0-4.0-0.120","3","Low_HMMActual","251.21499999659136","","","","Images/NewTrialBC.png","37"
"image-keyboard-response","381","454033","0.0-4.0-1.120","3","Low_HMMActual","null","","","","Images/BlackBeadChoice.png","null"
"image-keyboard-response","382","454536","0.0-4.0-2.120","3","Low_HMMActual","323.1650000088848","","","","Images/BlackBeadChoiceCorrect.png","37"
"image-keyboard-response","383","454859","0.0-4.0-0.121","3","Low_HMMActual","321.83500000974163","","","","Images/NewTrialBC.png","37"
"image-keyboard-response","384","455112","0.0-4.0-1.121","3","Low_HMMActual","null","","","","Images/BlackBeadChoice.png","null"
"image-keyboard-response","385","455619","0.0-4.0-2.121","3","Low_HMMActual","264.06499999575317","","","","Images/BlackBeadChoiceCorrect.png","37"
"image-keyboard-response","386","455925","0.0-4.0-0.122","3","Low_HMMActual","304.4099999824539","","","","Images/NewTrialBC.png","37"
"image-keyboard-response","387","456181","0.0-4.0-1.122","3","Low_HMMActual","null","","","","Images/BlackBeadChoice.png","null"
"image-keyboard-response","388","456682","0.0-4.0-2.122","3","Low_HMMActual","377.7000000118278","","","","Images/BlackBeadChoiceCorrect.png","37"
"image-keyboard-response","389","458490","0.0-4.0-0.123","3","Low_HMMActual","1806.0300000361167","","","","Images/NewTrialBC.png","37"
"image-keyboard-response","390","458742","0.0-4.0-1.123","3","Low_HMMActual","null","","","","Images/BlackBeadChoice.png","null"
"image-keyboard-response","391","459248","0.0-4.0-2.123","3","Low_HMMActual","363.855000003241","","","","Images/BlackBeadChoiceCorrect.png","37"
"image-keyboard-response","392","459511","0.0-4.0-0.124","3","Low_HMMActual","261.91499998094514","","","","Images/NewTrialBC.png","37"
"image-keyboard-response","393","459767","0.0-4.0-1.124","3","Low_HMMActual","null","","","","Images/BlackBeadChoice.png","null"
"image-keyboard-response","394","460273","0.0-4.0-2.124","3","Low_HMMActual","null","","","","Images/BlackBeadChoiceCorrect.png","null"
"image-keyboard-response","395","460544","0.0-4.0-0.125","3","Low_HMMActual","269.0749999601394","","","","Images/NewTrialBC.png","37"
"image-keyboard-response","396","460800","0.0-4.0-1.125","3","Low_HMMActual","null","","","","Images/BlackBeadChoice.png","null"
"image-keyboard-response","397","461306","0.0-4.0-2.125","3","Low_HMMActual","null","","","","Images/BlackBeadChoiceWrong.png","null"
"image-keyboard-response","398","461635","0.0-4.0-0.126","3","Low_HMMActual","327.56499998504296","","","","Images/NewTrialWC.png","39"
"image-keyboard-response","399","461890","0.0-4.0-1.126","3","Low_HMMActual","null","","","","Images/WhiteBeadChoice.png","null"
"image-keyboard-response","400","462394","0.0-4.0-2.126","3","Low_HMMActual","null","","","","Images/WhiteBeadChoiceCorrect.png","null"
"image-keyboard-response","401","462706","0.0-4.0-0.127","3","Low_HMMActual","311.21499999426305","","","","Images/NewTrialWC.png","39"
"image-keyboard-response","402","462963","0.0-4.0-1.127","3","Low_HMMActual","null","","","","Images/WhiteBeadChoice.png","null"
"image-keyboard-response","403","463469","0.0-4.0-2.127","3","Low_HMMActual","null","","","","Images/WhiteBeadChoiceCorrect.png","null"
"image-keyboard-response","404","463648","0.0-4.0-0.128","3","Low_HMMActual","178.17500000819564","","","","Images/NewTrialWC.png","39"
"image-keyboard-response","405","463905","0.0-4.0-1.128","3","Low_HMMActual","null","","","","Images/WhiteBeadChoice.png","null"
"image-keyboard-response","406","464410","0.0-4.0-2.128","3","Low_HMMActual","null","","","","Images/WhiteBeadChoiceWrong.png","null"
"image-keyboard-response","407","464986","0.0-4.0-0.129","3","Low_HMMActual","574.7100000153296","","","","Images/NewTrialBC.png","37"
"image-keyboard-response","408","465243","0.0-4.0-1.129","3","Low_HMMActual","null","","","","Images/BlackBeadChoice.png","null"
"image-keyboard-response","409","465749","0.0-4.0-2.129","3","Low_HMMActual","null","","","","Images/BlackBeadChoiceWrong.png","null"
"image-keyboard-response","410","466064","0.0-4.0-0.130","3","Low_HMMActual","313.91999998595566","","","","Images/NewTrialWC.png","39"
"image-keyboard-response","411","466320","0.0-4.0-1.130","3","Low_HMMActual","null","","","","Images/WhiteBeadChoice.png","null"
"image-keyboard-response","412","466824","0.0-4.0-2.130","3","Low_HMMActual","333.68999999947846","","","","Images/WhiteBeadChoiceCorrect.png","39"
"image-keyboard-response","413","467068","0.0-4.0-0.131","3","Low_HMMActual","242.96499998308718","","","","Images/NewTrialWC.png","39"
"image-keyboard-response","414","467324","0.0-4.0-1.131","3","Low_HMMActual","null","","","","Images/WhiteBeadChoice.png","null"
"image-keyboard-response","415","467827","0.0-4.0-2.131","3","Low_HMMActual","441.01000000955537","","","","Images/WhiteBeadChoiceCorrect.png","39"
"image-keyboard-response","416","468349","0.0-4.0-0.132","3","Low_HMMActual","520.6900000339374","","","","Images/NewTrialWC.png","39"
"image-keyboard-response","417","468605","0.0-4.0-1.132","3","Low_HMMActual","null","","","","Images/WhiteBeadChoice.png","null"
"image-keyboard-response","418","469111","0.0-4.0-2.132","3","Low_HMMActual","null","","","","Images/WhiteBeadChoiceWrong.png","null"
"image-keyboard-response","419","469151","0.0-4.0-0.133","3","Low_HMMActual","38.475000008475035","","","","Images/NewTrialBC.png","39"
"image-keyboard-response","420","469405","0.0-4.0-1.133","3","Low_HMMActual","null","","","","Images/WhiteBeadChoice.png","null"
"image-keyboard-response","421","469911","0.0-4.0-2.133","3","Low_HMMActual","410.1549999904819","","","","Images/WhiteBeadChoiceCorrect.png","39"
"image-keyboard-response","422","470440","0.0-4.0-0.134","3","Low_HMMActual","527.5299999630079","","","","Images/NewTrialWC.png","39"
"image-keyboard-response","423","470696","0.0-4.0-1.134","3","Low_HMMActual","null","","","","Images/WhiteBeadChoice.png","null"
"image-keyboard-response","424","471198","0.0-4.0-2.134","3","Low_HMMActual","383.0049999523908","","","","Images/WhiteBeadChoiceWrong.png","39"
"image-keyboard-response","425","471737","0.0-4.0-0.135","3","Low_HMMActual","537.4599999631755","","","","Images/NewTrialBC.png","39"
"image-keyboard-response","426","471993","0.0-4.0-1.135","3","Low_HMMActual","null","","","","Images/WhiteBeadChoice.png","null"
"image-keyboard-response","427","472499","0.0-4.0-2.135","3","Low_HMMActual","432.37500003306195","","","","Images/WhiteBeadChoiceCorrect.png","39"
"image-keyboard-response","428","473499","0.0-4.0-0.136","3","Low_HMMActual","998.9449999993667","","","","Images/NewTrialWC.png","39"
"image-keyboard-response","429","473755","0.0-4.0-1.136","3","Low_HMMActual","null","","","","Images/WhiteBeadChoice.png","null"
"image-keyboard-response","430","474260","0.0-4.0-2.136","3","Low_HMMActual","443.3549999957904","","","","Images/WhiteBeadChoiceCorrect.png","39"
"image-keyboard-response","431","474480","0.0-4.0-0.137","3","Low_HMMActual","218.76000001793727","","","","Images/NewTrialWC.png","39"
"image-keyboard-response","432","474736","0.0-4.0-1.137","3","Low_HMMActual","null","","","","Images/WhiteBeadChoice.png","null"
"image-keyboard-response","433","475243","0.0-4.0-2.137","3","Low_HMMActual","10.254999971948564","","","","Images/WhiteBeadChoiceCorrect.png","39"
"image-keyboard-response","434","475321","0.0-4.0-0.138","3","Low_HMMActual","76.8650000100024","","","","Images/NewTrialWC.png","39"
"image-keyboard-response","435","475577","0.0-4.0-1.138","3","Low_HMMActual","null","","","","Images/WhiteBeadChoice.png","null"
"image-keyboard-response","436","476081","0.0-4.0-2.138","3","Low_HMMActual","4.8099999548867345","","","","Images/WhiteBeadChoiceCorrect.png","39"
"image-keyboard-response","437","476221","0.0-4.0-0.139","3","Low_HMMActual","138.840000028722","","","","Images/NewTrialWC.png","39"
"image-keyboard-response","438","476477","0.0-4.0-1.139","3","Low_HMMActual","null","","","","Images/WhiteBeadChoice.png","null"
"image-keyboard-response","439","476984","0.0-4.0-2.139","3","Low_HMMActual","64.55499998992309","","","","Images/WhiteBeadChoiceWrong.png","39"
"image-keyboard-response","440","477803","0.0-4.0-0.140","3","Low_HMMActual","817.7649999852292","","","","Images/NewTrialBC.png","39"
"image-keyboard-response","441","478059","0.0-4.0-1.140","3","Low_HMMActual","null","","","","Images/WhiteBeadChoice.png","null"
"image-keyboard-response","442","478561","0.0-4.0-2.140","3","Low_HMMActual","476.31499997805804","","","","Images/WhiteBeadChoiceWrong.png","37"
"image-keyboard-response","443","479043","0.0-4.0-0.141","3","Low_HMMActual","480.18499999307096","","","","Images/NewTrialBC.png","37"
"image-keyboard-response","444","479297","0.0-4.0-1.141","3","Low_HMMActual","null","","","","Images/BlackBeadChoice.png","null"
"image-keyboard-response","445","479799","0.0-4.0-2.141","3","Low_HMMActual","365.06999999983236","","","","Images/BlackBeadChoiceCorrect.png","37"
"image-keyboard-response","446","480150","0.0-4.0-0.142","3","Low_HMMActual","348.9500000141561","","","","Images/NewTrialBC.png","37"
"image-keyboard-response","447","480401","0.0-4.0-1.142","3","Low_HMMActual","null","","","","Images/BlackBeadChoice.png","null"
"image-keyboard-response","448","480905","0.0-4.0-2.142","3","Low_HMMActual","285.1599999703467","","","","Images/BlackBeadChoiceCorrect.png","37"
"image-keyboard-response","449","481221","0.0-4.0-0.143","3","Low_HMMActual","314.17500000679865","","","","Images/NewTrialBC.png","37"
"image-keyboard-response","450","481477","0.0-4.0-1.143","3","Low_HMMActual","null","","","","Images/BlackBeadChoice.png","null"
"image-keyboard-response","451","481984","0.0-4.0-2.143","3","Low_HMMActual","255.23000000976026","","","","Images/BlackBeadChoiceCorrect.png","37"
"image-keyboard-response","452","482037","0.0-4.0-0.144","3","Low_HMMActual","51.76000000210479","","","","Images/NewTrialBC.png","37"
"image-keyboard-response","453","482293","0.0-4.0-1.144","3","Low_HMMActual","null","","","","Images/BlackBeadChoice.png","null"
"image-keyboard-response","454","482799","0.0-4.0-2.144","3","Low_HMMActual","365.4649999807589","","","","Images/BlackBeadChoiceCorrect.png","37"
"image-keyboard-response","455","483036","0.0-4.0-0.145","3","Low_HMMActual","234.84500002814457","","","","Images/NewTrialBC.png","37"
"image-keyboard-response","456","483292","0.0-4.0-1.145","3","Low_HMMActual","null","","","","Images/BlackBeadChoice.png","null"
"image-keyboard-response","457","483793","0.0-4.0-2.145","3","Low_HMMActual","304.535000002943","","","","Images/BlackBeadChoiceCorrect.png","37"
"image-keyboard-response","458","484185","0.0-4.0-0.146","3","Low_HMMActual","391.1000000080094","","","","Images/NewTrialBC.png","37"
"image-keyboard-response","459","484439","0.0-4.0-1.146","3","Low_HMMActual","null","","","","Images/BlackBeadChoice.png","null"
"image-keyboard-response","460","484942","0.0-4.0-2.146","3","Low_HMMActual","426.52999999700114","","","","Images/BlackBeadChoiceCorrect.png","37"
"image-keyboard-response","461","485489","0.0-4.0-0.147","3","Low_HMMActual","545.9850000333972","","","","Images/NewTrialBC.png","37"
"image-keyboard-response","462","485746","0.0-4.0-1.147","3","Low_HMMActual","null","","","","Images/BlackBeadChoice.png","null"
"image-keyboard-response","463","486251","0.0-4.0-2.147","3","Low_HMMActual","null","","","","Images/BlackBeadChoiceWrong.png","null"
"image-keyboard-response","464","486624","0.0-4.0-0.148","3","Low_HMMActual","372.1699999878183","","","","Images/NewTrialWC.png","37"
"image-keyboard-response","465","486875","0.0-4.0-1.148","3","Low_HMMActual","null","","","","Images/BlackBeadChoice.png","null"
"image-keyboard-response","466","487377","0.0-4.0-2.148","3","Low_HMMActual","330.2350000012666","","","","Images/BlackBeadChoiceCorrect.png","37"
"image-keyboard-response","467","487626","0.0-4.0-0.149","3","Low_HMMActual","248.13000002177432","","","","Images/NewTrialBC.png","37"
"image-keyboard-response","468","487883","0.0-4.0-1.149","3","Low_HMMActual","null","","","","Images/BlackBeadChoice.png","null"
"image-keyboard-response","469","488389","0.0-4.0-2.149","3","Low_HMMActual","264.6599999861792","","","","Images/BlackBeadChoiceCorrect.png","37"
"image-keyboard-response","470","488540","0.0-4.0-0.150","3","Low_HMMActual","150.1000000280328","","","","Images/NewTrialBC.png","37"
"image-keyboard-response","471","488793","0.0-4.0-1.150","3","Low_HMMActual","null","","","","Images/BlackBeadChoice.png","null"
"image-keyboard-response","472","489298","0.0-4.0-2.150","3","Low_HMMActual","275.16499999910593","","","","Images/BlackBeadChoiceWrong.png","37"
"image-keyboard-response","473","489418","0.0-4.0-0.151","3","Low_HMMActual","118.71499998960644","","","","Images/NewTrialWC.png","37"
"image-keyboard-response","474","489671","0.0-4.0-1.151","3","Low_HMMActual","null","","","","Images/BlackBeadChoice.png","null"
"image-keyboard-response","475","490176","0.0-4.0-2.151","3","Low_HMMActual","null","","","","Images/BlackBeadChoiceWrong.png","null"
"image-keyboard-response","476","490380","0.0-4.0-0.152","3","Low_HMMActual","203.28499999595806","","","","Images/NewTrialWC.png","39"
"image-keyboard-response","477","490636","0.0-4.0-1.152","3","Low_HMMActual","null","","","","Images/WhiteBeadChoice.png","null"
"image-keyboard-response","478","491143","0.0-4.0-2.152","3","Low_HMMActual","null","","","","Images/WhiteBeadChoiceWrong.png","null"
"image-keyboard-response","479","492176","0.0-4.0-0.153","3","Low_HMMActual","1031.4050000160933","","","","Images/NewTrialBC.png","39"
"image-keyboard-response","480","492427","0.0-4.0-1.153","3","Low_HMMActual","null","","","","Images/WhiteBeadChoice.png","null"
"image-keyboard-response","481","492932","0.0-4.0-2.153","3","Low_HMMActual","null","","","","Images/WhiteBeadChoiceWrong.png","null"
"image-keyboard-response","482","492985","0.0-4.0-0.154","3","Low_HMMActual","52.165000000968575","","","","Images/NewTrialBC.png","39"
"image-keyboard-response","483","493239","0.0-4.0-1.154","3","Low_HMMActual","null","","","","Images/WhiteBeadChoice.png","null"
"image-keyboard-response","484","493741","0.0-4.0-2.154","3","Low_HMMActual","369.7350000147708","","","","Images/WhiteBeadChoiceWrong.png","37"
"image-keyboard-response","485","494026","0.0-4.0-0.155","3","Low_HMMActual","283.73999998439103","","","","Images/NewTrialBC.png","37"
"image-keyboard-response","486","494282","0.0-4.0-1.155","3","Low_HMMActual","null","","","","Images/BlackBeadChoice.png","null"
"image-keyboard-response","487","494789","0.0-4.0-2.155","3","Low_HMMActual","397.5649999920279","","","","Images/BlackBeadChoiceCorrect.png","37"
"image-keyboard-response","488","495083","0.0-4.0-0.156","3","Low_HMMActual","293.01500000292435","","","","Images/NewTrialBC.png","37"
"image-keyboard-response","489","495339","0.0-4.0-1.156","3","Low_HMMActual","null","","","","Images/BlackBeadChoice.png","null"
"image-keyboard-response","490","495846","0.0-4.0-2.156","3","Low_HMMActual","275.6049999734387","","","","Images/BlackBeadChoiceCorrect.png","37"
"image-keyboard-response","491","496044","0.0-4.0-0.157","3","Low_HMMActual","196.89500000094995","","","","Images/NewTrialBC.png","37"
"image-keyboard-response","492","496295","0.0-4.0-1.157","3","Low_HMMActual","null","","","","Images/BlackBeadChoice.png","null"
"image-keyboard-response","493","496797","0.0-4.0-2.157","3","Low_HMMActual","276.27999999094754","","","","Images/BlackBeadChoiceCorrect.png","37"
"image-keyboard-response","494","497079","0.0-4.0-0.158","3","Low_HMMActual","280.1399999880232","","","","Images/NewTrialBC.png","37"
"image-keyboard-response","495","497335","0.0-4.0-1.158","3","Low_HMMActual","null","","","","Images/BlackBeadChoice.png","null"
"image-keyboard-response","496","497842","0.0-4.0-2.158","3","Low_HMMActual","253.51999996928498","","","","Images/BlackBeadChoiceWrong.png","37"
"image-keyboard-response","497","498837","0.0-4.0-0.159","3","Low_HMMActual","993.8499999698251","","","","Images/NewTrialWC.png","37"
"image-keyboard-response","498","499093","0.0-4.0-1.159","3","Low_HMMActual","null","","","","Images/BlackBeadChoice.png","null"
"image-keyboard-response","499","499599","0.0-4.0-2.159","3","Low_HMMActual","null","","","","Images/BlackBeadChoiceCorrect.png","null"
"image-keyboard-response","500","499722","0.0-4.0-0.160","3","Low_HMMActual","121.40499998349696","","","","Images/NewTrialBC.png","37"
"image-keyboard-response","501","499978","0.0-4.0-1.160","3","Low_HMMActual","null","","","","Images/BlackBeadChoice.png","null"
"image-keyboard-response","502","500482","0.0-4.0-2.160","3","Low_HMMActual","485.61499995412305","","","","Images/BlackBeadChoiceCorrect.png","37"
"image-keyboard-response","503","501125","0.0-4.0-0.161","3","Low_HMMActual","641.1499999812804","","","","Images/NewTrialBC.png","37"
"image-keyboard-response","504","501379","0.0-4.0-1.161","3","Low_HMMActual","null","","","","Images/BlackBeadChoice.png","null"
"image-keyboard-response","505","501881","0.0-4.0-2.161","3","Low_HMMActual","null","","","","Images/BlackBeadChoiceWrong.png","null"
"image-keyboard-response","506","502132","0.0-4.0-0.162","3","Low_HMMActual","249.05500002205372","","","","Images/NewTrialWC.png","37"
"image-keyboard-response","507","502388","0.0-4.0-1.162","3","Low_HMMActual","null","","","","Images/BlackBeadChoice.png","null"
"image-keyboard-response","508","502895","0.0-4.0-2.162","3","Low_HMMActual","null","","","","Images/BlackBeadChoiceWrong.png","null"
"image-keyboard-response","509","503337","0.0-4.0-0.163","3","Low_HMMActual","441.17499998537824","","","","Images/NewTrialWC.png","39"
"image-keyboard-response","510","503592","0.0-4.0-1.163","3","Low_HMMActual","null","","","","Images/WhiteBeadChoice.png","null"
"image-keyboard-response","511","504097","0.0-4.0-2.163","3","Low_HMMActual","null","","","","Images/WhiteBeadChoiceCorrect.png","null"
"image-keyboard-response","512","504254","0.0-4.0-0.164","3","Low_HMMActual","155.27500002644956","","","","Images/NewTrialWC.png","39"
"image-keyboard-response","513","504508","0.0-4.0-1.164","3","Low_HMMActual","null","","","","Images/WhiteBeadChoice.png","null"
"image-keyboard-response","514","505014","0.0-4.0-2.164","3","Low_HMMActual","324.80499998200685","","","","Images/WhiteBeadChoiceCorrect.png","39"
"image-keyboard-response","515","505360","0.0-4.0-0.165","3","Low_HMMActual","344.5599999977276","","","","Images/NewTrialWC.png","39"
"image-keyboard-response","516","505614","0.0-4.0-1.165","3","Low_HMMActual","null","","","","Images/WhiteBeadChoice.png","null"
"image-keyboard-response","517","506120","0.0-4.0-2.165","3","Low_HMMActual","199.54000000143424","","","","Images/WhiteBeadChoiceCorrect.png","39"
"image-keyboard-response","518","506221","0.0-4.0-0.166","3","Low_HMMActual","99.51999998884276","","","","Images/NewTrialWC.png","39"
"image-keyboard-response","519","506473","0.0-4.0-1.166","3","Low_HMMActual","null","","","","Images/WhiteBeadChoice.png","null"
"image-keyboard-response","520","506979","0.0-4.0-2.166","3","Low_HMMActual","195.59999997727573","","","","Images/WhiteBeadChoiceCorrect.png","39"
"image-keyboard-response","521","507056","0.0-4.0-0.167","3","Low_HMMActual","76.13499998115003","","","","Images/NewTrialWC.png","39"
"image-keyboard-response","522","507313","0.0-4.0-1.167","3","Low_HMMActual","null","","","","Images/WhiteBeadChoice.png","null"
"image-keyboard-response","523","507819","0.0-4.0-2.167","3","Low_HMMActual","188.7599999899976","","","","Images/WhiteBeadChoiceCorrect.png","39"
"image-keyboard-response","524","507920","0.0-4.0-0.168","3","Low_HMMActual","100.09999998146668","","","","Images/NewTrialWC.png","39"
"image-keyboard-response","525","508177","0.0-4.0-1.168","3","Low_HMMActual","null","","","","Images/WhiteBeadChoice.png","null"
"image-keyboard-response","526","508683","0.0-4.0-2.168","3","Low_HMMActual","200.56999998632818","","","","Images/WhiteBeadChoiceCorrect.png","39"
"image-keyboard-response","527","508826","0.0-4.0-0.169","3","Low_HMMActual","142.05500000389293","","","","Images/NewTrialWC.png","39"
"image-keyboard-response","528","509083","0.0-4.0-1.169","3","Low_HMMActual","null","","","","Images/WhiteBeadChoice.png","null"
"image-keyboard-response","529","509589","0.0-4.0-2.169","3","Low_HMMActual","144.510000012815","","","","Images/WhiteBeadChoiceCorrect.png","39"
"image-keyboard-response","530","509985","0.0-4.0-0.170","3","Low_HMMActual","394.74000001791865","","","","Images/NewTrialWC.png","39"
"image-keyboard-response","531","510240","0.0-4.0-1.170","3","Low_HMMActual","null","","","","Images/WhiteBeadChoice.png","null"
"image-keyboard-response","532","510747","0.0-4.0-2.170","3","Low_HMMActual","174.03499997453764","","","","Images/WhiteBeadChoiceWrong.png","39"
"image-keyboard-response","533","510961","0.0-4.0-0.171","3","Low_HMMActual","213.17499998258427","","","","Images/NewTrialBC.png","37"
"image-keyboard-response","534","511215","0.0-4.0-1.171","3","Low_HMMActual","null","","","","Images/BlackBeadChoice.png","null"
"image-keyboard-response","535","511722","0.0-4.0-2.171","3","Low_HMMActual","297.05499997362494","","","","Images/BlackBeadChoiceCorrect.png","37"
"image-keyboard-response","536","512056","0.0-4.0-0.172","3","Low_HMMActual","333.16500001819804","","","","Images/NewTrialBC.png","37"
"image-keyboard-response","537","512308","0.0-4.0-1.172","3","Low_HMMActual","null","","","","Images/BlackBeadChoice.png","null"
"image-keyboard-response","538","512810","0.0-4.0-2.172","3","Low_HMMActual","241.05000001145527","","","","Images/BlackBeadChoiceWrong.png","37"
"image-keyboard-response","539","513887","0.0-4.0-0.173","3","Low_HMMActual","1075.185000023339","","","","Images/NewTrialWC.png","39"
"image-keyboard-response","540","514138","0.0-4.0-1.173","3","Low_HMMActual","null","","","","Images/WhiteBeadChoice.png","null"
"image-keyboard-response","541","514640","0.0-4.0-2.173","3","Low_HMMActual","null","","","","Images/WhiteBeadChoiceCorrect.png","null"
"image-keyboard-response","542","514932","0.0-4.0-0.174","3","Low_HMMActual","291.02500004228204","","","","Images/NewTrialWC.png","39"
"image-keyboard-response","543","515188","0.0-4.0-1.174","3","Low_HMMActual","null","","","","Images/WhiteBeadChoice.png","null"
"image-keyboard-response","544","515691","0.0-4.0-2.174","3","Low_HMMActual","346.5250000008382","","","","Images/WhiteBeadChoiceCorrect.png","39"
"image-keyboard-response","545","515901","0.0-4.0-0.175","3","Low_HMMActual","208.35999998962507","","","","Images/NewTrialWC.png","39"
"image-keyboard-response","546","516157","0.0-4.0-1.175","3","Low_HMMActual","null","","","","Images/WhiteBeadChoice.png","null"
"image-keyboard-response","547","516659","0.0-4.0-2.175","3","Low_HMMActual","164.4899999955669","","","","Images/WhiteBeadChoiceWrong.png","39"
"image-keyboard-response","548","516759","0.0-4.0-0.176","3","Low_HMMActual","98.86999998707324","","","","Images/NewTrialBC.png","39"
"image-keyboard-response","549","517013","0.0-4.0-1.176","3","Low_HMMActual","null","","","","Images/WhiteBeadChoice.png","null"
"image-keyboard-response","550","517516","0.0-4.0-2.176","3","Low_HMMActual","100.32999998657033","","","","Images/WhiteBeadChoiceCorrect.png","39"
"image-keyboard-response","551","517874","0.0-4.0-0.177","3","Low_HMMActual","355.84999999264255","","","","Images/NewTrialWC.png","39"
"image-keyboard-response","552","518130","0.0-4.0-1.177","3","Low_HMMActual","null","","","","Images/WhiteBeadChoice.png","null"
"image-keyboard-response","553","518637","0.0-4.0-2.177","3","Low_HMMActual","135.72000002022833","","","","Images/WhiteBeadChoiceCorrect.png","39"
"image-keyboard-response","554","518656","0.0-4.0-0.178","3","Low_HMMActual","17.53499999176711","","","","Images/NewTrialWC.png","39"
"image-keyboard-response","555","518912","0.0-4.0-1.178","3","Low_HMMActual","null","","","","Images/WhiteBeadChoice.png","null"
"image-keyboard-response","556","519414","0.0-4.0-2.178","3","Low_HMMActual","115.1650000247173","","","","Images/WhiteBeadChoiceCorrect.png","39"
"image-keyboard-response","557","519430","0.0-4.0-0.179","3","Low_HMMActual","14.920000045094639","","","","Images/NewTrialWC.png","39"
"image-keyboard-response","558","519681","0.0-4.0-1.179","3","Low_HMMActual","null","","","","Images/WhiteBeadChoice.png","null"
"image-keyboard-response","559","520188","0.0-4.0-2.179","3","Low_HMMActual","268.68500001728535","","","","Images/WhiteBeadChoiceCorrect.png","39"
"image-keyboard-response","560","520434","0.0-4.0-0.180","3","Low_HMMActual","244.9050000286661","","","","Images/NewTrialWC.png","39"
"image-keyboard-response","561","520685","0.0-4.0-1.180","3","Low_HMMActual","null","","","","Images/WhiteBeadChoice.png","null"
"image-keyboard-response","562","521187","0.0-4.0-2.180","3","Low_HMMActual","357.5750000309199","","","","Images/WhiteBeadChoiceCorrect.png","39"
"image-keyboard-response","563","521489","0.0-4.0-0.181","3","Low_HMMActual","300.615000014659","","","","Images/NewTrialWC.png","39"
"image-keyboard-response","564","521745","0.0-4.0-1.181","3","Low_HMMActual","null","","","","Images/WhiteBeadChoice.png","null"
"image-keyboard-response","565","522252","0.0-4.0-2.181","3","Low_HMMActual","227.6549999951385","","","","Images/WhiteBeadChoiceCorrect.png","39"
"image-keyboard-response","566","522443","0.0-4.0-0.182","3","Low_HMMActual","190.00500004040077","","","","Images/NewTrialWC.png","39"
"image-keyboard-response","567","522695","0.0-4.0-1.182","3","Low_HMMActual","null","","","","Images/WhiteBeadChoice.png","null"
"image-keyboard-response","568","523202","0.0-4.0-2.182","3","Low_HMMActual","132.7199999941513","","","","Images/WhiteBeadChoiceCorrect.png","39"
"image-keyboard-response","569","523246","0.0-4.0-0.183","3","Low_HMMActual","43.14000002341345","","","","Images/NewTrialWC.png","39"
"image-keyboard-response","570","523499","0.0-4.0-1.183","3","Low_HMMActual","null","","","","Images/WhiteBeadChoice.png","null"
"image-keyboard-response","571","524005","0.0-4.0-2.183","3","Low_HMMActual","272.11000001989305","","","","Images/WhiteBeadChoiceCorrect.png","39"
"image-keyboard-response","572","524124","0.0-4.0-0.184","3","Low_HMMActual","117.97000002115965","","","","Images/NewTrialWC.png","39"
"image-keyboard-response","573","524380","0.0-4.0-1.184","3","Low_HMMActual","null","","","","Images/WhiteBeadChoice.png","null"
"image-keyboard-response","574","524887","0.0-4.0-2.184","3","Low_HMMActual","202.35999999567866","","","","Images/WhiteBeadChoiceCorrect.png","39"
"image-keyboard-response","575","524987","0.0-4.0-0.185","3","Low_HMMActual","98.6399999819696","","","","Images/NewTrialWC.png","39"
"image-keyboard-response","576","525243","0.0-4.0-1.185","3","Low_HMMActual","null","","","","Images/WhiteBeadChoice.png","null"
"image-keyboard-response","577","525749","0.0-4.0-2.185","3","Low_HMMActual","90.72999999625608","","","","Images/WhiteBeadChoiceCorrect.png","39"
"image-keyboard-response","578","526067","0.0-4.0-0.186","3","Low_HMMActual","315.9899999736808","","","","Images/NewTrialWC.png","39"
"image-keyboard-response","579","526323","0.0-4.0-1.186","3","Low_HMMActual","null","","","","Images/WhiteBeadChoice.png","null"
"image-keyboard-response","580","526825","0.0-4.0-2.186","3","Low_HMMActual","193.6299999943003","","","","Images/WhiteBeadChoiceCorrect.png","39"
"image-keyboard-response","581","526843","0.0-4.0-0.187","3","Low_HMMActual","16.14500000141561","","","","Images/NewTrialWC.png","39"
"image-keyboard-response","582","527099","0.0-4.0-1.187","3","Low_HMMActual","null","","","","Images/WhiteBeadChoice.png","null"
"image-keyboard-response","583","527600","0.0-4.0-2.187","3","Low_HMMActual","92.51500002574176","","","","Images/WhiteBeadChoiceCorrect.png","39"
"image-keyboard-response","584","527604","0.0-4.0-0.188","3","Low_HMMActual","2.465000026859343","","","","Images/NewTrialWC.png","39"
"image-keyboard-response","585","527859","0.0-4.0-1.188","3","Low_HMMActual","null","","","","Images/WhiteBeadChoice.png","null"
"image-keyboard-response","586","528361","0.0-4.0-2.188","3","Low_HMMActual","62.864999985322356","","","","Images/WhiteBeadChoiceCorrect.png","39"
"image-keyboard-response","587","528650","0.0-4.0-0.189","3","Low_HMMActual","287.6500000129454","","","","Images/NewTrialWC.png","39"
"image-keyboard-response","588","528906","0.0-4.0-1.189","3","Low_HMMActual","null","","","","Images/WhiteBeadChoice.png","null"
"image-keyboard-response","589","529412","0.0-4.0-2.189","3","Low_HMMActual","145.73499996913597","","","","Images/WhiteBeadChoiceWrong.png","39"
"image-keyboard-response","590","529526","0.0-4.0-0.190","3","Low_HMMActual","112.17000003671274","","","","Images/NewTrialBC.png","39"
"image-keyboard-response","591","529782","0.0-4.0-1.190","3","Low_HMMActual","null","","","","Images/WhiteBeadChoice.png","null"
"image-keyboard-response","592","530288","0.0-4.0-2.190","3","Low_HMMActual","456.79500000551343","","","","Images/WhiteBeadChoiceCorrect.png","39"
"image-keyboard-response","593","530777","0.0-4.0-0.191","3","Low_HMMActual","488.0750000011176","","","","Images/NewTrialWC.png","39"
"image-keyboard-response","594","531034","0.0-4.0-1.191","3","Low_HMMActual","null","","","","Images/WhiteBeadChoice.png","null"
"image-keyboard-response","595","531536","0.0-4.0-2.191","3","Low_HMMActual","250.75000000651926","","","","Images/WhiteBeadChoiceWrong.png","39"
"image-keyboard-response","596","532396","0.0-4.0-0.192","3","Low_HMMActual","859.0149999945424","","","","Images/NewTrialBC.png","37"
"image-keyboard-response","597","532648","0.0-4.0-1.192","3","Low_HMMActual","null","","","","Images/BlackBeadChoice.png","null"
"image-keyboard-response","598","533154","0.0-4.0-2.192","3","Low_HMMActual","null","","","","Images/BlackBeadChoiceCorrect.png","null"
"image-keyboard-response","599","533345","0.0-4.0-0.193","3","Low_HMMActual","190.1300000026822","","","","Images/NewTrialBC.png","37"
"image-keyboard-response","600","533602","0.0-4.0-1.193","3","Low_HMMActual","null","","","","Images/BlackBeadChoice.png","null"
"image-keyboard-response","601","534109","0.0-4.0-2.193","3","Low_HMMActual","null","","","","Images/BlackBeadChoiceWrong.png","null"
"image-keyboard-response","602","535221","0.0-4.0-0.194","3","Low_HMMActual","1110.480000032112","","","","Images/NewTrialWC.png","37"
"image-keyboard-response","603","535477","0.0-4.0-1.194","3","Low_HMMActual","null","","","","Images/BlackBeadChoice.png","null"
"image-keyboard-response","604","535983","0.0-4.0-2.194","3","Low_HMMActual","null","","","","Images/BlackBeadChoiceCorrect.png","null"
"image-keyboard-response","605","536126","0.0-4.0-0.195","3","Low_HMMActual","140.87499998277053","","","","Images/NewTrialBC.png","37"
"image-keyboard-response","606","536382","0.0-4.0-1.195","3","Low_HMMActual","null","","","","Images/BlackBeadChoice.png","null"
"image-keyboard-response","607","536888","0.0-4.0-2.195","3","Low_HMMActual","442.3100000130944","","","","Images/BlackBeadChoiceCorrect.png","37"
"image-keyboard-response","608","537333","0.0-4.0-0.196","3","Low_HMMActual","443.80499998806044","","","","Images/NewTrialBC.png","37"
"image-keyboard-response","609","537590","0.0-4.0-1.196","3","Low_HMMActual","null","","","","Images/BlackBeadChoice.png","null"
"image-keyboard-response","610","538096","0.0-4.0-2.196","3","Low_HMMActual","245.4400000278838","","","","Images/BlackBeadChoiceCorrect.png","37"
"image-keyboard-response","611","538144","0.0-4.0-0.197","3","Low_HMMActual","47.00999998021871","","","","Images/NewTrialBC.png","37"
"image-keyboard-response","612","538401","0.0-4.0-1.197","3","Low_HMMActual","null","","","","Images/BlackBeadChoice.png","null"
"image-keyboard-response","613","538907","0.0-4.0-2.197","3","Low_HMMActual","23.66000000620261","","","","Images/BlackBeadChoiceWrong.png","37"
"image-keyboard-response","614","539022","0.0-4.0-0.198","3","Low_HMMActual","114.19500003103167","","","","Images/NewTrialWC.png","37"
"image-keyboard-response","615","539279","0.0-4.0-1.198","3","Low_HMMActual","null","","","","Images/BlackBeadChoice.png","null"
"image-keyboard-response","616","539780","0.0-4.0-2.198","3","Low_HMMActual","175.4300000029616","","","","Images/BlackBeadChoiceCorrect.png","37"
"image-keyboard-response","617","540145","0.0-4.0-0.199","3","Low_HMMActual","363.0649999831803","","","","Images/NewTrialBC.png","37"
"image-keyboard-response","618","540398","0.0-4.0-1.199","3","Low_HMMActual","null","","","","Images/BlackBeadChoice.png","null"
"image-keyboard-response","619","540901","0.0-4.0-2.199","3","Low_HMMActual","282.0300000021234","","","","Images/BlackBeadChoiceCorrect.png","37"
"image-keyboard-response","620","541093","0.0-4.0-0.200","3","Low_HMMActual","190.67000003997236","","","","Images/NewTrialBC.png","37"
"image-keyboard-response","621","541349","0.0-4.0-1.200","3","Low_HMMActual","null","","","","Images/BlackBeadChoice.png","null"
"image-keyboard-response","622","541853","0.0-4.0-2.200","3","Low_HMMActual","133.48499999847263","","","","Images/BlackBeadChoiceWrong.png","37"
"image-keyboard-response","623","541963","0.0-4.0-0.201","3","Low_HMMActual","108.95500000333413","","","","Images/NewTrialWC.png","37"
"image-keyboard-response","624","542215","0.0-4.0-1.201","3","Low_HMMActual","null","","","","Images/BlackBeadChoice.png","null"
"image-keyboard-response","625","542721","0.0-4.0-2.201","3","Low_HMMActual","375.2700000186451","","","","Images/BlackBeadChoiceCorrect.png","37"
"image-keyboard-response","626","542909","0.0-4.0-0.202","3","Low_HMMActual","186.74999999348074","","","","Images/NewTrialBC.png","37"
"image-keyboard-response","627","543164","0.0-4.0-1.202","3","Low_HMMActual","null","","","","Images/BlackBeadChoice.png","null"
"image-keyboard-response","628","543665","0.0-4.0-2.202","3","Low_HMMActual","219.11999996518716","","","","Images/BlackBeadChoiceCorrect.png","37"
"image-keyboard-response","629","543839","0.0-4.0-0.203","3","Low_HMMActual","172.40500001935288","","","","Images/NewTrialBC.png","37"
"image-keyboard-response","630","544095","0.0-4.0-1.203","3","Low_HMMActual","null","","","","Images/BlackBeadChoice.png","null"
"image-keyboard-response","631","544601","0.0-4.0-2.203","3","Low_HMMActual","131.62500003818423","","","","Images/BlackBeadChoiceCorrect.png","37"
"image-keyboard-response","632","545218","0.0-4.0-0.204","3","Low_HMMActual","615.410000027623","","","","Images/NewTrialBC.png","37"
"image-keyboard-response","633","545474","0.0-4.0-1.204","3","Low_HMMActual","null","","","","Images/BlackBeadChoice.png","null"
"image-keyboard-response","634","545981","0.0-4.0-2.204","3","Low_HMMActual","319.18500002939254","","","","Images/BlackBeadChoiceCorrect.png","37"
"image-keyboard-response","635","546264","0.0-4.0-0.205","3","Low_HMMActual","281.8800000241026","","","","Images/NewTrialBC.png","37"
"image-keyboard-response","636","546515","0.0-4.0-1.205","3","Low_HMMActual","null","","","","Images/BlackBeadChoice.png","null"
"image-keyboard-response","637","547022","0.0-4.0-2.205","3","Low_HMMActual","284.5349999843165","","","","Images/BlackBeadChoiceCorrect.png","37"
"image-keyboard-response","638","547303","0.0-4.0-0.206","3","Low_HMMActual","279.91499996278435","","","","Images/NewTrialBC.png","37"
"image-keyboard-response","639","547557","0.0-4.0-1.206","3","Low_HMMActual","null","","","","Images/BlackBeadChoice.png","null"
"image-keyboard-response","640","548064","0.0-4.0-2.206","3","Low_HMMActual","81.53500000480562","","","","Images/BlackBeadChoiceCorrect.png","37"
"image-keyboard-response","641","548403","0.0-4.0-0.207","3","Low_HMMActual","337.84500003093854","","","","Images/NewTrialBC.png","37"
"image-keyboard-response","642","548655","0.0-4.0-1.207","3","Low_HMMActual","null","","","","Images/BlackBeadChoice.png","null"
"image-keyboard-response","643","549160","0.0-4.0-2.207","3","Low_HMMActual","135.69999998435378","","","","Images/BlackBeadChoiceCorrect.png","37"
"image-keyboard-response","644","549168","0.0-4.0-0.208","3","Low_HMMActual","6.034999969415367","","","","Images/NewTrialBC.png","37"
"image-keyboard-response","645","549422","0.0-4.0-1.208","3","Low_HMMActual","null","","","","Images/BlackBeadChoice.png","null"
"image-keyboard-response","646","549928","0.0-4.0-2.208","3","Low_HMMActual","189.83999994816259","","","","Images/BlackBeadChoiceCorrect.png","37"
"image-keyboard-response","647","550016","0.0-4.0-0.209","3","Low_HMMActual","85.47500002896413","","","","Images/NewTrialBC.png","37"
"image-keyboard-response","648","550267","0.0-4.0-1.209","3","Low_HMMActual","null","","","","Images/BlackBeadChoice.png","null"
"image-keyboard-response","649","550773","0.0-4.0-2.209","3","Low_HMMActual","119.59500005468726","","","","Images/BlackBeadChoiceCorrect.png","37"
"image-keyboard-response","650","551154","0.0-4.0-0.210","3","Low_HMMActual","378.99499997729436","","","","Images/NewTrialBC.png","37"
"image-keyboard-response","651","551408","0.0-4.0-1.210","3","Low_HMMActual","null","","","","Images/BlackBeadChoice.png","null"
"image-keyboard-response","652","551914","0.0-4.0-2.210","3","Low_HMMActual","114.19500003103167","","","","Images/BlackBeadChoiceCorrect.png","37"
"image-keyboard-response","653","552167","0.0-4.0-0.211","3","Low_HMMActual","251.35500001488253","","","","Images/NewTrialBC.png","37"
"image-keyboard-response","654","552423","0.0-4.0-1.211","3","Low_HMMActual","null","","","","Images/BlackBeadChoice.png","null"
"image-keyboard-response","655","552927","0.0-4.0-2.211","3","Low_HMMActual","109.69000001205131","","","","Images/BlackBeadChoiceCorrect.png","37"
"image-keyboard-response","656","553301","0.0-4.0-0.212","3","Low_HMMActual","372.13500001234934","","","","Images/NewTrialBC.png","37"
"image-keyboard-response","657","553553","0.0-4.0-1.212","3","Low_HMMActual","243.1450000149198","","","","Images/BlackBeadChoice.png","37"
"image-keyboard-response","658","554056","0.0-4.0-2.212","3","Low_HMMActual","null","","","","Images/BlackBeadChoiceCorrect.png","null"
"image-keyboard-response","659","557948","0.0-4.0-0.213","3","Low_HMMActual","3890.8700000029057","","","","Images/NewTrialBC.png","37"
"image-keyboard-response","660","558202","0.0-4.0-1.213","3","Low_HMMActual","null","","","","Images/BlackBeadChoice.png","null"
"image-keyboard-response","661","558707","0.0-4.0-2.213","3","Low_HMMActual","117.84000002080575","","","","Images/BlackBeadChoiceCorrect.png","37"
"image-keyboard-response","662","558912","0.0-4.0-0.214","3","Low_HMMActual","203.4300000523217","","","","Images/NewTrialBC.png","37"
"image-keyboard-response","663","559168","0.0-4.0-1.214","3","Low_HMMActual","null","","","","Images/BlackBeadChoice.png","null"
"image-keyboard-response","664","559670","0.0-4.0-2.214","3","Low_HMMActual","318.07500001741573","","","","Images/BlackBeadChoiceCorrect.png","37"
"image-keyboard-response","665","559779","0.0-4.0-0.215","3","Low_HMMActual","107.89500002283603","","","","Images/NewTrialBC.png","37"
"image-keyboard-response","666","560031","0.0-4.0-1.215","3","Low_HMMActual","null","","","","Images/BlackBeadChoice.png","null"
"image-keyboard-response","667","560532","0.0-4.0-2.215","3","Low_HMMActual","null","","","","Images/BlackBeadChoiceCorrect.png","null"
"image-keyboard-response","668","561503","0.0-4.0-0.216","3","Low_HMMActual","968.6349999974482","","","","Images/NewTrialBC.png","37"
"image-keyboard-response","669","561756","0.0-4.0-1.216","3","Low_HMMActual","null","","","","Images/BlackBeadChoice.png","null"
"image-keyboard-response","670","562261","0.0-4.0-2.216","3","Low_HMMActual","352.0499999867752","","","","Images/BlackBeadChoiceCorrect.png","37"
"image-keyboard-response","671","562697","0.0-4.0-0.217","3","Low_HMMActual","434.95500000426546","","","","Images/NewTrialBC.png","37"
"image-keyboard-response","672","562951","0.0-4.0-1.217","3","Low_HMMActual","null","","","","Images/BlackBeadChoice.png","null"
"image-keyboard-response","673","563452","0.0-4.0-2.217","3","Low_HMMActual","87.17000001342967","","","","Images/BlackBeadChoiceCorrect.png","37"
"image-keyboard-response","674","563707","0.0-4.0-0.218","3","Low_HMMActual","253.4299999824725","","","","Images/NewTrialBC.png","37"
"image-keyboard-response","675","563958","0.0-4.0-1.218","3","Low_HMMActual","null","","","","Images/BlackBeadChoice.png","null"
"image-keyboard-response","676","564460","0.0-4.0-2.218","3","Low_HMMActual","207.0800000219606","","","","Images/BlackBeadChoiceCorrect.png","37"
"image-keyboard-response","677","564501","0.0-4.0-0.219","3","Low_HMMActual","40.14499997720122","","","","Images/NewTrialBC.png","37"
"image-keyboard-response","678","564752","0.0-4.0-1.219","3","Low_HMMActual","null","","","","Images/BlackBeadChoice.png","null"
"image-keyboard-response","679","565254","0.0-4.0-2.219","3","Low_HMMActual","88.2149999961257","","","","Images/BlackBeadChoiceCorrect.png","37"
"image-keyboard-response","680","565256","0.0-4.0-0.220","3","Low_HMMActual","0.1449999981559813","","","","Images/NewTrialBC.png","37"
"image-keyboard-response","681","565511","0.0-4.0-1.220","3","Low_HMMActual","null","","","","Images/BlackBeadChoice.png","null"
"image-keyboard-response","682","566016","0.0-4.0-2.220","3","Low_HMMActual","168.67500002263114","","","","Images/BlackBeadChoiceCorrect.png","37"
"image-keyboard-response","683","566490","0.0-4.0-0.221","3","Low_HMMActual","472.33499999856576","","","","Images/NewTrialBC.png","37"
"image-keyboard-response","684","566741","0.0-4.0-1.221","3","Low_HMMActual","null","","","","Images/BlackBeadChoice.png","null"
"image-keyboard-response","685","567243","0.0-4.0-2.221","3","Low_HMMActual","268.7000000150874","","","","Images/BlackBeadChoiceWrong.png","37"
"image-keyboard-response","686","567324","0.0-4.0-0.222","3","Low_HMMActual","79.1050000116229","","","","Images/NewTrialWC.png","37"
"image-keyboard-response","687","567577","0.0-4.0-1.222","3","Low_HMMActual","null","","","","Images/BlackBeadChoice.png","null"
"image-keyboard-response","688","568082","0.0-4.0-2.222","3","Low_HMMActual","249.1450000088662","","","","Images/BlackBeadChoiceWrong.png","37"
"image-keyboard-response","689","568462","0.0-4.0-0.223","3","Low_HMMActual","377.71000002976507","","","","Images/NewTrialWC.png","39"
"image-keyboard-response","690","568716","0.0-4.0-1.223","3","Low_HMMActual","null","","","","Images/WhiteBeadChoice.png","null"
"image-keyboard-response","691","569218","0.0-4.0-2.223","3","Low_HMMActual","148.3250000164844","","","","Images/WhiteBeadChoiceCorrect.png","39"
"image-keyboard-response","692","569221","0.0-4.0-0.224","3","Low_HMMActual","0.8549999911338091","","","","Images/NewTrialWC.png","39"
"image-keyboard-response","693","569477","0.0-4.0-1.224","3","Low_HMMActual","null","","","","Images/WhiteBeadChoice.png","null"
"image-keyboard-response","694","569984","0.0-4.0-2.224","3","Low_HMMActual","110.69999996107072","","","","Images/WhiteBeadChoiceCorrect.png","39"
"image-keyboard-response","695","570251","0.0-4.0-0.225","3","Low_HMMActual","266.11000002594665","","","","Images/NewTrialWC.png","39"
"image-keyboard-response","696","570502","0.0-4.0-1.225","3","Low_HMMActual","null","","","","Images/WhiteBeadChoice.png","null"
"image-keyboard-response","697","571006","0.0-4.0-2.225","3","Low_HMMActual","467.0649999752641","","","","Images/WhiteBeadChoiceCorrect.png","39"
"image-keyboard-response","698","571410","0.0-4.0-0.226","3","Low_HMMActual","402.7350000105798","","","","Images/NewTrialWC.png","39"
"image-keyboard-response","699","571664","0.0-4.0-1.226","3","Low_HMMActual","null","","","","Images/WhiteBeadChoice.png","null"
"image-keyboard-response","700","572170","0.0-4.0-2.226","3","Low_HMMActual","187.00999999418855","","","","Images/WhiteBeadChoiceCorrect.png","39"
"image-keyboard-response","701","572263","0.0-4.0-0.227","3","Low_HMMActual","91.74999996321276","","","","Images/NewTrialWC.png","39"
"image-keyboard-response","702","572517","0.0-4.0-1.227","3","Low_HMMActual","null","","","","Images/WhiteBeadChoice.png","null"
"image-keyboard-response","703","573020","0.0-4.0-2.227","3","Low_HMMActual","213.45999999903142","","","","Images/WhiteBeadChoiceCorrect.png","39"
"image-keyboard-response","704","573146","0.0-4.0-0.228","3","Low_HMMActual","124.82500000623986","","","","Images/NewTrialWC.png","39"
"image-keyboard-response","705","573402","0.0-4.0-1.228","3","Low_HMMActual","null","","","","Images/WhiteBeadChoice.png","null"
"image-keyboard-response","706","573904","0.0-4.0-2.228","3","Low_HMMActual","26.09999995911494","","","","Images/WhiteBeadChoiceCorrect.png","39"
"image-keyboard-response","707","573968","0.0-4.0-0.229","3","Low_HMMActual","63.344999973196536","","","","Images/NewTrialWC.png","39"
"image-keyboard-response","708","574224","0.0-4.0-1.229","3","Low_HMMActual","null","","","","Images/WhiteBeadChoice.png","null"
"image-keyboard-response","709","574728","0.0-4.0-2.229","3","Low_HMMActual","78.36499996483326","","","","Images/WhiteBeadChoiceCorrect.png","39"
"image-keyboard-response","710","575092","0.0-4.0-0.230","3","Low_HMMActual","362.8150000004098","","","","Images/NewTrialWC.png","39"
"image-keyboard-response","711","575344","0.0-4.0-1.230","3","Low_HMMActual","null","","","","Images/WhiteBeadChoice.png","null"
"image-keyboard-response","712","575850","0.0-4.0-2.230","3","Low_HMMActual","96.8400000128895","","","","Images/WhiteBeadChoiceCorrect.png","39"
