"trial_type","trial_index","time_elapsed","internal_node_id","Script_Picker","Block_Type","rt","url","responses","question_order","stimulus","key_press"
"pavlovia","0","2","0.0-0.0","16","High_HMMActual","","","","","",""
"external-html","1","9936","0.0-1.0-0.0","16","High_HMMActual","9818.455000058748","consent.html","","","",""
"survey-multi-choice","2","13606","0.0-1.0-1.0","16","High_HMMActual","3668.2099999161437","","{""Q0"":""Female"",""Q1"":""Asian""}","[0,1]","",""
"survey-text","3","16502","0.0-1.0-2.0","16","High_HMMActual","2891.029999940656","","{""Q0"":""20""}","","",""
"survey-text","4","21963","0.0-1.0-3.0","16","High_HMMActual","5357.220000005327","","{""Q0"":""5dcfc4a09595a10cd3ef3e59""}","","",""
"html-keyboard-response","5","31424","0.0-2.0-0.0","16","High_HMMActual","9357.539999997243","","","","<div class=""container"" style=""height:800px;width:800px;display:flex;flex-direction:column;justify-content:center;align-items:center;text-align:center;font-weight:normal;font-family:Arial;font-size:20px""><p>In this task you will see black or white beads being pulled from jars. <br><br>On each trial, a bead will be pulled from one of two jars. Once you see this bead, your goal is to predict the color of NEXT bead that will be pulled. <br> <br>Every time you correctly guess the color of the NEXT bead, you will get a point. <br><br>Press the SPACEBAR to continue.</p><div>","32"
"html-keyboard-response","6","37903","0.0-2.0-1.0","16","High_HMMActual","6478.260000003502","","","","<div class=""container"" style=""height:800px;width:800px;display:flex;flex-direction:column;justify-content:center;align-items:center;text-align:center;font-weight:normal;font-family:Arial;font-size:20px""><p>Jars are filled with 85% white or black beads and 15% of the opposite color mixed in<br><br>Press the SPACEBAR to continue. </p><div>","32"
"image-keyboard-response","7","41838","0.0-2.0-2.0","16","High_HMMActual","3933.6899999761954","","","","resources/WhiteJar_HMM.png","32"
"image-keyboard-response","8","42919","0.0-2.0-3.0","16","High_HMMActual","1080.1450000144541","","","","resources/BlackJar_HMM.png","32"
"html-keyboard-response","9","45701","0.0-2.0-4.0","16","High_HMMActual","2781.0499999905005","","","","<div class=""container"" style=""height:800px;width:800px;display:flex;flex-direction:column;justify-content:center;align-items:center;text-align:center;font-weight:normal;font-family:Arial;font-size:20px""><p>There will be two blocks of trials. Each block will contain 500 trials. <br><br>Here are examples of what you will see on each trial.<br><br>Press the SPACEBAR to continue. </p><div>","32"
"image-keyboard-response","10","48466","0.0-2.0-5.0","16","High_HMMActual","2763.979999930598","","","","Images/NoChoice.png","32"
"html-keyboard-response","11","59188","0.0-2.0-6.0","16","High_HMMActual","10721.320000011474","","","","<div class=""container"" style=""height:800px;width:800px;display:flex;flex-direction:column;justify-content:center;align-items:center;text-align:center;font-weight:normal;font-family:Arial;font-size:20px""><p> The jar the beads are pulled from is NOT choosen at random on each trial.<br><br>After each prediction, there will be a chance that the jars will switch, and that the next bead will be pulled from the opposite jar as the previous trial.<br><br>In each block, the chance that a jar will switch will either be LOW (the jars will not switch very often), or HIGH (the jars will switch almost all the time).<br><br>At the start of each block, you will be told the probability that the jars will switch on each trial. This switch probability will stay constant throughout the block.<br><br>Press the SPACEBAR to continue. </p><div>","32"
"image-keyboard-response","12","64280","0.0-2.0-7.0","16","High_HMMActual","5091.935000033118","","","","Images/TutorialWhiteJarDrawHMMC.png","32"
"image-keyboard-response","13","66837","0.0-2.0-8.0","16","High_HMMActual","2555.7150000240654","","","","Images/TutorialBlackJarDrawHMMC.png","32"
"image-keyboard-response","14","67769","0.0-2.0-9.0","16","High_HMMActual","930.835000006482","","","","Images/TutorialBlackJarDrawHMMI.png","32"
"html-keyboard-response","15","71973","0.0-2.0-10.0","16","High_HMMActual","4203.095000004396","","","","<div class=""container"" style=""height:800px;width:800px;display:flex;flex-direction:column;justify-content:center;align-items:center;text-align:center;font-weight:normal;font-family:Arial;font-size:20px""><p> As you observed, a white bead was pulled from a 85% white jar, the jars switched and a black bead was pulled from the 85% black jar, but then low-probability white bead was pulled from the 90% black jar. <br><br>In these mixed-jar blocks, you will first have to figure out which jar the current bead was pulled from, then use the jar switch probability to predict the color of the next bead.<br><br>Press SPACEBAR to conitnue.</p><div>","32"
"html-keyboard-response","16","73321","0.0-2.0-11.0","16","High_HMMActual","1347.7399999974295","","","","<div class=""container"" style=""height:800px;width:800px;display:flex;flex-direction:column;justify-content:center;align-items:center;text-align:center;font-weight:normal;font-family:Arial;font-size:20px""><p> You will now be given a 2 question quiz to make sure you understand the fundamentals. </p><div>","32"
"image-keyboard-response","17","77112","0.0-2.0-12.0","16","High_HMMActual","3790.114999981597","","","","Images/TutorialQuestion1.png","39"
"image-keyboard-response","18","82514","0.0-2.0-13.0","16","High_HMMActual","3771.2150000734255","","","","Images/TutorialQuestion2.png","38"
"html-keyboard-response","19","135862","0.0-3.0","16","High_HMMActual","52572.32000003569","","","","<div class=""container"" style=""height:800px;width:800px;display:flex;flex-direction:column;justify-content:center;align-items:center;text-align:center;font-weight:normal;font-family:Arial;font-size:20px""><p>Loading episode&hellip;</p><div>","32"
"image-keyboard-response","20","144193","0.0-4.0-0.0","16","High_HMMActual","8329.355000052601","","","","Images/NoChoice.png","39"
"image-keyboard-response","21","144449","0.0-4.0-1.0","16","High_HMMActual","null","","","","Images/WhiteBeadChoice.png","null"
"image-keyboard-response","22","144951","0.0-4.0-2.0","16","High_HMMActual","null","","","","Images/WhiteBeadChoiceCorrect.png","null"
"image-keyboard-response","23","146706","0.0-4.0-0.1","16","High_HMMActual","1753.9899999974295","","","","Images/NewTrialWC.png","39"
"image-keyboard-response","24","146962","0.0-4.0-1.1","16","High_HMMActual","null","","","","Images/WhiteBeadChoice.png","null"
"image-keyboard-response","25","147465","0.0-4.0-2.1","16","High_HMMActual","null","","","","Images/WhiteBeadChoiceWrong.png","null"
"image-keyboard-response","26","150032","0.0-4.0-0.2","16","High_HMMActual","2565.9349999623373","","","","Images/NewTrialBC.png","39"
"image-keyboard-response","27","150285","0.0-4.0-1.2","16","High_HMMActual","null","","","","Images/WhiteBeadChoice.png","null"
"image-keyboard-response","28","150789","0.0-4.0-2.2","16","High_HMMActual","null","","","","Images/WhiteBeadChoiceCorrect.png","null"
"image-keyboard-response","29","151233","0.0-4.0-0.3","16","High_HMMActual","443.52500000968575","","","","Images/NewTrialWC.png","39"
"image-keyboard-response","30","151486","0.0-4.0-1.3","16","High_HMMActual","null","","","","Images/WhiteBeadChoice.png","null"
"image-keyboard-response","31","151991","0.0-4.0-2.3","16","High_HMMActual","null","","","","Images/WhiteBeadChoiceCorrect.png","null"
"image-keyboard-response","32","152374","0.0-4.0-0.4","16","High_HMMActual","381.86000008136034","","","","Images/NewTrialWC.png","39"
"image-keyboard-response","33","152630","0.0-4.0-1.4","16","High_HMMActual","null","","","","Images/WhiteBeadChoice.png","null"
"image-keyboard-response","34","153137","0.0-4.0-2.4","16","High_HMMActual","null","","","","Images/WhiteBeadChoiceWrong.png","null"
"image-keyboard-response","35","154640","0.0-4.0-0.5","16","High_HMMActual","1501.6700000269338","","","","Images/NewTrialBC.png","39"
"image-keyboard-response","36","154893","0.0-4.0-1.5","16","High_HMMActual","null","","","","Images/WhiteBeadChoice.png","null"
"image-keyboard-response","37","155396","0.0-4.0-2.5","16","High_HMMActual","null","","","","Images/WhiteBeadChoiceWrong.png","null"
"image-keyboard-response","38","155712","0.0-4.0-0.6","16","High_HMMActual","314.61499992292374","","","","Images/NewTrialBC.png","39"
"image-keyboard-response","39","155970","0.0-4.0-1.6","16","High_HMMActual","null","","","","Images/WhiteBeadChoice.png","null"
"image-keyboard-response","40","156476","0.0-4.0-2.6","16","High_HMMActual","null","","","","Images/WhiteBeadChoiceCorrect.png","null"
"image-keyboard-response","41","156851","0.0-4.0-0.7","16","High_HMMActual","373.62000008579344","","","","Images/NewTrialWC.png","39"
"image-keyboard-response","42","157106","0.0-4.0-1.7","16","High_HMMActual","null","","","","Images/WhiteBeadChoice.png","null"
"image-keyboard-response","43","157608","0.0-4.0-2.7","16","High_HMMActual","null","","","","Images/WhiteBeadChoiceCorrect.png","null"
"image-keyboard-response","44","158239","0.0-4.0-0.8","16","High_HMMActual","630.3349999943748","","","","Images/NewTrialWC.png","39"
"image-keyboard-response","45","158494","0.0-4.0-1.8","16","High_HMMActual","null","","","","Images/WhiteBeadChoice.png","null"
"image-keyboard-response","46","159001","0.0-4.0-2.8","16","High_HMMActual","null","","","","Images/WhiteBeadChoiceCorrect.png","null"
"image-keyboard-response","47","159351","0.0-4.0-0.9","16","High_HMMActual","349.11499998997897","","","","Images/NewTrialWC.png","39"
"image-keyboard-response","48","159607","0.0-4.0-1.9","16","High_HMMActual","null","","","","Images/WhiteBeadChoice.png","null"
"image-keyboard-response","49","160109","0.0-4.0-2.9","16","High_HMMActual","null","","","","Images/WhiteBeadChoiceCorrect.png","null"
"image-keyboard-response","50","160478","0.0-4.0-0.10","16","High_HMMActual","368.2350000599399","","","","Images/NewTrialWC.png","39"
"image-keyboard-response","51","160734","0.0-4.0-1.10","16","High_HMMActual","null","","","","Images/WhiteBeadChoice.png","null"
"image-keyboard-response","52","161240","0.0-4.0-2.10","16","High_HMMActual","null","","","","Images/WhiteBeadChoiceWrong.png","null"
"image-keyboard-response","53","161594","0.0-4.0-0.11","16","High_HMMActual","353.0700000701472","","","","Images/NewTrialBC.png","37"
"image-keyboard-response","54","161846","0.0-4.0-1.11","16","High_HMMActual","null","","","","Images/BlackBeadChoice.png","null"
"image-keyboard-response","55","162349","0.0-4.0-2.11","16","High_HMMActual","null","","","","Images/BlackBeadChoiceWrong.png","null"
"image-keyboard-response","56","162850","0.0-4.0-0.12","16","High_HMMActual","499.99499996192753","","","","Images/NewTrialWC.png","39"
"image-keyboard-response","57","163101","0.0-4.0-1.12","16","High_HMMActual","null","","","","Images/WhiteBeadChoice.png","null"
"image-keyboard-response","58","163608","0.0-4.0-2.12","16","High_HMMActual","null","","","","Images/WhiteBeadChoiceWrong.png","null"
"image-keyboard-response","59","163754","0.0-4.0-0.13","16","High_HMMActual","145.52000002004206","","","","Images/NewTrialBC.png","37"
"image-keyboard-response","60","164010","0.0-4.0-1.13","16","High_HMMActual","null","","","","Images/BlackBeadChoice.png","null"
"image-keyboard-response","61","164516","0.0-4.0-2.13","16","High_HMMActual","null","","","","Images/BlackBeadChoiceWrong.png","null"
"image-keyboard-response","62","164879","0.0-4.0-0.14","16","High_HMMActual","361.90000001806766","","","","Images/NewTrialWC.png","39"
"image-keyboard-response","63","165133","0.0-4.0-1.14","16","High_HMMActual","null","","","","Images/WhiteBeadChoice.png","null"
"image-keyboard-response","64","165636","0.0-4.0-2.14","16","High_HMMActual","null","","","","Images/WhiteBeadChoiceWrong.png","null"
"image-keyboard-response","65","165723","0.0-4.0-0.15","16","High_HMMActual","86.07999992091209","","","","Images/NewTrialBC.png","37"
"image-keyboard-response","66","165975","0.0-4.0-1.15","16","High_HMMActual","null","","","","Images/BlackBeadChoice.png","null"
"image-keyboard-response","67","166482","0.0-4.0-2.15","16","High_HMMActual","null","","","","Images/BlackBeadChoiceWrong.png","null"
"image-keyboard-response","68","166886","0.0-4.0-0.16","16","High_HMMActual","402.6849999791011","","","","Images/NewTrialWC.png","39"
"image-keyboard-response","69","167139","0.0-4.0-1.16","16","High_HMMActual","null","","","","Images/WhiteBeadChoice.png","null"
"image-keyboard-response","70","167642","0.0-4.0-2.16","16","High_HMMActual","null","","","","Images/WhiteBeadChoiceWrong.png","null"
"image-keyboard-response","71","167970","0.0-4.0-0.17","16","High_HMMActual","326.8849999876693","","","","Images/NewTrialBC.png","37"
"image-keyboard-response","72","168226","0.0-4.0-1.17","16","High_HMMActual","null","","","","Images/BlackBeadChoice.png","null"
"image-keyboard-response","73","168728","0.0-4.0-2.17","16","High_HMMActual","null","","","","Images/BlackBeadChoiceCorrect.png","null"
"image-keyboard-response","74","169187","0.0-4.0-0.18","16","High_HMMActual","457.7800000552088","","","","Images/NewTrialBC.png","37"
"image-keyboard-response","75","169443","0.0-4.0-1.18","16","High_HMMActual","null","","","","Images/BlackBeadChoice.png","null"
"image-keyboard-response","76","169947","0.0-4.0-2.18","16","High_HMMActual","386.99499994982034","","","","Images/BlackBeadChoiceCorrect.png","37"
"image-keyboard-response","77","170338","0.0-4.0-0.19","16","High_HMMActual","389.91000002715737","","","","Images/NewTrialBC.png","37"
"image-keyboard-response","78","170592","0.0-4.0-1.19","16","High_HMMActual","null","","","","Images/BlackBeadChoice.png","null"
"image-keyboard-response","79","171099","0.0-4.0-2.19","16","High_HMMActual","null","","","","Images/BlackBeadChoiceWrong.png","null"
"image-keyboard-response","80","171427","0.0-4.0-0.20","16","High_HMMActual","326.94000005722046","","","","Images/NewTrialWC.png","37"
"image-keyboard-response","81","171678","0.0-4.0-1.20","16","High_HMMActual","null","","","","Images/BlackBeadChoice.png","null"
"image-keyboard-response","82","172184","0.0-4.0-2.20","16","High_HMMActual","null","","","","Images/BlackBeadChoiceCorrect.png","null"
"image-keyboard-response","83","172415","0.0-4.0-0.21","16","High_HMMActual","229.95999990962446","","","","Images/NewTrialBC.png","37"
"image-keyboard-response","84","172667","0.0-4.0-1.21","16","High_HMMActual","null","","","","Images/BlackBeadChoice.png","null"
"image-keyboard-response","85","173171","0.0-4.0-2.21","16","High_HMMActual","null","","","","Images/BlackBeadChoiceCorrect.png","null"
"image-keyboard-response","86","173494","0.0-4.0-0.22","16","High_HMMActual","321.9899999676272","","","","Images/NewTrialBC.png","37"
"image-keyboard-response","87","173747","0.0-4.0-1.22","16","High_HMMActual","null","","","","Images/BlackBeadChoice.png","null"
"image-keyboard-response","88","174252","0.0-4.0-2.22","16","High_HMMActual","null","","","","Images/BlackBeadChoiceWrong.png","null"
"image-keyboard-response","89","174519","0.0-4.0-0.23","16","High_HMMActual","265.7500000204891","","","","Images/NewTrialWC.png","37"
"image-keyboard-response","90","174775","0.0-4.0-1.23","16","High_HMMActual","null","","","","Images/BlackBeadChoice.png","null"
"image-keyboard-response","91","175281","0.0-4.0-2.23","16","High_HMMActual","null","","","","Images/BlackBeadChoiceCorrect.png","null"
"image-keyboard-response","92","175564","0.0-4.0-0.24","16","High_HMMActual","281.055000028573","","","","Images/NewTrialBC.png","37"
"image-keyboard-response","93","175816","0.0-4.0-1.24","16","High_HMMActual","null","","","","Images/BlackBeadChoice.png","null"
"image-keyboard-response","94","176322","0.0-4.0-2.24","16","High_HMMActual","null","","","","Images/BlackBeadChoiceCorrect.png","null"
"image-keyboard-response","95","176515","0.0-4.0-0.25","16","High_HMMActual","191.53000006917864","","","","Images/NewTrialBC.png","37"
"image-keyboard-response","96","176771","0.0-4.0-1.25","16","High_HMMActual","null","","","","Images/BlackBeadChoice.png","null"
"image-keyboard-response","97","177277","0.0-4.0-2.25","16","High_HMMActual","null","","","","Images/BlackBeadChoiceWrong.png","null"
"image-keyboard-response","98","177497","0.0-4.0-0.26","16","High_HMMActual","218.1300000520423","","","","Images/NewTrialWC.png","39"
"image-keyboard-response","99","177753","0.0-4.0-1.26","16","High_HMMActual","null","","","","Images/WhiteBeadChoice.png","null"
"image-keyboard-response","100","178258","0.0-4.0-2.26","16","High_HMMActual","null","","","","Images/WhiteBeadChoiceCorrect.png","null"
"image-keyboard-response","101","178493","0.0-4.0-0.27","16","High_HMMActual","233.890000032261","","","","Images/NewTrialWC.png","39"
"image-keyboard-response","102","178744","0.0-4.0-1.27","16","High_HMMActual","null","","","","Images/WhiteBeadChoice.png","null"
"image-keyboard-response","103","179250","0.0-4.0-2.27","16","High_HMMActual","null","","","","Images/WhiteBeadChoiceCorrect.png","null"
"image-keyboard-response","104","179536","0.0-4.0-0.28","16","High_HMMActual","284.3900000443682","","","","Images/NewTrialWC.png","39"
"image-keyboard-response","105","179790","0.0-4.0-1.28","16","High_HMMActual","null","","","","Images/WhiteBeadChoice.png","null"
"image-keyboard-response","106","180297","0.0-4.0-2.28","16","High_HMMActual","null","","","","Images/WhiteBeadChoiceWrong.png","null"
"image-keyboard-response","107","180570","0.0-4.0-0.29","16","High_HMMActual","271.8149999855086","","","","Images/NewTrialBC.png","37"
"image-keyboard-response","108","180824","0.0-4.0-1.29","16","High_HMMActual","null","","","","Images/BlackBeadChoice.png","null"
"image-keyboard-response","109","181326","0.0-4.0-2.29","16","High_HMMActual","null","","","","Images/BlackBeadChoiceWrong.png","null"
"image-keyboard-response","110","181620","0.0-4.0-0.30","16","High_HMMActual","293.0550000164658","","","","Images/NewTrialWC.png","39"
"image-keyboard-response","111","181876","0.0-4.0-1.30","16","High_HMMActual","null","","","","Images/WhiteBeadChoice.png","null"
"image-keyboard-response","112","182382","0.0-4.0-2.30","16","High_HMMActual","null","","","","Images/WhiteBeadChoiceWrong.png","null"
"image-keyboard-response","113","182719","0.0-4.0-0.31","16","High_HMMActual","336.1399999121204","","","","Images/NewTrialBC.png","39"
"image-keyboard-response","114","182974","0.0-4.0-1.31","16","High_HMMActual","null","","","","Images/WhiteBeadChoice.png","null"
"image-keyboard-response","115","183475","0.0-4.0-2.31","16","High_HMMActual","null","","","","Images/WhiteBeadChoiceCorrect.png","null"
"image-keyboard-response","116","183764","0.0-4.0-0.32","16","High_HMMActual","287.98500006087124","","","","Images/NewTrialWC.png","39"
"image-keyboard-response","117","184018","0.0-4.0-1.32","16","High_HMMActual","null","","","","Images/WhiteBeadChoice.png","null"
"image-keyboard-response","118","184520","0.0-4.0-2.32","16","High_HMMActual","null","","","","Images/WhiteBeadChoiceWrong.png","null"
"image-keyboard-response","119","184729","0.0-4.0-0.33","16","High_HMMActual","207.28500001132488","","","","Images/NewTrialBC.png","39"
"image-keyboard-response","120","184985","0.0-4.0-1.33","16","High_HMMActual","null","","","","Images/WhiteBeadChoice.png","null"
"image-keyboard-response","121","185490","0.0-4.0-2.33","16","High_HMMActual","null","","","","Images/WhiteBeadChoiceCorrect.png","null"
"image-keyboard-response","122","185682","0.0-4.0-0.34","16","High_HMMActual","190.87000004947186","","","","Images/NewTrialWC.png","39"
"image-keyboard-response","123","185938","0.0-4.0-1.34","16","High_HMMActual","null","","","","Images/WhiteBeadChoice.png","null"
"image-keyboard-response","124","186445","0.0-4.0-2.34","16","High_HMMActual","null","","","","Images/WhiteBeadChoiceWrong.png","null"
"image-keyboard-response","125","186634","0.0-4.0-0.35","16","High_HMMActual","188.04999999701977","","","","Images/NewTrialBC.png","39"
"image-keyboard-response","126","186888","0.0-4.0-1.35","16","High_HMMActual","null","","","","Images/WhiteBeadChoice.png","null"
"image-keyboard-response","127","187394","0.0-4.0-2.35","16","High_HMMActual","null","","","","Images/WhiteBeadChoiceWrong.png","null"
"image-keyboard-response","128","187610","0.0-4.0-0.36","16","High_HMMActual","214.81999999377877","","","","Images/NewTrialBC.png","37"
"image-keyboard-response","129","187861","0.0-4.0-1.36","16","High_HMMActual","null","","","","Images/BlackBeadChoice.png","null"
"image-keyboard-response","130","188367","0.0-4.0-2.36","16","High_HMMActual","null","","","","Images/BlackBeadChoiceCorrect.png","null"
"image-keyboard-response","131","188593","0.0-4.0-0.37","16","High_HMMActual","224.0750000346452","","","","Images/NewTrialBC.png","37"
"image-keyboard-response","132","188849","0.0-4.0-1.37","16","High_HMMActual","null","","","","Images/BlackBeadChoice.png","null"
"image-keyboard-response","133","189352","0.0-4.0-2.37","16","High_HMMActual","null","","","","Images/BlackBeadChoiceWrong.png","null"
"image-keyboard-response","134","189634","0.0-4.0-0.38","16","High_HMMActual","280.93500004615635","","","","Images/NewTrialWC.png","37"
"image-keyboard-response","135","189885","0.0-4.0-1.38","16","High_HMMActual","null","","","","Images/BlackBeadChoice.png","null"
"image-keyboard-response","136","190392","0.0-4.0-2.38","16","High_HMMActual","null","","","","Images/BlackBeadChoiceCorrect.png","null"
"image-keyboard-response","137","190524","0.0-4.0-0.39","16","High_HMMActual","130.78000000678003","","","","Images/NewTrialBC.png","37"
"image-keyboard-response","138","190776","0.0-4.0-1.39","16","High_HMMActual","null","","","","Images/BlackBeadChoice.png","null"
"image-keyboard-response","139","191282","0.0-4.0-2.39","16","High_HMMActual","null","","","","Images/BlackBeadChoiceWrong.png","null"
"image-keyboard-response","140","191519","0.0-4.0-0.40","16","High_HMMActual","235.3049999801442","","","","Images/NewTrialWC.png","37"
"image-keyboard-response","141","191773","0.0-4.0-1.40","16","High_HMMActual","null","","","","Images/BlackBeadChoice.png","null"
"image-keyboard-response","142","192280","0.0-4.0-2.40","16","High_HMMActual","null","","","","Images/BlackBeadChoiceCorrect.png","null"
"image-keyboard-response","143","192496","0.0-4.0-0.41","16","High_HMMActual","215.68000002298504","","","","Images/NewTrialBC.png","37"
"image-keyboard-response","144","192748","0.0-4.0-1.41","16","High_HMMActual","null","","","","Images/BlackBeadChoice.png","null"
"image-keyboard-response","145","193251","0.0-4.0-2.41","16","High_HMMActual","null","","","","Images/BlackBeadChoiceWrong.png","null"
"image-keyboard-response","146","193504","0.0-4.0-0.42","16","High_HMMActual","252.1349999587983","","","","Images/NewTrialWC.png","37"
"image-keyboard-response","147","193757","0.0-4.0-1.42","16","High_HMMActual","null","","","","Images/BlackBeadChoice.png","null"
"image-keyboard-response","148","194258","0.0-4.0-2.42","16","High_HMMActual","null","","","","Images/BlackBeadChoiceCorrect.png","null"
"image-keyboard-response","149","194532","0.0-4.0-0.43","16","High_HMMActual","271.67500008363277","","","","Images/NewTrialBC.png","37"
"image-keyboard-response","150","194786","0.0-4.0-1.43","16","High_HMMActual","null","","","","Images/BlackBeadChoice.png","null"
"image-keyboard-response","151","195291","0.0-4.0-2.43","16","High_HMMActual","null","","","","Images/BlackBeadChoiceWrong.png","null"
"image-keyboard-response","152","195640","0.0-4.0-0.44","16","High_HMMActual","347.67499996814877","","","","Images/NewTrialWC.png","37"
"image-keyboard-response","153","195891","0.0-4.0-1.44","16","High_HMMActual","null","","","","Images/BlackBeadChoice.png","null"
"image-keyboard-response","154","196397","0.0-4.0-2.44","16","High_HMMActual","null","","","","Images/BlackBeadChoiceCorrect.png","null"
"image-keyboard-response","155","196683","0.0-4.0-0.45","16","High_HMMActual","284.25999998580664","","","","Images/NewTrialBC.png","37"
"image-keyboard-response","156","196939","0.0-4.0-1.45","16","High_HMMActual","null","","","","Images/BlackBeadChoice.png","null"
"image-keyboard-response","157","197441","0.0-4.0-2.45","16","High_HMMActual","null","","","","Images/BlackBeadChoiceCorrect.png","null"
"image-keyboard-response","158","198232","0.0-4.0-0.46","16","High_HMMActual","789.6900000050664","","","","Images/NewTrialBC.png","39"
"image-keyboard-response","159","198488","0.0-4.0-1.46","16","High_HMMActual","null","","","","Images/WhiteBeadChoice.png","null"
"image-keyboard-response","160","198994","0.0-4.0-2.46","16","High_HMMActual","null","","","","Images/WhiteBeadChoiceWrong.png","null"
"image-keyboard-response","161","199287","0.0-4.0-0.47","16","High_HMMActual","291.92999994847924","","","","Images/NewTrialBC.png","39"
"image-keyboard-response","162","199543","0.0-4.0-1.47","16","High_HMMActual","null","","","","Images/WhiteBeadChoice.png","null"
"image-keyboard-response","163","200048","0.0-4.0-2.47","16","High_HMMActual","null","","","","Images/WhiteBeadChoiceCorrect.png","null"
"image-keyboard-response","164","200355","0.0-4.0-0.48","16","High_HMMActual","305.99999998230487","","","","Images/NewTrialWC.png","39"
"image-keyboard-response","165","200611","0.0-4.0-1.48","16","High_HMMActual","null","","","","Images/WhiteBeadChoice.png","null"
"image-keyboard-response","166","201115","0.0-4.0-2.48","16","High_HMMActual","null","","","","Images/WhiteBeadChoiceWrong.png","null"
"image-keyboard-response","167","201297","0.0-4.0-0.49","16","High_HMMActual","181.63500004447997","","","","Images/NewTrialBC.png","39"
"image-keyboard-response","168","201553","0.0-4.0-1.49","16","High_HMMActual","null","","","","Images/WhiteBeadChoice.png","null"
"image-keyboard-response","169","202056","0.0-4.0-2.49","16","High_HMMActual","null","","","","Images/WhiteBeadChoiceCorrect.png","null"
"image-keyboard-response","170","202333","0.0-4.0-0.50","16","High_HMMActual","275.69499996025115","","","","Images/NewTrialWC.png","39"
"image-keyboard-response","171","202584","0.0-4.0-1.50","16","High_HMMActual","null","","","","Images/WhiteBeadChoice.png","null"
"image-keyboard-response","172","203086","0.0-4.0-2.50","16","High_HMMActual","null","","","","Images/WhiteBeadChoiceWrong.png","null"
"image-keyboard-response","173","203343","0.0-4.0-0.51","16","High_HMMActual","256.33500004187226","","","","Images/NewTrialBC.png","39"
"image-keyboard-response","174","203599","0.0-4.0-1.51","16","High_HMMActual","null","","","","Images/WhiteBeadChoice.png","null"
"image-keyboard-response","175","204104","0.0-4.0-2.51","16","High_HMMActual","null","","","","Images/WhiteBeadChoiceCorrect.png","null"
"image-keyboard-response","176","204325","0.0-4.0-0.52","16","High_HMMActual","220.52000008989125","","","","Images/NewTrialWC.png","39"
"image-keyboard-response","177","204579","0.0-4.0-1.52","16","High_HMMActual","null","","","","Images/WhiteBeadChoice.png","null"
"image-keyboard-response","178","205080","0.0-4.0-2.52","16","High_HMMActual","null","","","","Images/WhiteBeadChoiceWrong.png","null"
"image-keyboard-response","179","205343","0.0-4.0-0.53","16","High_HMMActual","262.37999997101724","","","","Images/NewTrialBC.png","39"
"image-keyboard-response","180","205598","0.0-4.0-1.53","16","High_HMMActual","null","","","","Images/WhiteBeadChoice.png","null"
"image-keyboard-response","181","206099","0.0-4.0-2.53","16","High_HMMActual","null","","","","Images/WhiteBeadChoiceCorrect.png","null"
"image-keyboard-response","182","206324","0.0-4.0-0.54","16","High_HMMActual","223.95999997388572","","","","Images/NewTrialWC.png","39"
"image-keyboard-response","183","206575","0.0-4.0-1.54","16","High_HMMActual","null","","","","Images/WhiteBeadChoice.png","null"
"image-keyboard-response","184","207081","0.0-4.0-2.54","16","High_HMMActual","null","","","","Images/WhiteBeadChoiceWrong.png","null"
"image-keyboard-response","185","207399","0.0-4.0-0.55","16","High_HMMActual","316.869999980554","","","","Images/NewTrialBC.png","39"
"image-keyboard-response","186","207651","0.0-4.0-1.55","16","High_HMMActual","null","","","","Images/WhiteBeadChoice.png","null"
"image-keyboard-response","187","208153","0.0-4.0-2.55","16","High_HMMActual","null","","","","Images/WhiteBeadChoiceCorrect.png","null"
"image-keyboard-response","188","304868","0.0-4.0-0.56","16","High_HMMActual","96712.52000005916","","","","Images/NewTrialWC.png","39"
"image-keyboard-response","189","305122","0.0-4.0-1.56","16","High_HMMActual","null","","","","Images/WhiteBeadChoice.png","null"
"image-keyboard-response","190","305625","0.0-4.0-2.56","16","High_HMMActual","318.91000003088266","","","","Images/WhiteBeadChoiceCorrect.png","39"
"image-keyboard-response","191","305998","0.0-4.0-0.57","16","High_HMMActual","371.4749999344349","","","","Images/NewTrialWC.png","39"
"image-keyboard-response","192","306252","0.0-4.0-1.57","16","High_HMMActual","null","","","","Images/WhiteBeadChoice.png","null"
"image-keyboard-response","193","306756","0.0-4.0-2.57","16","High_HMMActual","null","","","","Images/WhiteBeadChoiceCorrect.png","null"
"image-keyboard-response","194","306799","0.0-4.0-0.58","16","High_HMMActual","42.409999994561076","","","","Images/NewTrialWC.png","39"
"image-keyboard-response","195","307055","0.0-4.0-1.58","16","High_HMMActual","null","","","","Images/WhiteBeadChoice.png","null"
"image-keyboard-response","196","307559","0.0-4.0-2.58","16","High_HMMActual","null","","","","Images/WhiteBeadChoiceCorrect.png","null"
"image-keyboard-response","197","307727","0.0-4.0-0.59","16","High_HMMActual","166.61499999463558","","","","Images/NewTrialWC.png","39"
"image-keyboard-response","198","307983","0.0-4.0-1.59","16","High_HMMActual","null","","","","Images/WhiteBeadChoice.png","null"
"image-keyboard-response","199","308489","0.0-4.0-2.59","16","High_HMMActual","null","","","","Images/WhiteBeadChoiceCorrect.png","null"
"image-keyboard-response","200","308621","0.0-4.0-0.60","16","High_HMMActual","130.87499991524965","","","","Images/NewTrialWC.png","39"
"image-keyboard-response","201","308873","0.0-4.0-1.60","16","High_HMMActual","null","","","","Images/WhiteBeadChoice.png","null"
"image-keyboard-response","202","309379","0.0-4.0-2.60","16","High_HMMActual","null","","","","Images/WhiteBeadChoiceWrong.png","null"
"image-keyboard-response","203","309729","0.0-4.0-0.61","16","High_HMMActual","348.46000000834465","","","","Images/NewTrialBC.png","37"
"image-keyboard-response","204","309983","0.0-4.0-1.61","16","High_HMMActual","null","","","","Images/BlackBeadChoice.png","null"
"image-keyboard-response","205","310489","0.0-4.0-2.61","16","High_HMMActual","null","","","","Images/BlackBeadChoiceWrong.png","null"
"image-keyboard-response","206","310740","0.0-4.0-0.62","16","High_HMMActual","249.47499996051192","","","","Images/NewTrialWC.png","39"
"image-keyboard-response","207","310991","0.0-4.0-1.62","16","High_HMMActual","null","","","","Images/WhiteBeadChoice.png","null"
"image-keyboard-response","208","311493","0.0-4.0-2.62","16","High_HMMActual","null","","","","Images/WhiteBeadChoiceWrong.png","null"
"image-keyboard-response","209","311589","0.0-4.0-0.63","16","High_HMMActual","95.07000003941357","","","","Images/NewTrialBC.png","39"
"image-keyboard-response","210","311845","0.0-4.0-1.63","16","High_HMMActual","null","","","","Images/WhiteBeadChoice.png","null"
"image-keyboard-response","211","312351","0.0-4.0-2.63","16","High_HMMActual","null","","","","Images/WhiteBeadChoiceCorrect.png","null"
"image-keyboard-response","212","312474","0.0-4.0-0.64","16","High_HMMActual","122.02000000979751","","","","Images/NewTrialWC.png","39"
"image-keyboard-response","213","312730","0.0-4.0-1.64","16","High_HMMActual","null","","","","Images/WhiteBeadChoice.png","null"
"image-keyboard-response","214","313236","0.0-4.0-2.64","16","High_HMMActual","null","","","","Images/WhiteBeadChoiceWrong.png","null"
"image-keyboard-response","215","313304","0.0-4.0-0.65","16","High_HMMActual","66.20000000111759","","","","Images/NewTrialBC.png","39"
"image-keyboard-response","216","313555","0.0-4.0-1.65","16","High_HMMActual","null","","","","Images/WhiteBeadChoice.png","null"
"image-keyboard-response","217","314058","0.0-4.0-2.65","16","High_HMMActual","null","","","","Images/WhiteBeadChoiceCorrect.png","null"
"image-keyboard-response","218","314210","0.0-4.0-0.66","16","High_HMMActual","150.87999997194856","","","","Images/NewTrialWC.png","37"
"image-keyboard-response","219","314463","0.0-4.0-1.66","16","High_HMMActual","null","","","","Images/BlackBeadChoice.png","null"
"image-keyboard-response","220","314964","0.0-4.0-2.66","16","High_HMMActual","null","","","","Images/BlackBeadChoiceWrong.png","null"
"image-keyboard-response","221","315075","0.0-4.0-0.67","16","High_HMMActual","108.97500009741634","","","","Images/NewTrialWC.png","37"
"image-keyboard-response","222","315327","0.0-4.0-1.67","16","High_HMMActual","null","","","","Images/BlackBeadChoice.png","null"
"image-keyboard-response","223","315828","0.0-4.0-2.67","16","High_HMMActual","null","","","","Images/BlackBeadChoiceWrong.png","null"
"image-keyboard-response","224","315974","0.0-4.0-0.68","16","High_HMMActual","144.3849999923259","","","","Images/NewTrialWC.png","37"
"image-keyboard-response","225","316230","0.0-4.0-1.68","16","High_HMMActual","null","","","","Images/BlackBeadChoice.png","null"
"image-keyboard-response","226","316735","0.0-4.0-2.68","16","High_HMMActual","null","","","","Images/BlackBeadChoiceWrong.png","null"
"image-keyboard-response","227","316858","0.0-4.0-0.69","16","High_HMMActual","121.56499992124736","","","","Images/NewTrialWC.png","39"
"image-keyboard-response","228","317113","0.0-4.0-1.69","16","High_HMMActual","null","","","","Images/WhiteBeadChoice.png","null"
"image-keyboard-response","229","317619","0.0-4.0-2.69","16","High_HMMActual","null","","","","Images/WhiteBeadChoiceWrong.png","null"
"image-keyboard-response","230","317720","0.0-4.0-0.70","16","High_HMMActual","99.99500005505979","","","","Images/NewTrialBC.png","37"
"image-keyboard-response","231","317976","0.0-4.0-1.70","16","High_HMMActual","null","","","","Images/BlackBeadChoice.png","null"
"image-keyboard-response","232","318479","0.0-4.0-2.70","16","High_HMMActual","null","","","","Images/BlackBeadChoiceWrong.png","null"
"image-keyboard-response","233","318579","0.0-4.0-0.71","16","High_HMMActual","98.37000002153218","","","","Images/NewTrialWC.png","37"
"image-keyboard-response","234","318831","0.0-4.0-1.71","16","High_HMMActual","null","","","","Images/BlackBeadChoice.png","null"
"image-keyboard-response","235","319337","0.0-4.0-2.71","16","High_HMMActual","null","","","","Images/BlackBeadChoiceCorrect.png","null"
"image-keyboard-response","236","319357","0.0-4.0-0.72","16","High_HMMActual","19.244999974034727","","","","Images/NewTrialBC.png","37"
"image-keyboard-response","237","319612","0.0-4.0-1.72","16","High_HMMActual","null","","","","Images/BlackBeadChoice.png","null"
"image-keyboard-response","238","320115","0.0-4.0-2.72","16","High_HMMActual","null","","","","Images/BlackBeadChoiceWrong.png","null"
"image-keyboard-response","239","320247","0.0-4.0-0.73","16","High_HMMActual","131.00500009022653","","","","Images/NewTrialWC.png","37"
"image-keyboard-response","240","320500","0.0-4.0-1.73","16","High_HMMActual","null","","","","Images/BlackBeadChoice.png","null"
"image-keyboard-response","241","321007","0.0-4.0-2.73","16","High_HMMActual","null","","","","Images/BlackBeadChoiceWrong.png","null"
"image-keyboard-response","242","321078","0.0-4.0-0.74","16","High_HMMActual","69.59999992977828","","","","Images/NewTrialWC.png","37"
"image-keyboard-response","243","321333","0.0-4.0-1.74","16","High_HMMActual","null","","","","Images/BlackBeadChoice.png","null"
"image-keyboard-response","244","321839","0.0-4.0-2.74","16","High_HMMActual","null","","","","Images/BlackBeadChoiceWrong.png","null"
"image-keyboard-response","245","321946","0.0-4.0-0.75","16","High_HMMActual","105.60000000987202","","","","Images/NewTrialWC.png","37"
"image-keyboard-response","246","322202","0.0-4.0-1.75","16","High_HMMActual","null","","","","Images/BlackBeadChoice.png","null"
"image-keyboard-response","247","322708","0.0-4.0-2.75","16","High_HMMActual","null","","","","Images/BlackBeadChoiceWrong.png","null"
"image-keyboard-response","248","322822","0.0-4.0-0.76","16","High_HMMActual","112.59499995503575","","","","Images/NewTrialWC.png","39"
"image-keyboard-response","249","323077","0.0-4.0-1.76","16","High_HMMActual","null","","","","Images/WhiteBeadChoice.png","null"
"image-keyboard-response","250","323583","0.0-4.0-2.76","16","High_HMMActual","null","","","","Images/WhiteBeadChoiceCorrect.png","null"
"image-keyboard-response","251","323626","0.0-4.0-0.77","16","High_HMMActual","41.849999921396375","","","","Images/NewTrialWC.png","39"
"image-keyboard-response","252","323882","0.0-4.0-1.77","16","High_HMMActual","null","","","","Images/WhiteBeadChoice.png","null"
"image-keyboard-response","253","324388","0.0-4.0-2.77","16","High_HMMActual","null","","","","Images/WhiteBeadChoiceWrong.png","null"
"image-keyboard-response","254","324491","0.0-4.0-0.78","16","High_HMMActual","101.79500002413988","","","","Images/NewTrialBC.png","39"
"image-keyboard-response","255","324746","0.0-4.0-1.78","16","High_HMMActual","null","","","","Images/WhiteBeadChoice.png","null"
"image-keyboard-response","256","325252","0.0-4.0-2.78","16","High_HMMActual","null","","","","Images/WhiteBeadChoiceCorrect.png","null"
"image-keyboard-response","257","325334","0.0-4.0-0.79","16","High_HMMActual","81.0300000011921","","","","Images/NewTrialWC.png","39"
"image-keyboard-response","258","325590","0.0-4.0-1.79","16","High_HMMActual","null","","","","Images/WhiteBeadChoice.png","null"
"image-keyboard-response","259","326095","0.0-4.0-2.79","16","High_HMMActual","null","","","","Images/WhiteBeadChoiceCorrect.png","null"
"image-keyboard-response","260","326252","0.0-4.0-0.80","16","High_HMMActual","155.2049999590963","","","","Images/NewTrialWC.png","39"
"image-keyboard-response","261","326503","0.0-4.0-1.80","16","High_HMMActual","null","","","","Images/WhiteBeadChoice.png","null"
"image-keyboard-response","262","327007","0.0-4.0-2.80","16","High_HMMActual","null","","","","Images/WhiteBeadChoiceCorrect.png","null"
"image-keyboard-response","263","327158","0.0-4.0-0.81","16","High_HMMActual","149.69999995082617","","","","Images/NewTrialWC.png","39"
"image-keyboard-response","264","327413","0.0-4.0-1.81","16","High_HMMActual","null","","","","Images/WhiteBeadChoice.png","null"
"image-keyboard-response","265","327919","0.0-4.0-2.81","16","High_HMMActual","null","","","","Images/WhiteBeadChoiceWrong.png","null"
"image-keyboard-response","266","328101","0.0-4.0-0.82","16","High_HMMActual","180.5999999633059","","","","Images/NewTrialBC.png","39"
"image-keyboard-response","267","328357","0.0-4.0-1.82","16","High_HMMActual","null","","","","Images/WhiteBeadChoice.png","null"
"image-keyboard-response","268","328863","0.0-4.0-2.82","16","High_HMMActual","null","","","","Images/WhiteBeadChoiceCorrect.png","null"
"image-keyboard-response","269","328985","0.0-4.0-0.83","16","High_HMMActual","119.98999991919845","","","","Images/NewTrialWC.png","39"
"image-keyboard-response","270","329241","0.0-4.0-1.83","16","High_HMMActual","null","","","","Images/WhiteBeadChoice.png","null"
"image-keyboard-response","271","329743","0.0-4.0-2.83","16","High_HMMActual","null","","","","Images/WhiteBeadChoiceWrong.png","null"
"image-keyboard-response","272","329874","0.0-4.0-0.84","16","High_HMMActual","129.56999999005347","","","","Images/NewTrialBC.png","39"
"image-keyboard-response","273","330130","0.0-4.0-1.84","16","High_HMMActual","null","","","","Images/WhiteBeadChoice.png","null"
"image-keyboard-response","274","330634","0.0-4.0-2.84","16","High_HMMActual","null","","","","Images/WhiteBeadChoiceCorrect.png","null"
"image-keyboard-response","275","330832","0.0-4.0-0.85","16","High_HMMActual","196.11000001896173","","","","Images/NewTrialWC.png","39"
"image-keyboard-response","276","331088","0.0-4.0-1.85","16","High_HMMActual","null","","","","Images/WhiteBeadChoice.png","null"
"image-keyboard-response","277","331594","0.0-4.0-2.85","16","High_HMMActual","null","","","","Images/WhiteBeadChoiceWrong.png","null"
"image-keyboard-response","278","331655","0.0-4.0-0.86","16","High_HMMActual","60.25999994017184","","","","Images/NewTrialBC.png","37"
"image-keyboard-response","279","331908","0.0-4.0-1.86","16","High_HMMActual","null","","","","Images/BlackBeadChoice.png","null"
"image-keyboard-response","280","332414","0.0-4.0-2.86","16","High_HMMActual","null","","","","Images/BlackBeadChoiceCorrect.png","null"
"image-keyboard-response","281","332671","0.0-4.0-0.87","16","High_HMMActual","254.97500004712492","","","","Images/NewTrialBC.png","37"
"image-keyboard-response","282","332924","0.0-4.0-1.87","16","High_HMMActual","null","","","","Images/BlackBeadChoice.png","null"
"image-keyboard-response","283","333429","0.0-4.0-2.87","16","High_HMMActual","null","","","","Images/BlackBeadChoiceCorrect.png","null"
"image-keyboard-response","284","333578","0.0-4.0-0.88","16","High_HMMActual","148.28500000294298","","","","Images/NewTrialBC.png","37"
"image-keyboard-response","285","333835","0.0-4.0-1.88","16","High_HMMActual","null","","","","Images/BlackBeadChoice.png","null"
"image-keyboard-response","286","334341","0.0-4.0-2.88","16","High_HMMActual","null","","","","Images/BlackBeadChoiceWrong.png","null"
"image-keyboard-response","287","334506","0.0-4.0-0.89","16","High_HMMActual","164.34999997727573","","","","Images/NewTrialWC.png","37"
"image-keyboard-response","288","334761","0.0-4.0-1.89","16","High_HMMActual","null","","","","Images/BlackBeadChoice.png","null"
"image-keyboard-response","289","335268","0.0-4.0-2.89","16","High_HMMActual","null","","","","Images/BlackBeadChoiceCorrect.png","null"
"image-keyboard-response","290","335424","0.0-4.0-0.90","16","High_HMMActual","155.3800000110641","","","","Images/NewTrialBC.png","37"
"image-keyboard-response","291","335680","0.0-4.0-1.90","16","High_HMMActual","null","","","","Images/BlackBeadChoice.png","null"
"image-keyboard-response","292","336186","0.0-4.0-2.90","16","High_HMMActual","null","","","","Images/BlackBeadChoiceCorrect.png","null"
"image-keyboard-response","293","336226","0.0-4.0-0.91","16","High_HMMActual","38.88500004541129","","","","Images/NewTrialBC.png","37"
"image-keyboard-response","294","336482","0.0-4.0-1.91","16","High_HMMActual","null","","","","Images/BlackBeadChoice.png","null"
"image-keyboard-response","295","336989","0.0-4.0-2.91","16","High_HMMActual","null","","","","Images/BlackBeadChoiceCorrect.png","null"
"image-keyboard-response","296","337361","0.0-4.0-0.92","16","High_HMMActual","371.21000001206994","","","","Images/NewTrialBC.png","37"
"image-keyboard-response","297","337617","0.0-4.0-1.92","16","High_HMMActual","null","","","","Images/BlackBeadChoice.png","null"
"image-keyboard-response","298","338122","0.0-4.0-2.92","16","High_HMMActual","null","","","","Images/BlackBeadChoiceWrong.png","null"
"image-keyboard-response","299","338432","0.0-4.0-0.93","16","High_HMMActual","308.77000000327826","","","","Images/NewTrialWC.png","37"
"image-keyboard-response","300","338688","0.0-4.0-1.93","16","High_HMMActual","null","","","","Images/BlackBeadChoice.png","null"
"image-keyboard-response","301","339194","0.0-4.0-2.93","16","High_HMMActual","null","","","","Images/BlackBeadChoiceWrong.png","null"
"image-keyboard-response","302","339253","0.0-4.0-0.94","16","High_HMMActual","57.80500010587275","","","","Images/NewTrialWC.png","37"
"image-keyboard-response","303","339507","0.0-4.0-1.94","16","High_HMMActual","null","","","","Images/BlackBeadChoice.png","null"
"image-keyboard-response","304","340013","0.0-4.0-2.94","16","High_HMMActual","null","","","","Images/BlackBeadChoiceCorrect.png","null"
"image-keyboard-response","305","340069","0.0-4.0-0.95","16","High_HMMActual","54.914999986067414","","","","Images/NewTrialBC.png","37"
"image-keyboard-response","306","340323","0.0-4.0-1.95","16","High_HMMActual","null","","","","Images/BlackBeadChoice.png","null"
"image-keyboard-response","307","340829","0.0-4.0-2.95","16","High_HMMActual","null","","","","Images/BlackBeadChoiceCorrect.png","null"
"image-keyboard-response","308","340960","0.0-4.0-0.96","16","High_HMMActual","129.53500007279217","","","","Images/NewTrialBC.png","39"
"image-keyboard-response","309","341217","0.0-4.0-1.96","16","High_HMMActual","null","","","","Images/WhiteBeadChoice.png","null"
"image-keyboard-response","310","341722","0.0-4.0-2.96","16","High_HMMActual","null","","","","Images/WhiteBeadChoiceCorrect.png","null"
"image-keyboard-response","311","341873","0.0-4.0-0.97","16","High_HMMActual","149.48000002186745","","","","Images/NewTrialWC.png","39"
"image-keyboard-response","312","342129","0.0-4.0-1.97","16","High_HMMActual","null","","","","Images/WhiteBeadChoice.png","null"
"image-keyboard-response","313","342635","0.0-4.0-2.97","16","High_HMMActual","null","","","","Images/WhiteBeadChoiceWrong.png","null"
"image-keyboard-response","314","342880","0.0-4.0-0.98","16","High_HMMActual","243.75999998301268","","","","Images/NewTrialBC.png","39"
"image-keyboard-response","315","343136","0.0-4.0-1.98","16","High_HMMActual","null","","","","Images/WhiteBeadChoice.png","null"
"image-keyboard-response","316","343641","0.0-4.0-2.98","16","High_HMMActual","null","","","","Images/WhiteBeadChoiceCorrect.png","null"
"image-keyboard-response","317","343877","0.0-4.0-0.99","16","High_HMMActual","234.93999999482185","","","","Images/NewTrialWC.png","39"
"image-keyboard-response","318","344133","0.0-4.0-1.99","16","High_HMMActual","null","","","","Images/WhiteBeadChoice.png","null"
"image-keyboard-response","319","344639","0.0-4.0-2.99","16","High_HMMActual","null","","","","Images/WhiteBeadChoiceWrong.png","null"
"image-keyboard-response","320","344936","0.0-4.0-0.100","16","High_HMMActual","296.1050000740215","","","","Images/NewTrialBC.png","39"
"image-keyboard-response","321","345192","0.0-4.0-1.100","16","High_HMMActual","null","","","","Images/WhiteBeadChoice.png","null"
"image-keyboard-response","322","345699","0.0-4.0-2.100","16","High_HMMActual","null","","","","Images/WhiteBeadChoiceCorrect.png","null"
"image-keyboard-response","323","345964","0.0-4.0-0.101","16","High_HMMActual","263.4450000477955","","","","Images/NewTrialWC.png","39"
"image-keyboard-response","324","346218","0.0-4.0-1.101","16","High_HMMActual","null","","","","Images/WhiteBeadChoice.png","null"
"image-keyboard-response","325","346722","0.0-4.0-2.101","16","High_HMMActual","null","","","","Images/WhiteBeadChoiceWrong.png","null"
"image-keyboard-response","326","346831","0.0-4.0-0.102","16","High_HMMActual","107.83499991521239","","","","Images/NewTrialBC.png","39"
"image-keyboard-response","327","347087","0.0-4.0-1.102","16","High_HMMActual","null","","","","Images/WhiteBeadChoice.png","null"
"image-keyboard-response","328","347594","0.0-4.0-2.102","16","High_HMMActual","null","","","","Images/WhiteBeadChoiceCorrect.png","null"
"image-keyboard-response","329","347688","0.0-4.0-0.103","16","High_HMMActual","92.93499996419996","","","","Images/NewTrialWC.png","39"
"image-keyboard-response","330","347944","0.0-4.0-1.103","16","High_HMMActual","null","","","","Images/WhiteBeadChoice.png","null"
"image-keyboard-response","331","348450","0.0-4.0-2.103","16","High_HMMActual","null","","","","Images/WhiteBeadChoiceWrong.png","null"
"image-keyboard-response","332","348701","0.0-4.0-0.104","16","High_HMMActual","249.80500002857298","","","","Images/NewTrialBC.png","39"
"image-keyboard-response","333","348955","0.0-4.0-1.104","16","High_HMMActual","null","","","","Images/WhiteBeadChoice.png","null"
"image-keyboard-response","334","349461","0.0-4.0-2.104","16","High_HMMActual","null","","","","Images/WhiteBeadChoiceCorrect.png","null"
"image-keyboard-response","335","349621","0.0-4.0-0.105","16","High_HMMActual","158.96999998949468","","","","Images/NewTrialWC.png","39"
"image-keyboard-response","336","349877","0.0-4.0-1.105","16","High_HMMActual","null","","","","Images/WhiteBeadChoice.png","null"
"image-keyboard-response","337","350379","0.0-4.0-2.105","16","High_HMMActual","null","","","","Images/WhiteBeadChoiceWrong.png","null"
"image-keyboard-response","338","350520","0.0-4.0-0.106","16","High_HMMActual","139.96000005863607","","","","Images/NewTrialBC.png","37"
"image-keyboard-response","339","350774","0.0-4.0-1.106","16","High_HMMActual","null","","","","Images/BlackBeadChoice.png","null"
"image-keyboard-response","340","351280","0.0-4.0-2.106","16","High_HMMActual","null","","","","Images/BlackBeadChoiceWrong.png","null"
"image-keyboard-response","341","351437","0.0-4.0-0.107","16","High_HMMActual","155.74499999638647","","","","Images/NewTrialWC.png","37"
"image-keyboard-response","342","351690","0.0-4.0-1.107","16","High_HMMActual","null","","","","Images/BlackBeadChoice.png","null"
"image-keyboard-response","343","352197","0.0-4.0-2.107","16","High_HMMActual","null","","","","Images/BlackBeadChoiceCorrect.png","null"
"image-keyboard-response","344","352397","0.0-4.0-0.108","16","High_HMMActual","199.32000001426786","","","","Images/NewTrialBC.png","37"
"image-keyboard-response","345","352650","0.0-4.0-1.108","16","High_HMMActual","null","","","","Images/BlackBeadChoice.png","null"
"image-keyboard-response","346","353156","0.0-4.0-2.108","16","High_HMMActual","null","","","","Images/BlackBeadChoiceWrong.png","null"
"image-keyboard-response","347","353304","0.0-4.0-0.109","16","High_HMMActual","146.4449999621138","","","","Images/NewTrialWC.png","37"
"image-keyboard-response","348","353557","0.0-4.0-1.109","16","High_HMMActual","null","","","","Images/BlackBeadChoice.png","null"
"image-keyboard-response","349","354064","0.0-4.0-2.109","16","High_HMMActual","null","","","","Images/BlackBeadChoiceCorrect.png","null"
"image-keyboard-response","350","354271","0.0-4.0-0.110","16","High_HMMActual","206.04499999899417","","","","Images/NewTrialBC.png","37"
"image-keyboard-response","351","354528","0.0-4.0-1.110","16","High_HMMActual","null","","","","Images/BlackBeadChoice.png","null"
"image-keyboard-response","352","355031","0.0-4.0-2.110","16","High_HMMActual","null","","","","Images/BlackBeadChoiceWrong.png","null"
"image-keyboard-response","353","355281","0.0-4.0-0.111","16","High_HMMActual","248.84000001475215","","","","Images/NewTrialWC.png","37"
"image-keyboard-response","354","355535","0.0-4.0-1.111","16","High_HMMActual","null","","","","Images/BlackBeadChoice.png","null"
"image-keyboard-response","355","356042","0.0-4.0-2.111","16","High_HMMActual","null","","","","Images/BlackBeadChoiceWrong.png","null"
"image-keyboard-response","356","356281","0.0-4.0-0.112","16","High_HMMActual","237.73499997332692","","","","Images/NewTrialWC.png","37"
"image-keyboard-response","357","356533","0.0-4.0-1.112","16","High_HMMActual","null","","","","Images/BlackBeadChoice.png","null"
"image-keyboard-response","358","357039","0.0-4.0-2.112","16","High_HMMActual","null","","","","Images/BlackBeadChoiceWrong.png","null"
"image-keyboard-response","359","357376","0.0-4.0-0.113","16","High_HMMActual","335.4700000490993","","","","Images/NewTrialWC.png","37"
"image-keyboard-response","360","357631","0.0-4.0-1.113","16","High_HMMActual","null","","","","Images/BlackBeadChoice.png","null"
"image-keyboard-response","361","358133","0.0-4.0-2.113","16","High_HMMActual","null","","","","Images/BlackBeadChoiceCorrect.png","null"
"image-keyboard-response","362","358393","0.0-4.0-0.114","16","High_HMMActual","258.65500001236796","","","","Images/NewTrialBC.png","37"
"image-keyboard-response","363","358649","0.0-4.0-1.114","16","High_HMMActual","null","","","","Images/BlackBeadChoice.png","null"
"image-keyboard-response","364","359155","0.0-4.0-2.114","16","High_HMMActual","null","","","","Images/BlackBeadChoiceCorrect.png","null"
"image-keyboard-response","365","359271","0.0-4.0-0.115","16","High_HMMActual","114.8099999409169","","","","Images/NewTrialBC.png","37"
"image-keyboard-response","366","359525","0.0-4.0-1.115","16","High_HMMActual","null","","","","Images/BlackBeadChoice.png","null"
"image-keyboard-response","367","360031","0.0-4.0-2.115","16","High_HMMActual","null","","","","Images/BlackBeadChoiceWrong.png","null"
"image-keyboard-response","368","360181","0.0-4.0-0.116","16","High_HMMActual","148.84999999776483","","","","Images/NewTrialWC.png","39"
"image-keyboard-response","369","360437","0.0-4.0-1.116","16","High_HMMActual","null","","","","Images/WhiteBeadChoice.png","null"
"image-keyboard-response","370","360939","0.0-4.0-2.116","16","High_HMMActual","null","","","","Images/WhiteBeadChoiceWrong.png","null"
"image-keyboard-response","371","361064","0.0-4.0-0.117","16","High_HMMActual","124.2950001033023","","","","Images/NewTrialBC.png","39"
"image-keyboard-response","372","361318","0.0-4.0-1.117","16","High_HMMActual","null","","","","Images/WhiteBeadChoice.png","null"
"image-keyboard-response","373","361824","0.0-4.0-2.117","16","High_HMMActual","null","","","","Images/WhiteBeadChoiceCorrect.png","null"
"image-keyboard-response","374","361966","0.0-4.0-0.118","16","High_HMMActual","140.8850000007078","","","","Images/NewTrialWC.png","39"
"image-keyboard-response","375","362222","0.0-4.0-1.118","16","High_HMMActual","null","","","","Images/WhiteBeadChoice.png","null"
"image-keyboard-response","376","362725","0.0-4.0-2.118","16","High_HMMActual","null","","","","Images/WhiteBeadChoiceWrong.png","null"
"image-keyboard-response","377","362824","0.0-4.0-0.119","16","High_HMMActual","98.15500001423061","","","","Images/NewTrialBC.png","39"
"image-keyboard-response","378","363077","0.0-4.0-1.119","16","High_HMMActual","null","","","","Images/WhiteBeadChoice.png","null"
"image-keyboard-response","379","363582","0.0-4.0-2.119","16","High_HMMActual","null","","","","Images/WhiteBeadChoiceCorrect.png","null"
"image-keyboard-response","380","363870","0.0-4.0-0.120","16","High_HMMActual","286.74000001046807","","","","Images/NewTrialWC.png","39"
"image-keyboard-response","381","364123","0.0-4.0-1.120","16","High_HMMActual","null","","","","Images/WhiteBeadChoice.png","null"
"image-keyboard-response","382","364629","0.0-4.0-2.120","16","High_HMMActual","null","","","","Images/WhiteBeadChoiceCorrect.png","null"
"image-keyboard-response","383","364905","0.0-4.0-0.121","16","High_HMMActual","275.1550000393763","","","","Images/NewTrialWC.png","39"
"image-keyboard-response","384","365161","0.0-4.0-1.121","16","High_HMMActual","null","","","","Images/WhiteBeadChoice.png","null"
"image-keyboard-response","385","365663","0.0-4.0-2.121","16","High_HMMActual","null","","","","Images/WhiteBeadChoiceCorrect.png","null"
"image-keyboard-response","386","365911","0.0-4.0-0.122","16","High_HMMActual","246.6699999058619","","","","Images/NewTrialWC.png","39"
"image-keyboard-response","387","366167","0.0-4.0-1.122","16","High_HMMActual","null","","","","Images/WhiteBeadChoice.png","null"
"image-keyboard-response","388","366671","0.0-4.0-2.122","16","High_HMMActual","null","","","","Images/WhiteBeadChoiceWrong.png","null"
"image-keyboard-response","389","366935","0.0-4.0-0.123","16","High_HMMActual","263.3899999782443","","","","Images/NewTrialBC.png","39"
"image-keyboard-response","390","367189","0.0-4.0-1.123","16","High_HMMActual","null","","","","Images/WhiteBeadChoice.png","null"
"image-keyboard-response","391","367695","0.0-4.0-2.123","16","High_HMMActual","null","","","","Images/WhiteBeadChoiceCorrect.png","null"
"image-keyboard-response","392","367874","0.0-4.0-0.124","16","High_HMMActual","177.31500009540468","","","","Images/NewTrialWC.png","39"
"image-keyboard-response","393","368128","0.0-4.0-1.124","16","High_HMMActual","null","","","","Images/WhiteBeadChoice.png","null"
"image-keyboard-response","394","368634","0.0-4.0-2.124","16","High_HMMActual","null","","","","Images/WhiteBeadChoiceWrong.png","null"
"image-keyboard-response","395","368865","0.0-4.0-0.125","16","High_HMMActual","229.7450000187382","","","","Images/NewTrialBC.png","39"
"image-keyboard-response","396","369119","0.0-4.0-1.125","16","High_HMMActual","null","","","","Images/WhiteBeadChoice.png","null"
"image-keyboard-response","397","369621","0.0-4.0-2.125","16","High_HMMActual","null","","","","Images/WhiteBeadChoiceWrong.png","null"
"image-keyboard-response","398","369949","0.0-4.0-0.126","16","High_HMMActual","327.02500000596046","","","","Images/NewTrialBC.png","37"
"image-keyboard-response","399","370203","0.0-4.0-1.126","16","High_HMMActual","null","","","","Images/BlackBeadChoice.png","null"
"image-keyboard-response","400","370709","0.0-4.0-2.126","16","High_HMMActual","null","","","","Images/BlackBeadChoiceWrong.png","null"
"image-keyboard-response","401","370904","0.0-4.0-0.127","16","High_HMMActual","193.48000001627952","","","","Images/NewTrialWC.png","37"
"image-keyboard-response","402","371157","0.0-4.0-1.127","16","High_HMMActual","null","","","","Images/BlackBeadChoice.png","null"
"image-keyboard-response","403","371659","0.0-4.0-2.127","16","High_HMMActual","null","","","","Images/BlackBeadChoiceCorrect.png","null"
"image-keyboard-response","404","371927","0.0-4.0-0.128","16","High_HMMActual","266.9300000416115","","","","Images/NewTrialBC.png","37"
"image-keyboard-response","405","372181","0.0-4.0-1.128","16","High_HMMActual","null","","","","Images/BlackBeadChoice.png","null"
"image-keyboard-response","406","372683","0.0-4.0-2.128","16","High_HMMActual","null","","","","Images/BlackBeadChoiceWrong.png","null"
"image-keyboard-response","407","372955","0.0-4.0-0.129","16","High_HMMActual","270.7300001056865","","","","Images/NewTrialWC.png","37"
"image-keyboard-response","408","373206","0.0-4.0-1.129","16","High_HMMActual","null","","","","Images/BlackBeadChoice.png","null"
"image-keyboard-response","409","373710","0.0-4.0-2.129","16","High_HMMActual","null","","","","Images/BlackBeadChoiceCorrect.png","null"
"image-keyboard-response","410","374002","0.0-4.0-0.130","16","High_HMMActual","290.4449999332428","","","","Images/NewTrialBC.png","37"
"image-keyboard-response","411","374256","0.0-4.0-1.130","16","High_HMMActual","null","","","","Images/BlackBeadChoice.png","null"
"image-keyboard-response","412","374760","0.0-4.0-2.130","16","High_HMMActual","null","","","","Images/BlackBeadChoiceWrong.png","null"
"image-keyboard-response","413","374960","0.0-4.0-0.131","16","High_HMMActual","198.28999997116625","","","","Images/NewTrialWC.png","37"
"image-keyboard-response","414","375213","0.0-4.0-1.131","16","High_HMMActual","null","","","","Images/BlackBeadChoice.png","null"
"image-keyboard-response","415","375719","0.0-4.0-2.131","16","High_HMMActual","null","","","","Images/BlackBeadChoiceCorrect.png","null"
"image-keyboard-response","416","376000","0.0-4.0-0.132","16","High_HMMActual","279.16999999433756","","","","Images/NewTrialBC.png","37"
"image-keyboard-response","417","376256","0.0-4.0-1.132","16","High_HMMActual","null","","","","Images/BlackBeadChoice.png","null"
"image-keyboard-response","418","376762","0.0-4.0-2.132","16","High_HMMActual","null","","","","Images/BlackBeadChoiceWrong.png","null"
"image-keyboard-response","419","377027","0.0-4.0-0.133","16","High_HMMActual","263.96499993279576","","","","Images/NewTrialWC.png","37"
"image-keyboard-response","420","377283","0.0-4.0-1.133","16","High_HMMActual","null","","","","Images/BlackBeadChoice.png","null"
"image-keyboard-response","421","377786","0.0-4.0-2.133","16","High_HMMActual","null","","","","Images/BlackBeadChoiceWrong.png","null"
"image-keyboard-response","422","378030","0.0-4.0-0.134","16","High_HMMActual","242.2800000058487","","","","Images/NewTrialWC.png","37"
"image-keyboard-response","423","378283","0.0-4.0-1.134","16","High_HMMActual","null","","","","Images/BlackBeadChoice.png","null"
"image-keyboard-response","424","378789","0.0-4.0-2.134","16","High_HMMActual","null","","","","Images/BlackBeadChoiceWrong.png","null"
"image-keyboard-response","425","379107","0.0-4.0-0.135","16","High_HMMActual","316.16499996744096","","","","Images/NewTrialWC.png","37"
"image-keyboard-response","426","379362","0.0-4.0-1.135","16","High_HMMActual","null","","","","Images/BlackBeadChoice.png","null"
"image-keyboard-response","427","379865","0.0-4.0-2.135","16","High_HMMActual","null","","","","Images/BlackBeadChoiceCorrect.png","null"
"image-keyboard-response","428","380110","0.0-4.0-0.136","16","High_HMMActual","243.0400000885129","","","","Images/NewTrialBC.png","39"
"image-keyboard-response","429","380366","0.0-4.0-1.136","16","High_HMMActual","null","","","","Images/WhiteBeadChoice.png","null"
"image-keyboard-response","430","380870","0.0-4.0-2.136","16","High_HMMActual","null","","","","Images/WhiteBeadChoiceCorrect.png","null"
"image-keyboard-response","431","381159","0.0-4.0-0.137","16","High_HMMActual","287.4799999408424","","","","Images/NewTrialWC.png","39"
"image-keyboard-response","432","381415","0.0-4.0-1.137","16","High_HMMActual","null","","","","Images/WhiteBeadChoice.png","null"
"image-keyboard-response","433","381921","0.0-4.0-2.137","16","High_HMMActual","null","","","","Images/WhiteBeadChoiceWrong.png","null"
"image-keyboard-response","434","382203","0.0-4.0-0.138","16","High_HMMActual","280.2849999861792","","","","Images/NewTrialBC.png","39"
"image-keyboard-response","435","382454","0.0-4.0-1.138","16","High_HMMActual","null","","","","Images/WhiteBeadChoice.png","null"
"image-keyboard-response","436","382955","0.0-4.0-2.138","16","High_HMMActual","null","","","","Images/WhiteBeadChoiceCorrect.png","null"
"image-keyboard-response","437","383241","0.0-4.0-0.139","16","High_HMMActual","285.2850001072511","","","","Images/NewTrialWC.png","39"
"image-keyboard-response","438","383493","0.0-4.0-1.139","16","High_HMMActual","null","","","","Images/WhiteBeadChoice.png","null"
"image-keyboard-response","439","383995","0.0-4.0-2.139","16","High_HMMActual","null","","","","Images/WhiteBeadChoiceWrong.png","null"
"image-keyboard-response","440","384297","0.0-4.0-0.140","16","High_HMMActual","300.34499999601394","","","","Images/NewTrialBC.png","39"
"image-keyboard-response","441","384549","0.0-4.0-1.140","16","High_HMMActual","null","","","","Images/WhiteBeadChoice.png","null"
"image-keyboard-response","442","385056","0.0-4.0-2.140","16","High_HMMActual","null","","","","Images/WhiteBeadChoiceCorrect.png","null"
"image-keyboard-response","443","385346","0.0-4.0-0.141","16","High_HMMActual","289.34499993920326","","","","Images/NewTrialWC.png","39"
"image-keyboard-response","444","385600","0.0-4.0-1.141","16","High_HMMActual","null","","","","Images/WhiteBeadChoice.png","null"
"image-keyboard-response","445","386106","0.0-4.0-2.141","16","High_HMMActual","null","","","","Images/WhiteBeadChoiceWrong.png","null"
"image-keyboard-response","446","386353","0.0-4.0-0.142","16","High_HMMActual","245.1349999755621","","","","Images/NewTrialBC.png","39"
"image-keyboard-response","447","386608","0.0-4.0-1.142","16","High_HMMActual","null","","","","Images/WhiteBeadChoice.png","null"
"image-keyboard-response","448","387115","0.0-4.0-2.142","16","High_HMMActual","null","","","","Images/WhiteBeadChoiceWrong.png","null"
"image-keyboard-response","449","387406","0.0-4.0-0.143","16","High_HMMActual","290.12999997939914","","","","Images/NewTrialBC.png","39"
"image-keyboard-response","450","387662","0.0-4.0-1.143","16","High_HMMActual","null","","","","Images/WhiteBeadChoice.png","null"
"image-keyboard-response","451","388167","0.0-4.0-2.143","16","High_HMMActual","null","","","","Images/WhiteBeadChoiceWrong.png","null"
"image-keyboard-response","452","388347","0.0-4.0-0.144","16","High_HMMActual","178.2999999122694","","","","Images/NewTrialBC.png","39"
"image-keyboard-response","453","388598","0.0-4.0-1.144","16","High_HMMActual","null","","","","Images/WhiteBeadChoice.png","null"
"image-keyboard-response","454","389099","0.0-4.0-2.144","16","High_HMMActual","null","","","","Images/WhiteBeadChoiceCorrect.png","null"
"image-keyboard-response","455","389288","0.0-4.0-0.145","16","High_HMMActual","187.25499999709427","","","","Images/NewTrialWC.png","39"
"image-keyboard-response","456","389544","0.0-4.0-1.145","16","High_HMMActual","null","","","","Images/WhiteBeadChoice.png","null"
"image-keyboard-response","457","390050","0.0-4.0-2.145","16","High_HMMActual","null","","","","Images/WhiteBeadChoiceWrong.png","null"
"image-keyboard-response","458","390532","0.0-4.0-0.146","16","High_HMMActual","480.30000005383044","","","","Images/NewTrialBC.png","37"
"image-keyboard-response","459","390784","0.0-4.0-1.146","16","High_HMMActual","null","","","","Images/BlackBeadChoice.png","null"
"image-keyboard-response","460","391290","0.0-4.0-2.146","16","High_HMMActual","null","","","","Images/BlackBeadChoiceCorrect.png","null"
"image-keyboard-response","461","391560","0.0-4.0-0.147","16","High_HMMActual","269.1399999894202","","","","Images/NewTrialBC.png","37"
"image-keyboard-response","462","391813","0.0-4.0-1.147","16","High_HMMActual","null","","","","Images/BlackBeadChoice.png","null"
"image-keyboard-response","463","392316","0.0-4.0-2.147","16","High_HMMActual","null","","","","Images/BlackBeadChoiceCorrect.png","null"
"image-keyboard-response","464","392621","0.0-4.0-0.148","16","High_HMMActual","303.5150000359863","","","","Images/NewTrialBC.png","37"
"image-keyboard-response","465","392877","0.0-4.0-1.148","16","High_HMMActual","null","","","","Images/BlackBeadChoice.png","null"
"image-keyboard-response","466","393383","0.0-4.0-2.148","16","High_HMMActual","null","","","","Images/BlackBeadChoiceWrong.png","null"
"image-keyboard-response","467","393668","0.0-4.0-0.149","16","High_HMMActual","283.8950000004843","","","","Images/NewTrialWC.png","37"
"image-keyboard-response","468","393920","0.0-4.0-1.149","16","High_HMMActual","null","","","","Images/BlackBeadChoice.png","null"
"image-keyboard-response","469","394422","0.0-4.0-2.149","16","High_HMMActual","null","","","","Images/BlackBeadChoiceWrong.png","null"
"image-keyboard-response","470","394769","0.0-4.0-0.150","16","High_HMMActual","345.44499998446554","","","","Images/NewTrialWC.png","37"
"image-keyboard-response","471","395024","0.0-4.0-1.150","16","High_HMMActual","null","","","","Images/BlackBeadChoice.png","null"
"image-keyboard-response","472","395531","0.0-4.0-2.150","16","High_HMMActual","null","","","","Images/BlackBeadChoiceCorrect.png","null"
"image-keyboard-response","473","395938","0.0-4.0-0.151","16","High_HMMActual","406.2400000402704","","","","Images/NewTrialBC.png","37"
"image-keyboard-response","474","396194","0.0-4.0-1.151","16","High_HMMActual","null","","","","Images/BlackBeadChoice.png","null"
"image-keyboard-response","475","396699","0.0-4.0-2.151","16","High_HMMActual","null","","","","Images/BlackBeadChoiceCorrect.png","null"
"image-keyboard-response","476","397092","0.0-4.0-0.152","16","High_HMMActual","392.3900000518188","","","","Images/NewTrialBC.png","37"
"image-keyboard-response","477","397344","0.0-4.0-1.152","16","High_HMMActual","null","","","","Images/BlackBeadChoice.png","null"
"image-keyboard-response","478","397848","0.0-4.0-2.152","16","High_HMMActual","null","","","","Images/BlackBeadChoiceWrong.png","null"
"image-keyboard-response","479","398273","0.0-4.0-0.153","16","High_HMMActual","423.9349999697879","","","","Images/NewTrialWC.png","37"
"image-keyboard-response","480","398528","0.0-4.0-1.153","16","High_HMMActual","null","","","","Images/BlackBeadChoice.png","null"
"image-keyboard-response","481","399029","0.0-4.0-2.153","16","High_HMMActual","null","","","","Images/BlackBeadChoiceCorrect.png","null"
"image-keyboard-response","482","399483","0.0-4.0-0.154","16","High_HMMActual","452.1700000623241","","","","Images/NewTrialBC.png","37"
"image-keyboard-response","483","399734","0.0-4.0-1.154","16","High_HMMActual","null","","","","Images/BlackBeadChoice.png","null"
"image-keyboard-response","484","400240","0.0-4.0-2.154","16","High_HMMActual","null","","","","Images/BlackBeadChoiceCorrect.png","null"
"image-keyboard-response","485","400554","0.0-4.0-0.155","16","High_HMMActual","313.51500004529953","","","","Images/NewTrialBC.png","37"
"image-keyboard-response","486","400810","0.0-4.0-1.155","16","High_HMMActual","null","","","","Images/BlackBeadChoice.png","null"
"image-keyboard-response","487","401313","0.0-4.0-2.155","16","High_HMMActual","null","","","","Images/BlackBeadChoiceWrong.png","null"
"image-keyboard-response","488","401774","0.0-4.0-0.156","16","High_HMMActual","460.54999995976686","","","","Images/NewTrialWC.png","39"
"image-keyboard-response","489","402027","0.0-4.0-1.156","16","High_HMMActual","null","","","","Images/WhiteBeadChoice.png","null"
"image-keyboard-response","490","402529","0.0-4.0-2.156","16","High_HMMActual","null","","","","Images/WhiteBeadChoiceCorrect.png","null"
"image-keyboard-response","491","402889","0.0-4.0-0.157","16","High_HMMActual","359.3150000087917","","","","Images/NewTrialWC.png","39"
"image-keyboard-response","492","403141","0.0-4.0-1.157","16","High_HMMActual","null","","","","Images/WhiteBeadChoice.png","null"
"image-keyboard-response","493","403643","0.0-4.0-2.157","16","High_HMMActual","null","","","","Images/WhiteBeadChoiceCorrect.png","null"
"image-keyboard-response","494","403912","0.0-4.0-0.158","16","High_HMMActual","267.68000004813075","","","","Images/NewTrialWC.png","39"
"image-keyboard-response","495","404165","0.0-4.0-1.158","16","High_HMMActual","null","","","","Images/WhiteBeadChoice.png","null"
"image-keyboard-response","496","404667","0.0-4.0-2.158","16","High_HMMActual","null","","","","Images/WhiteBeadChoiceWrong.png","null"
"image-keyboard-response","497","404939","0.0-4.0-0.159","16","High_HMMActual","271.3450000155717","","","","Images/NewTrialBC.png","39"
"image-keyboard-response","498","405195","0.0-4.0-1.159","16","High_HMMActual","null","","","","Images/WhiteBeadChoice.png","null"
"image-keyboard-response","499","405702","0.0-4.0-2.159","16","High_HMMActual","null","","","","Images/WhiteBeadChoiceCorrect.png","null"
"image-keyboard-response","500","405997","0.0-4.0-0.160","16","High_HMMActual","294.5049999980256","","","","Images/NewTrialWC.png","39"
"image-keyboard-response","501","406252","0.0-4.0-1.160","16","High_HMMActual","null","","","","Images/WhiteBeadChoice.png","null"
"image-keyboard-response","502","406758","0.0-4.0-2.160","16","High_HMMActual","null","","","","Images/WhiteBeadChoiceCorrect.png","null"
"image-keyboard-response","503","407074","0.0-4.0-0.161","16","High_HMMActual","315.03499997779727","","","","Images/NewTrialWC.png","39"
"image-keyboard-response","504","407329","0.0-4.0-1.161","16","High_HMMActual","null","","","","Images/WhiteBeadChoice.png","null"
"image-keyboard-response","505","407835","0.0-4.0-2.161","16","High_HMMActual","null","","","","Images/WhiteBeadChoiceCorrect.png","null"
"image-keyboard-response","506","408030","0.0-4.0-0.162","16","High_HMMActual","193.46500001847744","","","","Images/NewTrialWC.png","39"
"image-keyboard-response","507","408284","0.0-4.0-1.162","16","High_HMMActual","null","","","","Images/WhiteBeadChoice.png","null"
"image-keyboard-response","508","408790","0.0-4.0-2.162","16","High_HMMActual","null","","","","Images/WhiteBeadChoiceWrong.png","null"
"image-keyboard-response","509","409079","0.0-4.0-0.163","16","High_HMMActual","287.804999970831","","","","Images/NewTrialBC.png","39"
"image-keyboard-response","510","409334","0.0-4.0-1.163","16","High_HMMActual","null","","","","Images/WhiteBeadChoice.png","null"
"image-keyboard-response","511","409836","0.0-4.0-2.163","16","High_HMMActual","null","","","","Images/WhiteBeadChoiceCorrect.png","null"
"image-keyboard-response","512","410049","0.0-4.0-0.164","16","High_HMMActual","212.40999992005527","","","","Images/NewTrialWC.png","39"
"image-keyboard-response","513","410305","0.0-4.0-1.164","16","High_HMMActual","null","","","","Images/WhiteBeadChoice.png","null"
"image-keyboard-response","514","410811","0.0-4.0-2.164","16","High_HMMActual","null","","","","Images/WhiteBeadChoiceWrong.png","null"
"image-keyboard-response","515","411062","0.0-4.0-0.165","16","High_HMMActual","249.3549999780953","","","","Images/NewTrialBC.png","39"
"image-keyboard-response","516","411315","0.0-4.0-1.165","16","High_HMMActual","null","","","","Images/WhiteBeadChoice.png","null"
"image-keyboard-response","517","411819","0.0-4.0-2.165","16","High_HMMActual","null","","","","Images/WhiteBeadChoiceCorrect.png","null"
"image-keyboard-response","518","412679","0.0-4.0-0.166","16","High_HMMActual","858.7250000564381","","","","Images/NewTrialWC.png","37"
"image-keyboard-response","519","412933","0.0-4.0-1.166","16","High_HMMActual","null","","","","Images/BlackBeadChoice.png","null"
"image-keyboard-response","520","413436","0.0-4.0-2.166","16","High_HMMActual","null","","","","Images/BlackBeadChoiceCorrect.png","null"
"image-keyboard-response","521","413566","0.0-4.0-0.167","16","High_HMMActual","129.5799999497831","","","","Images/NewTrialBC.png","37"
"image-keyboard-response","522","413820","0.0-4.0-1.167","16","High_HMMActual","null","","","","Images/BlackBeadChoice.png","null"
"image-keyboard-response","523","414323","0.0-4.0-2.167","16","High_HMMActual","null","","","","Images/BlackBeadChoiceWrong.png","null"
"image-keyboard-response","524","414652","0.0-4.0-0.168","16","High_HMMActual","328.02999997511506","","","","Images/NewTrialWC.png","37"
"image-keyboard-response","525","414907","0.0-4.0-1.168","16","High_HMMActual","null","","","","Images/BlackBeadChoice.png","null"
"image-keyboard-response","526","415414","0.0-4.0-2.168","16","High_HMMActual","null","","","","Images/BlackBeadChoiceCorrect.png","null"
"image-keyboard-response","527","415691","0.0-4.0-0.169","16","High_HMMActual","276.3099999865517","","","","Images/NewTrialBC.png","37"
"image-keyboard-response","528","415945","0.0-4.0-1.169","16","High_HMMActual","null","","","","Images/BlackBeadChoice.png","null"
"image-keyboard-response","529","416448","0.0-4.0-2.169","16","High_HMMActual","null","","","","Images/BlackBeadChoiceCorrect.png","null"
"image-keyboard-response","530","416804","0.0-4.0-0.170","16","High_HMMActual","354.14499999023974","","","","Images/NewTrialBC.png","37"
"image-keyboard-response","531","417060","0.0-4.0-1.170","16","High_HMMActual","null","","","","Images/BlackBeadChoice.png","null"
"image-keyboard-response","532","417561","0.0-4.0-2.170","16","High_HMMActual","null","","","","Images/BlackBeadChoiceCorrect.png","null"
"image-keyboard-response","533","417875","0.0-4.0-0.171","16","High_HMMActual","312.83000006806105","","","","Images/NewTrialBC.png","37"
"image-keyboard-response","534","418127","0.0-4.0-1.171","16","High_HMMActual","null","","","","Images/BlackBeadChoice.png","null"
"image-keyboard-response","535","418629","0.0-4.0-2.171","16","High_HMMActual","null","","","","Images/BlackBeadChoiceWrong.png","null"
"image-keyboard-response","536","418865","0.0-4.0-0.172","16","High_HMMActual","234.62499992456287","","","","Images/NewTrialWC.png","37"
"image-keyboard-response","537","419116","0.0-4.0-1.172","16","High_HMMActual","null","","","","Images/BlackBeadChoice.png","null"
"image-keyboard-response","538","419617","0.0-4.0-2.172","16","High_HMMActual","null","","","","Images/BlackBeadChoiceWrong.png","null"
"image-keyboard-response","539","420032","0.0-4.0-0.173","16","High_HMMActual","413.01999997813255","","","","Images/NewTrialWC.png","37"
"image-keyboard-response","540","420283","0.0-4.0-1.173","16","High_HMMActual","null","","","","Images/BlackBeadChoice.png","null"
"image-keyboard-response","541","420790","0.0-4.0-2.173","16","High_HMMActual","null","","","","Images/BlackBeadChoiceWrong.png","null"
"image-keyboard-response","542","420985","0.0-4.0-0.174","16","High_HMMActual","194.00999997742474","","","","Images/NewTrialWC.png","37"
"image-keyboard-response","543","421241","0.0-4.0-1.174","16","High_HMMActual","null","","","","Images/BlackBeadChoice.png","null"
"image-keyboard-response","544","421744","0.0-4.0-2.174","16","High_HMMActual","null","","","","Images/BlackBeadChoiceCorrect.png","null"
"image-keyboard-response","545","421954","0.0-4.0-0.175","16","High_HMMActual","208.56500009540468","","","","Images/NewTrialBC.png","37"
"image-keyboard-response","546","422205","0.0-4.0-1.175","16","High_HMMActual","null","","","","Images/BlackBeadChoice.png","null"
"image-keyboard-response","547","422710","0.0-4.0-2.175","16","High_HMMActual","null","","","","Images/BlackBeadChoiceWrong.png","null"
"image-keyboard-response","548","423013","0.0-4.0-0.176","16","High_HMMActual","301.355000003241","","","","Images/NewTrialWC.png","39"
"image-keyboard-response","549","423264","0.0-4.0-1.176","16","High_HMMActual","null","","","","Images/WhiteBeadChoice.png","null"
"image-keyboard-response","550","423771","0.0-4.0-2.176","16","High_HMMActual","null","","","","Images/WhiteBeadChoiceWrong.png","null"
"image-keyboard-response","551","423847","0.0-4.0-0.177","16","High_HMMActual","74.38499992713332","","","","Images/NewTrialBC.png","39"
"image-keyboard-response","552","424102","0.0-4.0-1.177","16","High_HMMActual","null","","","","Images/WhiteBeadChoice.png","null"
"image-keyboard-response","553","424609","0.0-4.0-2.177","16","High_HMMActual","null","","","","Images/WhiteBeadChoiceWrong.png","null"
"image-keyboard-response","554","424675","0.0-4.0-0.178","16","High_HMMActual","64.99999994412065","","","","Images/NewTrialBC.png","39"
"image-keyboard-response","555","424931","0.0-4.0-1.178","16","High_HMMActual","null","","","","Images/WhiteBeadChoice.png","null"
"image-keyboard-response","556","425438","0.0-4.0-2.178","16","High_HMMActual","null","","","","Images/WhiteBeadChoiceCorrect.png","null"
"image-keyboard-response","557","425638","0.0-4.0-0.179","16","High_HMMActual","199.19499999377877","","","","Images/NewTrialWC.png","39"
"image-keyboard-response","558","425889","0.0-4.0-1.179","16","High_HMMActual","null","","","","Images/WhiteBeadChoice.png","null"
"image-keyboard-response","559","426393","0.0-4.0-2.179","16","High_HMMActual","null","","","","Images/WhiteBeadChoiceCorrect.png","null"
"image-keyboard-response","560","426494","0.0-4.0-0.180","16","High_HMMActual","99.7799999313429","","","","Images/NewTrialWC.png","39"
"image-keyboard-response","561","426748","0.0-4.0-1.180","16","High_HMMActual","null","","","","Images/WhiteBeadChoice.png","null"
"image-keyboard-response","562","427254","0.0-4.0-2.180","16","High_HMMActual","null","","","","Images/WhiteBeadChoiceWrong.png","null"
"image-keyboard-response","563","427458","0.0-4.0-0.181","16","High_HMMActual","202.28999992832541","","","","Images/NewTrialBC.png","39"
"image-keyboard-response","564","427714","0.0-4.0-1.181","16","High_HMMActual","null","","","","Images/WhiteBeadChoice.png","null"
"image-keyboard-response","565","428219","0.0-4.0-2.181","16","High_HMMActual","null","","","","Images/WhiteBeadChoiceCorrect.png","null"
"image-keyboard-response","566","428322","0.0-4.0-0.182","16","High_HMMActual","101.29999998025596","","","","Images/NewTrialWC.png","39"
"image-keyboard-response","567","428573","0.0-4.0-1.182","16","High_HMMActual","null","","","","Images/WhiteBeadChoice.png","null"
"image-keyboard-response","568","429078","0.0-4.0-2.182","16","High_HMMActual","null","","","","Images/WhiteBeadChoiceWrong.png","null"
"image-keyboard-response","569","429291","0.0-4.0-0.183","16","High_HMMActual","212.1849999530241","","","","Images/NewTrialBC.png","39"
"image-keyboard-response","570","429544","0.0-4.0-1.183","16","High_HMMActual","null","","","","Images/WhiteBeadChoice.png","null"
"image-keyboard-response","571","430051","0.0-4.0-2.183","16","High_HMMActual","null","","","","Images/WhiteBeadChoiceCorrect.png","null"
"image-keyboard-response","572","430345","0.0-4.0-0.184","16","High_HMMActual","293.7099999981001","","","","Images/NewTrialWC.png","39"
"image-keyboard-response","573","430596","0.0-4.0-1.184","16","High_HMMActual","null","","","","Images/WhiteBeadChoice.png","null"
"image-keyboard-response","574","431099","0.0-4.0-2.184","16","High_HMMActual","null","","","","Images/WhiteBeadChoiceCorrect.png","null"
"image-keyboard-response","575","431383","0.0-4.0-0.185","16","High_HMMActual","282.355000032112","","","","Images/NewTrialWC.png","39"
"image-keyboard-response","576","431639","0.0-4.0-1.185","16","High_HMMActual","null","","","","Images/WhiteBeadChoice.png","null"
"image-keyboard-response","577","432145","0.0-4.0-2.185","16","High_HMMActual","null","","","","Images/WhiteBeadChoiceCorrect.png","null"
"image-keyboard-response","578","432438","0.0-4.0-0.186","16","High_HMMActual","291.8350000400096","","","","Images/NewTrialWC.png","37"
"image-keyboard-response","579","432689","0.0-4.0-1.186","16","High_HMMActual","null","","","","Images/BlackBeadChoice.png","null"
"image-keyboard-response","580","433195","0.0-4.0-2.186","16","High_HMMActual","null","","","","Images/BlackBeadChoiceWrong.png","null"
"image-keyboard-response","581","433479","0.0-4.0-0.187","16","High_HMMActual","282.0700000738725","","","","Images/NewTrialWC.png","37"
"image-keyboard-response","582","433731","0.0-4.0-1.187","16","High_HMMActual","null","","","","Images/BlackBeadChoice.png","null"
"image-keyboard-response","583","434235","0.0-4.0-2.187","16","High_HMMActual","null","","","","Images/BlackBeadChoiceWrong.png","null"
"image-keyboard-response","584","434554","0.0-4.0-0.188","16","High_HMMActual","317.85500003024936","","","","Images/NewTrialWC.png","37"
"image-keyboard-response","585","434810","0.0-4.0-1.188","16","High_HMMActual","null","","","","Images/BlackBeadChoice.png","null"
"image-keyboard-response","586","435313","0.0-4.0-2.188","16","High_HMMActual","null","","","","Images/BlackBeadChoiceCorrect.png","null"
"image-keyboard-response","587","435511","0.0-4.0-0.189","16","High_HMMActual","196.9200000166893","","","","Images/NewTrialBC.png","37"
"image-keyboard-response","588","435766","0.0-4.0-1.189","16","High_HMMActual","null","","","","Images/BlackBeadChoice.png","null"
"image-keyboard-response","589","436272","0.0-4.0-2.189","16","High_HMMActual","null","","","","Images/BlackBeadChoiceWrong.png","null"
"image-keyboard-response","590","436503","0.0-4.0-0.190","16","High_HMMActual","230.51999998278916","","","","Images/NewTrialWC.png","37"
"image-keyboard-response","591","436758","0.0-4.0-1.190","16","High_HMMActual","null","","","","Images/BlackBeadChoice.png","null"
"image-keyboard-response","592","437262","0.0-4.0-2.190","16","High_HMMActual","null","","","","Images/BlackBeadChoiceCorrect.png","null"
"image-keyboard-response","593","437528","0.0-4.0-0.191","16","High_HMMActual","264.41499998327345","","","","Images/NewTrialBC.png","37"
"image-keyboard-response","594","437782","0.0-4.0-1.191","16","High_HMMActual","null","","","","Images/BlackBeadChoice.png","null"
"image-keyboard-response","595","438288","0.0-4.0-2.191","16","High_HMMActual","null","","","","Images/BlackBeadChoiceWrong.png","null"
"image-keyboard-response","596","438439","0.0-4.0-0.192","16","High_HMMActual","149.87000008113682","","","","Images/NewTrialWC.png","37"
"image-keyboard-response","597","438694","0.0-4.0-1.192","16","High_HMMActual","null","","","","Images/BlackBeadChoice.png","null"
"image-keyboard-response","598","439195","0.0-4.0-2.192","16","High_HMMActual","null","","","","Images/BlackBeadChoiceWrong.png","null"
"image-keyboard-response","599","439294","0.0-4.0-0.193","16","High_HMMActual","98.20500004570931","","","","Images/NewTrialWC.png","37"
"image-keyboard-response","600","439547","0.0-4.0-1.193","16","High_HMMActual","null","","","","Images/BlackBeadChoice.png","null"
"image-keyboard-response","601","440053","0.0-4.0-2.193","16","High_HMMActual","null","","","","Images/BlackBeadChoiceCorrect.png","null"
"image-keyboard-response","602","440302","0.0-4.0-0.194","16","High_HMMActual","247.8899999987334","","","","Images/NewTrialBC.png","37"
"image-keyboard-response","603","440558","0.0-4.0-1.194","16","High_HMMActual","null","","","","Images/BlackBeadChoice.png","null"
"image-keyboard-response","604","441062","0.0-4.0-2.194","16","High_HMMActual","null","","","","Images/BlackBeadChoiceWrong.png","null"
"image-keyboard-response","605","441363","0.0-4.0-0.195","16","High_HMMActual","300.37999991327524","","","","Images/NewTrialWC.png","37"
"image-keyboard-response","606","441617","0.0-4.0-1.195","16","High_HMMActual","null","","","","Images/BlackBeadChoice.png","null"
"image-keyboard-response","607","442118","0.0-4.0-2.195","16","High_HMMActual","null","","","","Images/BlackBeadChoiceCorrect.png","null"
"image-keyboard-response","608","455357","0.0-4.0-0.196","16","High_HMMActual","13236.24999995809","","","","Images/NewTrialBC.png","37"
"image-keyboard-response","609","455611","0.0-4.0-1.196","16","High_HMMActual","null","","","","Images/BlackBeadChoice.png","null"
"image-keyboard-response","610","456113","0.0-4.0-2.196","16","High_HMMActual","null","","","","Images/BlackBeadChoiceCorrect.png","null"
"image-keyboard-response","611","456182","0.0-4.0-0.197","16","High_HMMActual","67.9250000976026","","","","Images/NewTrialBC.png","37"
"image-keyboard-response","612","456436","0.0-4.0-1.197","16","High_HMMActual","null","","","","Images/BlackBeadChoice.png","null"
"image-keyboard-response","613","456938","0.0-4.0-2.197","16","High_HMMActual","null","","","","Images/BlackBeadChoiceWrong.png","null"
"image-keyboard-response","614","457134","0.0-4.0-0.198","16","High_HMMActual","194.9449999956414","","","","Images/NewTrialWC.png","37"
"image-keyboard-response","615","457386","0.0-4.0-1.198","16","High_HMMActual","null","","","","Images/BlackBeadChoice.png","null"
"image-keyboard-response","616","457889","0.0-4.0-2.198","16","High_HMMActual","null","","","","Images/BlackBeadChoiceCorrect.png","null"
"image-keyboard-response","617","458065","0.0-4.0-0.199","16","High_HMMActual","174.9650000128895","","","","Images/NewTrialBC.png","37"
"image-keyboard-response","618","458319","0.0-4.0-1.199","16","High_HMMActual","null","","","","Images/BlackBeadChoice.png","null"
"image-keyboard-response","619","458825","0.0-4.0-2.199","16","High_HMMActual","null","","","","Images/BlackBeadChoiceWrong.png","null"
"image-keyboard-response","620","458997","0.0-4.0-0.200","16","High_HMMActual","171.4800000190735","","","","Images/NewTrialWC.png","37"
"image-keyboard-response","621","459249","0.0-4.0-1.200","16","High_HMMActual","null","","","","Images/BlackBeadChoice.png","null"
"image-keyboard-response","622","459750","0.0-4.0-2.200","16","High_HMMActual","null","","","","Images/BlackBeadChoiceCorrect.png","null"
"image-keyboard-response","623","459932","0.0-4.0-0.201","16","High_HMMActual","181.54499994125217","","","","Images/NewTrialBC.png","37"
"image-keyboard-response","624","460184","0.0-4.0-1.201","16","High_HMMActual","null","","","","Images/BlackBeadChoice.png","null"
"image-keyboard-response","625","460690","0.0-4.0-2.201","16","High_HMMActual","null","","","","Images/BlackBeadChoiceWrong.png","null"
"image-keyboard-response","626","460857","0.0-4.0-0.202","16","High_HMMActual","165.4949999647215","","","","Images/NewTrialWC.png","37"
"image-keyboard-response","627","461110","0.0-4.0-1.202","16","High_HMMActual","null","","","","Images/BlackBeadChoice.png","null"
"image-keyboard-response","628","461615","0.0-4.0-2.202","16","High_HMMActual","null","","","","Images/BlackBeadChoiceCorrect.png","null"
"image-keyboard-response","629","461832","0.0-4.0-0.203","16","High_HMMActual","215.7199999783188","","","","Images/NewTrialBC.png","37"
"image-keyboard-response","630","462084","0.0-4.0-1.203","16","High_HMMActual","null","","","","Images/BlackBeadChoice.png","null"
"image-keyboard-response","631","462590","0.0-4.0-2.203","16","High_HMMActual","null","","","","Images/BlackBeadChoiceWrong.png","null"
"image-keyboard-response","632","462831","0.0-4.0-0.204","16","High_HMMActual","240.43999996501952","","","","Images/NewTrialWC.png","37"
"image-keyboard-response","633","463083","0.0-4.0-1.204","16","High_HMMActual","null","","","","Images/BlackBeadChoice.png","null"
"image-keyboard-response","634","463587","0.0-4.0-2.204","16","High_HMMActual","null","","","","Images/BlackBeadChoiceCorrect.png","null"
"image-keyboard-response","635","463840","0.0-4.0-0.205","16","High_HMMActual","252.51000002026558","","","","Images/NewTrialBC.png","37"
"image-keyboard-response","636","464094","0.0-4.0-1.205","16","High_HMMActual","null","","","","Images/BlackBeadChoice.png","null"
"image-keyboard-response","637","464599","0.0-4.0-2.205","16","High_HMMActual","null","","","","Images/BlackBeadChoiceCorrect.png","null"
"image-keyboard-response","638","464823","0.0-4.0-0.206","16","High_HMMActual","223.22499996516854","","","","Images/NewTrialBC.png","39"
"image-keyboard-response","639","465077","0.0-4.0-1.206","16","High_HMMActual","null","","","","Images/WhiteBeadChoice.png","null"
"image-keyboard-response","640","465583","0.0-4.0-2.206","16","High_HMMActual","null","","","","Images/WhiteBeadChoiceWrong.png","null"
"image-keyboard-response","641","465864","0.0-4.0-0.207","16","High_HMMActual","279.68999999575317","","","","Images/NewTrialBC.png","39"
"image-keyboard-response","642","466119","0.0-4.0-1.207","16","High_HMMActual","null","","","","Images/WhiteBeadChoice.png","null"
"image-keyboard-response","643","466620","0.0-4.0-2.207","16","High_HMMActual","null","","","","Images/WhiteBeadChoiceCorrect.png","null"
"image-keyboard-response","644","466916","0.0-4.0-0.208","16","High_HMMActual","295.78000004403293","","","","Images/NewTrialWC.png","39"
"image-keyboard-response","645","467169","0.0-4.0-1.208","16","High_HMMActual","null","","","","Images/WhiteBeadChoice.png","null"
"image-keyboard-response","646","467673","0.0-4.0-2.208","16","High_HMMActual","null","","","","Images/WhiteBeadChoiceWrong.png","null"
"image-keyboard-response","647","467921","0.0-4.0-0.209","16","High_HMMActual","247.4950000178069","","","","Images/NewTrialBC.png","39"
"image-keyboard-response","648","468177","0.0-4.0-1.209","16","High_HMMActual","null","","","","Images/WhiteBeadChoice.png","null"
"image-keyboard-response","649","468682","0.0-4.0-2.209","16","High_HMMActual","null","","","","Images/WhiteBeadChoiceWrong.png","null"
"image-keyboard-response","650","468969","0.0-4.0-0.210","16","High_HMMActual","285.73499992489815","","","","Images/NewTrialBC.png","39"
"image-keyboard-response","651","469222","0.0-4.0-1.210","16","High_HMMActual","null","","","","Images/WhiteBeadChoice.png","null"
"image-keyboard-response","652","469727","0.0-4.0-2.210","16","High_HMMActual","null","","","","Images/WhiteBeadChoiceCorrect.png","null"
"image-keyboard-response","653","469977","0.0-4.0-0.211","16","High_HMMActual","249.43500000517815","","","","Images/NewTrialWC.png","39"
"image-keyboard-response","654","470230","0.0-4.0-1.211","16","High_HMMActual","null","","","","Images/WhiteBeadChoice.png","null"
"image-keyboard-response","655","470736","0.0-4.0-2.211","16","High_HMMActual","null","","","","Images/WhiteBeadChoiceWrong.png","null"
"image-keyboard-response","656","470925","0.0-4.0-0.212","16","High_HMMActual","188.4050000226125","","","","Images/NewTrialBC.png","39"
"image-keyboard-response","657","471177","0.0-4.0-1.212","16","High_HMMActual","null","","","","Images/WhiteBeadChoice.png","null"
"image-keyboard-response","658","471680","0.0-4.0-2.212","16","High_HMMActual","null","","","","Images/WhiteBeadChoiceCorrect.png","null"
"image-keyboard-response","659","471973","0.0-4.0-0.213","16","High_HMMActual","291.88999999314547","","","","Images/NewTrialWC.png","39"
"image-keyboard-response","660","472227","0.0-4.0-1.213","16","High_HMMActual","null","","","","Images/WhiteBeadChoice.png","null"
"image-keyboard-response","661","472732","0.0-4.0-2.213","16","High_HMMActual","null","","","","Images/WhiteBeadChoiceWrong.png","null"
"image-keyboard-response","662","472897","0.0-4.0-0.214","16","High_HMMActual","164.11000001244247","","","","Images/NewTrialBC.png","39"
"image-keyboard-response","663","473152","0.0-4.0-1.214","16","High_HMMActual","null","","","","Images/WhiteBeadChoice.png","null"
"image-keyboard-response","664","473654","0.0-4.0-2.214","16","High_HMMActual","null","","","","Images/WhiteBeadChoiceCorrect.png","null"
"image-keyboard-response","665","473889","0.0-4.0-0.215","16","High_HMMActual","234.21999998390675","","","","Images/NewTrialWC.png","39"
"image-keyboard-response","666","474143","0.0-4.0-1.215","16","High_HMMActual","null","","","","Images/WhiteBeadChoice.png","null"
"image-keyboard-response","667","474646","0.0-4.0-2.215","16","High_HMMActual","null","","","","Images/WhiteBeadChoiceWrong.png","null"
"image-keyboard-response","668","474869","0.0-4.0-0.216","16","High_HMMActual","221.55000001657754","","","","Images/NewTrialBC.png","37"
"image-keyboard-response","669","475121","0.0-4.0-1.216","16","High_HMMActual","null","","","","Images/BlackBeadChoice.png","null"
"image-keyboard-response","670","475627","0.0-4.0-2.216","16","High_HMMActual","null","","","","Images/BlackBeadChoiceWrong.png","null"
"image-keyboard-response","671","475884","0.0-4.0-0.217","16","High_HMMActual","256.09999999869615","","","","Images/NewTrialWC.png","37"
"image-keyboard-response","672","476136","0.0-4.0-1.217","16","High_HMMActual","null","","","","Images/BlackBeadChoice.png","null"
"image-keyboard-response","673","476637","0.0-4.0-2.217","16","High_HMMActual","null","","","","Images/BlackBeadChoiceWrong.png","null"
"image-keyboard-response","674","476921","0.0-4.0-0.218","16","High_HMMActual","282.865000073798","","","","Images/NewTrialWC.png","37"
"image-keyboard-response","675","477175","0.0-4.0-1.218","16","High_HMMActual","null","","","","Images/BlackBeadChoice.png","null"
"image-keyboard-response","676","477677","0.0-4.0-2.218","16","High_HMMActual","null","","","","Images/BlackBeadChoiceWrong.png","null"
"image-keyboard-response","677","477879","0.0-4.0-0.219","16","High_HMMActual","201.32999995257705","","","","Images/NewTrialWC.png","37"
"image-keyboard-response","678","478134","0.0-4.0-1.219","16","High_HMMActual","null","","","","Images/BlackBeadChoice.png","null"
"image-keyboard-response","679","478636","0.0-4.0-2.219","16","High_HMMActual","null","","","","Images/BlackBeadChoiceCorrect.png","null"
"image-keyboard-response","680","478853","0.0-4.0-0.220","16","High_HMMActual","216.73499990720302","","","","Images/NewTrialBC.png","37"
"image-keyboard-response","681","479105","0.0-4.0-1.220","16","High_HMMActual","null","","","","Images/BlackBeadChoice.png","null"
"image-keyboard-response","682","479610","0.0-4.0-2.220","16","High_HMMActual","null","","","","Images/BlackBeadChoiceWrong.png","null"
"image-keyboard-response","683","479821","0.0-4.0-0.221","16","High_HMMActual","209.29000002797693","","","","Images/NewTrialWC.png","37"
"image-keyboard-response","684","480076","0.0-4.0-1.221","16","High_HMMActual","null","","","","Images/BlackBeadChoice.png","null"
"image-keyboard-response","685","480577","0.0-4.0-2.221","16","High_HMMActual","null","","","","Images/BlackBeadChoiceCorrect.png","null"
"image-keyboard-response","686","480885","0.0-4.0-0.222","16","High_HMMActual","306.4699999522418","","","","Images/NewTrialBC.png","37"
"image-keyboard-response","687","481136","0.0-4.0-1.222","16","High_HMMActual","null","","","","Images/BlackBeadChoice.png","null"
"image-keyboard-response","688","481639","0.0-4.0-2.222","16","High_HMMActual","null","","","","Images/BlackBeadChoiceWrong.png","null"
"image-keyboard-response","689","481907","0.0-4.0-0.223","16","High_HMMActual","267.8100001066923","","","","Images/NewTrialWC.png","37"
"image-keyboard-response","690","482160","0.0-4.0-1.223","16","High_HMMActual","null","","","","Images/BlackBeadChoice.png","null"
"image-keyboard-response","691","482663","0.0-4.0-2.223","16","High_HMMActual","null","","","","Images/BlackBeadChoiceCorrect.png","null"
"image-keyboard-response","692","483059","0.0-4.0-0.224","16","High_HMMActual","395.0149999000132","","","","Images/NewTrialBC.png","37"
"image-keyboard-response","693","483310","0.0-4.0-1.224","16","High_HMMActual","null","","","","Images/BlackBeadChoice.png","null"
"image-keyboard-response","694","483812","0.0-4.0-2.224","16","High_HMMActual","null","","","","Images/BlackBeadChoiceWrong.png","null"
"image-keyboard-response","695","484176","0.0-4.0-0.225","16","High_HMMActual","363.43999998643994","","","","Images/NewTrialWC.png","37"
"image-keyboard-response","696","484428","0.0-4.0-1.225","16","High_HMMActual","null","","","","Images/BlackBeadChoice.png","null"
"image-keyboard-response","697","484929","0.0-4.0-2.225","16","High_HMMActual","null","","","","Images/BlackBeadChoiceCorrect.png","null"
"image-keyboard-response","698","485265","0.0-4.0-0.226","16","High_HMMActual","334.6049999818206","","","","Images/NewTrialBC.png","39"
"image-keyboard-response","699","485519","0.0-4.0-1.226","16","High_HMMActual","null","","","","Images/WhiteBeadChoice.png","null"
"image-keyboard-response","700","486021","0.0-4.0-2.226","16","High_HMMActual","null","","","","Images/WhiteBeadChoiceWrong.png","null"
"image-keyboard-response","701","486381","0.0-4.0-0.227","16","High_HMMActual","359.2150000622496","","","","Images/NewTrialBC.png","39"
"image-keyboard-response","702","486636","0.0-4.0-1.227","16","High_HMMActual","null","","","","Images/WhiteBeadChoice.png","null"
"image-keyboard-response","703","487137","0.0-4.0-2.227","16","High_HMMActual","null","","","","Images/WhiteBeadChoiceWrong.png","null"
"image-keyboard-response","704","487325","0.0-4.0-0.228","16","High_HMMActual","187.22000007983297","","","","Images/NewTrialBC.png","39"
"image-keyboard-response","705","487577","0.0-4.0-1.228","16","High_HMMActual","null","","","","Images/WhiteBeadChoice.png","null"
"image-keyboard-response","706","488083","0.0-4.0-2.228","16","High_HMMActual","null","","","","Images/WhiteBeadChoiceCorrect.png","null"
"image-keyboard-response","707","488336","0.0-4.0-0.229","16","High_HMMActual","252.1100000012666","","","","Images/NewTrialWC.png","39"
"image-keyboard-response","708","488587","0.0-4.0-1.229","16","High_HMMActual","null","","","","Images/WhiteBeadChoice.png","null"
"image-keyboard-response","709","489094","0.0-4.0-2.229","16","High_HMMActual","null","","","","Images/WhiteBeadChoiceCorrect.png","null"
"image-keyboard-response","710","489291","0.0-4.0-0.230","16","High_HMMActual","196.41500001307577","","","","Images/NewTrialWC.png","39"
"image-keyboard-response","711","489545","0.0-4.0-1.230","16","High_HMMActual","null","","","","Images/WhiteBeadChoice.png","null"
"image-keyboard-response","712","490052","0.0-4.0-2.230","16","High_HMMActual","null","","","","Images/WhiteBeadChoiceCorrect.png","null"
"image-keyboard-response","713","490303","0.0-4.0-0.231","16","High_HMMActual","248.9950000308454","","","","Images/NewTrialWC.png","39"
"image-keyboard-response","714","490558","0.0-4.0-1.231","16","High_HMMActual","null","","","","Images/WhiteBeadChoice.png","null"
"image-keyboard-response","715","491060","0.0-4.0-2.231","16","High_HMMActual","null","","","","Images/WhiteBeadChoiceWrong.png","null"
"image-keyboard-response","716","491408","0.0-4.0-0.232","16","High_HMMActual","346.2699999799952","","","","Images/NewTrialBC.png","39"
"image-keyboard-response","717","491660","0.0-4.0-1.232","16","High_HMMActual","null","","","","Images/WhiteBeadChoice.png","null"
