"trial_type","trial_index","time_elapsed","internal_node_id","Script_Picker","rt","url","responses","question_order","stimulus","key_press"
"pavlovia","0","2","0.0-0.0","20","","","","","",""
"external-html","1","2178","0.0-1.0-0.0","20","2151.229999999998","consent.html","","","",""
"survey-multi-choice","2","7218","0.0-1.0-1.0","20","5017.005000000012","","{""Q0"":""Female"",""Q1"":""White""}","[0,1]","",""
"survey-text","3","9794","0.0-1.0-2.0","20","2573.1750000000193","","{""Q0"":""23""}","","",""
"survey-text","4","16623","0.0-1.0-3.0","20","6723.669999999998","","{""Q0"":""5dd59fe0a6438056ac397382""}","","",""
"html-keyboard-response","5","37505","0.0-2.0-0.0","20","20779.510000000013","","","","<div class=""container"" style=""height:800px;width:800px;display:flex;flex-direction:column;justify-content:center;align-items:center;text-align:center;font-weight:normal;font-family:Arial;font-size:20px""><p>In this task you will see black or white beads being pulled from jars. <br><br>On each trial, a bead will be pulled from one of two jars. Once you see this bead, your goal is to predict the color of NEXT bead that will be pulled. <br> <br>Every time you correctly guess the color of the NEXT bead, you will get a point. The more points you get, the higher your win bonus at the end of the experiment <br><br>Press the SPACEBAR to continue.</p><div>","32"
"html-keyboard-response","6","43860","0.0-2.0-1.0","20","6354.280000000013","","","","<div class=""container"" style=""height:800px;width:800px;display:flex;flex-direction:column;justify-content:center;align-items:center;text-align:center;font-weight:normal;font-family:Arial;font-size:20px""><p>There are two types of jars:<br><br>1) Jars filled with ONLY white or black beads<br><br>2) Jars filled with 90% white or black beads and 10% of the opposite color mixed in<br><br>Press the SPACEBAR to continue. </p><div>","32"
"image-keyboard-response","7","46639","0.0-2.0-2.0","20","2778.010000000053","","","","resources/WhiteJar_MM.png","32"
"image-keyboard-response","8","47652","0.0-2.0-3.0","20","1011.575000000048","","","","resources/BlackJar_MM.png","32"
"image-keyboard-response","9","49733","0.0-2.0-4.0","20","2080.80000000001","","","","resources/WhiteJar_HMM.png","32"
"image-keyboard-response","10","51004","0.0-2.0-5.0","20","1270.5600000000413","","","","resources/BlackJar_HMM.png","32"
"html-keyboard-response","11","66249","0.0-2.0-6.0","20","15244.724999999962","","","","<div class=""container"" style=""height:800px;width:800px;display:flex;flex-direction:column;justify-content:center;align-items:center;text-align:center;font-weight:normal;font-family:Arial;font-size:20px""><p>There will be four blocks of trials. In each block, you will see the pair of jars that beads will be pulled from.<br><br>The pair of jars used in each block will ONLY ever be 100% white and black jars, or 90/10 mixed jars. <br><br>The pair of jars in each block will not change until the next block.<br><br>Here are examples of what you will see on each trial.<br><br>Press the SPACEBAR to continue. </p><div>","32"
"image-keyboard-response","12","69118","0.0-2.0-7.0","20","2867.8200000000506","","","","Images/NoChoiceMM.png","32"
"image-keyboard-response","13","71863","0.0-2.0-8.0","20","2744.670000000042","","","","Images/NoChoice.png","32"
"html-keyboard-response","14","91237","0.0-2.0-9.0","20","19373.375","","","","<div class=""container"" style=""height:800px;width:800px;display:flex;flex-direction:column;justify-content:center;align-items:center;text-align:center;font-weight:normal;font-family:Arial;font-size:20px""><p> The jar the beads are pulled from is NOT choosen at random on each trial.<br><br>After each prediction, there will be a chance that the jars will switch, and that the next bead will be pulled from the opposite jar as the previous trial.<br><br>In each block, the chance that a jar will switch will either be LOW (the jars will not switch very often), or HIGH (the jars will switch almost all the time).<br><br>At the start of each block, you will be told the probability that the jars will switch on each trial. This switch probability will stay constant throughout the block.<br><br>Press the SPACEBAR to continue. </p><div>","32"
"image-keyboard-response","15","95771","0.0-2.0-10.0","20","4533.040000000023","","","","Images/TutorialBlackJarDrawMM.png","32"
"image-keyboard-response","16","98629","0.0-2.0-11.0","20","2856.994999999981","","","","Images/TutorialWhiteJarDrawMM.png","32"
"html-keyboard-response","17","113706","0.0-2.0-12.0","20","15076.155000000028","","","","<div class=""container"" style=""height:800px;width:800px;display:flex;flex-direction:column;justify-content:center;align-items:center;text-align:center;font-weight:normal;font-family:Arial;font-size:20px""><p> When the jars are filled with only one color, each bead is guaranteed to have come from the same-colored jar. During these blocks, the best strategy is to use the jar switch probability to predict whether the next bead will be the same or different from the previous trial.<br><br> When the jars contain a mix of black and white beads, you will sometimes see black beads pulled from the mostly white jar, and white beads pulled from the mostly black jar. <br><br>Here is an example.<br><br>Press the SPACEBAR to continue.  </p><div>","32"
"image-keyboard-response","18","117451","0.0-2.0-13.0","20","3745.0899999999965","","","","Images/TutorialWhiteJarDrawHMMC.png","32"
"image-keyboard-response","19","118643","0.0-2.0-14.0","20","1191.804999999993","","","","Images/TutorialBlackJarDrawHMMC.png","32"
"image-keyboard-response","20","119711","0.0-2.0-15.0","20","1068.145000000004","","","","Images/TutorialBlackJarDrawHMMI.png","32"
"html-keyboard-response","21","131981","0.0-2.0-16.0","20","12274.530000000028","","","","<div class=""container"" style=""height:800px;width:800px;display:flex;flex-direction:column;justify-content:center;align-items:center;text-align:center;font-weight:normal;font-family:Arial;font-size:20px""><p> As you observed, a white bead was pulled from a 90% white jar, the jars switched and a black bead was pulled from the 90% black jar, but then low-probability white bead was pulled from the 90% black jar. <br><br>In these mixed-jar blocks, you will first have to figure out which jar the current bead was pulled from, then use the jar switch probability to predict the color of the next bead.<br><br>Press SPACEBAR to conitnue.</p><div>","32"
"html-keyboard-response","22","133487","0.0-2.0-17.0","20","1506.5349999999744","","","","<div class=""container"" style=""height:800px;width:800px;display:flex;flex-direction:column;justify-content:center;align-items:center;text-align:center;font-weight:normal;font-family:Arial;font-size:20px""><p> You will now be given a 3 question quiz to make sure you understand the fundamentals. </p><div>","32"
"image-keyboard-response","23","141609","0.0-2.0-18.0","20","8122.140000000014","","","","Images/TutorialQuestion1.png","39"
"image-keyboard-response","24","150597","0.0-2.0-19.0","20","6220.459999999992","","","","Images/TutorialQuestion2.png","38"
"html-keyboard-response","25","163816","0.0-3.0","20","11395.444999999978","","","","<div class=""container"" style=""height:800px;width:800px;display:flex;flex-direction:column;justify-content:center;align-items:center;text-align:center;font-weight:normal;font-family:Arial;font-size:20px""><p>Loading episode&hellip;</p><div>","32"
"image-keyboard-response","26","170194","0.0-4.0-0.0","20","6377.39499999996","","","","Images/NoChoice.png","39"
"image-keyboard-response","27","170451","0.0-4.0-1.0","20","null","","","","Images/WhiteBeadChoice.png","null"
"image-keyboard-response","28","170953","0.0-4.0-2.0","20","null","","","","Images/WhiteBeadChoiceCorrect.png","null"
"image-keyboard-response","29","174256","0.0-4.0-0.1","20","3301.7299999999523","","","","Images/NewTrialWC.png","39"
"image-keyboard-response","30","174508","0.0-4.0-1.1","20","null","","","","Images/WhiteBeadChoice.png","null"
"image-keyboard-response","31","175014","0.0-4.0-2.1","20","null","","","","Images/WhiteBeadChoiceCorrect.png","null"
"image-keyboard-response","32","176888","0.0-4.0-0.2","20","1872.9100000000617","","","","Images/NewTrialWC.png","39"
"image-keyboard-response","33","177142","0.0-4.0-1.2","20","null","","","","Images/WhiteBeadChoice.png","null"
"image-keyboard-response","34","177645","0.0-4.0-2.2","20","null","","","","Images/WhiteBeadChoiceWrong.png","null"
"image-keyboard-response","35","178958","0.0-4.0-0.3","20","1312.600000000035","","","","Images/NewTrialBC.png","37"
"image-keyboard-response","36","179212","0.0-4.0-1.3","20","null","","","","Images/BlackBeadChoice.png","null"
"image-keyboard-response","37","179715","0.0-4.0-2.3","20","null","","","","Images/BlackBeadChoiceCorrect.png","null"
"image-keyboard-response","38","180376","0.0-4.0-0.4","20","660.0849999999919","","","","Images/NewTrialBC.png","37"
"image-keyboard-response","39","180632","0.0-4.0-1.4","20","null","","","","Images/BlackBeadChoice.png","null"
"image-keyboard-response","40","181138","0.0-4.0-2.4","20","null","","","","Images/BlackBeadChoiceCorrect.png","null"
"image-keyboard-response","41","181985","0.0-4.0-0.5","20","845.554999999993","","","","Images/NewTrialBC.png","39"
"image-keyboard-response","42","182242","0.0-4.0-1.5","20","null","","","","Images/WhiteBeadChoice.png","null"
"image-keyboard-response","43","182747","0.0-4.0-2.5","20","null","","","","Images/WhiteBeadChoiceWrong.png","null"
"image-keyboard-response","44","183548","0.0-4.0-0.6","20","800.2200000000303","","","","Images/NewTrialBC.png","37"
"image-keyboard-response","45","183804","0.0-4.0-1.6","20","null","","","","Images/BlackBeadChoice.png","null"
"image-keyboard-response","46","184305","0.0-4.0-2.6","20","null","","","","Images/BlackBeadChoiceCorrect.png","null"
"image-keyboard-response","47","186440","0.0-4.0-0.7","20","2133.470000000001","","","","Images/NewTrialBC.png","37"
"image-keyboard-response","48","186694","0.0-4.0-1.7","20","null","","","","Images/BlackBeadChoice.png","null"
"image-keyboard-response","49","187200","0.0-4.0-2.7","20","null","","","","Images/BlackBeadChoiceCorrect.png","null"
"image-keyboard-response","50","190051","0.0-4.0-0.8","20","2850.390000000014","","","","Images/NewTrialBC.png","37"
"image-keyboard-response","51","190304","0.0-4.0-1.8","20","null","","","","Images/BlackBeadChoice.png","null"
"image-keyboard-response","52","190806","0.0-4.0-2.8","20","null","","","","Images/BlackBeadChoiceWrong.png","null"
"image-keyboard-response","53","193696","0.0-4.0-0.9","20","2889.2450000000244","","","","Images/NewTrialWC.png","39"
"image-keyboard-response","54","193952","0.0-4.0-1.9","20","null","","","","Images/WhiteBeadChoice.png","null"
"image-keyboard-response","55","194453","0.0-4.0-2.9","20","null","","","","Images/WhiteBeadChoiceCorrect.png","null"
"image-keyboard-response","56","195598","0.0-4.0-0.10","20","1143.204999999958","","","","Images/NewTrialWC.png","39"
"image-keyboard-response","57","195853","0.0-4.0-1.10","20","null","","","","Images/WhiteBeadChoice.png","null"
"image-keyboard-response","58","196360","0.0-4.0-2.10","20","null","","","","Images/WhiteBeadChoiceCorrect.png","null"
"image-keyboard-response","59","197679","0.0-4.0-0.11","20","1318.2049999999872","","","","Images/NewTrialWC.png","37"
"image-keyboard-response","60","197932","0.0-4.0-1.11","20","null","","","","Images/BlackBeadChoice.png","null"
"image-keyboard-response","61","198438","0.0-4.0-2.11","20","null","","","","Images/BlackBeadChoiceWrong.png","null"
"image-keyboard-response","62","200919","0.0-4.0-0.12","20","2480.8099999999686","","","","Images/NewTrialWC.png","39"
"image-keyboard-response","63","201173","0.0-4.0-1.12","20","null","","","","Images/WhiteBeadChoice.png","null"
"image-keyboard-response","64","201675","0.0-4.0-2.12","20","null","","","","Images/WhiteBeadChoiceCorrect.png","null"
"image-keyboard-response","65","202010","0.0-4.0-0.13","20","334.51499999998487","","","","Images/NewTrialWC.png","37"
"image-keyboard-response","66","202266","0.0-4.0-1.13","20","null","","","","Images/BlackBeadChoice.png","null"
"image-keyboard-response","67","202771","0.0-4.0-2.13","20","null","","","","Images/BlackBeadChoiceWrong.png","null"
"image-keyboard-response","68","203417","0.0-4.0-0.14","20","644.609999999986","","","","Images/NewTrialWC.png","37"
"image-keyboard-response","69","203674","0.0-4.0-1.14","20","null","","","","Images/BlackBeadChoice.png","null"
"image-keyboard-response","70","204180","0.0-4.0-2.14","20","null","","","","Images/BlackBeadChoiceCorrect.png","null"
"image-keyboard-response","71","205498","0.0-4.0-0.15","20","1316.6499999999942","","","","Images/NewTrialBC.png","39"
"image-keyboard-response","72","205751","0.0-4.0-1.15","20","null","","","","Images/WhiteBeadChoice.png","null"
"image-keyboard-response","73","206256","0.0-4.0-2.15","20","null","","","","Images/WhiteBeadChoiceWrong.png","null"
"image-keyboard-response","74","206769","0.0-4.0-0.16","20","512.2049999999872","","","","Images/NewTrialBC.png","39"
"image-keyboard-response","75","207022","0.0-4.0-1.16","20","null","","","","Images/WhiteBeadChoice.png","null"
"image-keyboard-response","76","207524","0.0-4.0-2.16","20","null","","","","Images/WhiteBeadChoiceCorrect.png","null"
"image-keyboard-response","77","208165","0.0-4.0-0.17","20","639.7550000000047","","","","Images/NewTrialWC.png","37"
"image-keyboard-response","78","208420","0.0-4.0-1.17","20","null","","","","Images/BlackBeadChoice.png","null"
"image-keyboard-response","79","208927","0.0-4.0-2.17","20","null","","","","Images/BlackBeadChoiceWrong.png","null"
"image-keyboard-response","80","209256","0.0-4.0-0.18","20","328.07500000001164","","","","Images/NewTrialWC.png","37"
"image-keyboard-response","81","209512","0.0-4.0-1.18","20","null","","","","Images/BlackBeadChoice.png","null"
"image-keyboard-response","82","210016","0.0-4.0-2.18","20","null","","","","Images/BlackBeadChoiceWrong.png","null"
"image-keyboard-response","83","210482","0.0-4.0-0.19","20","464.9649999999383","","","","Images/NewTrialWC.png","37"
"image-keyboard-response","84","210738","0.0-4.0-1.19","20","null","","","","Images/BlackBeadChoice.png","null"
"image-keyboard-response","85","211244","0.0-4.0-2.19","20","null","","","","Images/BlackBeadChoiceWrong.png","null"
"image-keyboard-response","86","211765","0.0-4.0-0.20","20","519.6350000000384","","","","Images/NewTrialWC.png","37"
"image-keyboard-response","87","212016","0.0-4.0-1.20","20","null","","","","Images/BlackBeadChoice.png","null"
"image-keyboard-response","88","212522","0.0-4.0-2.20","20","null","","","","Images/BlackBeadChoiceCorrect.png","null"
"image-keyboard-response","89","212935","0.0-4.0-0.21","20","411.43499999996857","","","","Images/NewTrialBC.png","39"
"image-keyboard-response","90","213191","0.0-4.0-1.21","20","null","","","","Images/WhiteBeadChoice.png","null"
"image-keyboard-response","91","213697","0.0-4.0-2.21","20","null","","","","Images/WhiteBeadChoiceWrong.png","null"
"image-keyboard-response","92","214026","0.0-4.0-0.22","20","328.29999999998836","","","","Images/NewTrialBC.png","39"
"image-keyboard-response","93","214282","0.0-4.0-1.22","20","null","","","","Images/WhiteBeadChoice.png","null"
"image-keyboard-response","94","214785","0.0-4.0-2.22","20","null","","","","Images/WhiteBeadChoiceCorrect.png","null"
"image-keyboard-response","95","215286","0.0-4.0-0.23","20","499.9349999999977","","","","Images/NewTrialWC.png","37"
"image-keyboard-response","96","215542","0.0-4.0-1.23","20","null","","","","Images/BlackBeadChoice.png","null"
"image-keyboard-response","97","216048","0.0-4.0-2.23","20","null","","","","Images/BlackBeadChoiceCorrect.png","null"
"image-keyboard-response","98","216670","0.0-4.0-0.24","20","620.765000000014","","","","Images/NewTrialBC.png","37"
"image-keyboard-response","99","216926","0.0-4.0-1.24","20","null","","","","Images/BlackBeadChoice.png","null"
"image-keyboard-response","100","217432","0.0-4.0-2.24","20","null","","","","Images/BlackBeadChoiceCorrect.png","null"
"image-keyboard-response","101","220686","0.0-4.0-0.25","20","3253.369999999937","","","","Images/NewTrialBC.png","37"
"image-keyboard-response","102","220940","0.0-4.0-1.25","20","null","","","","Images/BlackBeadChoice.png","null"
"image-keyboard-response","103","221443","0.0-4.0-2.25","20","null","","","","Images/BlackBeadChoiceCorrect.png","null"
"image-keyboard-response","104","222216","0.0-4.0-0.26","20","772.5449999999837","","","","Images/NewTrialBC.png","37"
"image-keyboard-response","105","222472","0.0-4.0-1.26","20","null","","","","Images/BlackBeadChoice.png","null"
"image-keyboard-response","106","222976","0.0-4.0-2.26","20","null","","","","Images/BlackBeadChoiceCorrect.png","null"
"image-keyboard-response","107","223938","0.0-4.0-0.27","20","961.0200000000186","","","","Images/NewTrialBC.png","37"
"image-keyboard-response","108","224194","0.0-4.0-1.27","20","null","","","","Images/BlackBeadChoice.png","null"
"image-keyboard-response","109","224695","0.0-4.0-2.27","20","null","","","","Images/BlackBeadChoiceCorrect.png","null"
"image-keyboard-response","110","225198","0.0-4.0-0.28","20","501.9199999999837","","","","Images/NewTrialBC.png","37"
"image-keyboard-response","111","225454","0.0-4.0-1.28","20","null","","","","Images/BlackBeadChoice.png","null"
"image-keyboard-response","112","225960","0.0-4.0-2.28","20","null","","","","Images/BlackBeadChoiceCorrect.png","null"
"image-keyboard-response","113","226379","0.0-4.0-0.29","20","417.55999999996857","","","","Images/NewTrialBC.png","37"
"image-keyboard-response","114","226632","0.0-4.0-1.29","20","null","","","","Images/BlackBeadChoice.png","null"
"image-keyboard-response","115","227134","0.0-4.0-2.29","20","null","","","","Images/BlackBeadChoiceCorrect.png","null"
"image-keyboard-response","116","227538","0.0-4.0-0.30","20","402.79000000003725","","","","Images/NewTrialBC.png","37"
"image-keyboard-response","117","227794","0.0-4.0-1.30","20","null","","","","Images/BlackBeadChoice.png","null"
"image-keyboard-response","118","228300","0.0-4.0-2.30","20","null","","","","Images/BlackBeadChoiceCorrect.png","null"
"image-keyboard-response","119","228708","0.0-4.0-0.31","20","406.87000000002445","","","","Images/NewTrialBC.png","37"
"image-keyboard-response","120","228964","0.0-4.0-1.31","20","null","","","","Images/BlackBeadChoice.png","null"
"image-keyboard-response","121","229469","0.0-4.0-2.31","20","null","","","","Images/BlackBeadChoiceWrong.png","null"
"image-keyboard-response","122","230058","0.0-4.0-0.32","20","588.3150000000314","","","","Images/NewTrialWC.png","39"
"image-keyboard-response","123","230311","0.0-4.0-1.32","20","null","","","","Images/WhiteBeadChoice.png","null"
"image-keyboard-response","124","230817","0.0-4.0-2.32","20","null","","","","Images/WhiteBeadChoiceWrong.png","null"
"image-keyboard-response","125","231318","0.0-4.0-0.33","20","499.51499999998487","","","","Images/NewTrialBC.png","39"
"image-keyboard-response","126","231574","0.0-4.0-1.33","20","null","","","","Images/WhiteBeadChoice.png","null"
"image-keyboard-response","127","232079","0.0-4.0-2.33","20","null","","","","Images/WhiteBeadChoiceWrong.png","null"
"image-keyboard-response","128","233152","0.0-4.0-0.34","20","1071.2050000000163","","","","Images/NewTrialBC.png","37"
"image-keyboard-response","129","233408","0.0-4.0-1.34","20","null","","","","Images/BlackBeadChoice.png","null"
"image-keyboard-response","130","233914","0.0-4.0-2.34","20","null","","","","Images/BlackBeadChoiceCorrect.png","null"
"image-keyboard-response","131","236628","0.0-4.0-0.35","20","2713.7549999999756","","","","Images/NewTrialBC.png","37"
"image-keyboard-response","132","236882","0.0-4.0-1.35","20","null","","","","Images/BlackBeadChoice.png","null"
"image-keyboard-response","133","237385","0.0-4.0-2.35","20","null","","","","Images/BlackBeadChoiceCorrect.png","null"
"image-keyboard-response","134","237776","0.0-4.0-0.36","20","389.5199999999895","","","","Images/NewTrialBC.png","37"
"image-keyboard-response","135","238032","0.0-4.0-1.36","20","null","","","","Images/BlackBeadChoice.png","null"
"image-keyboard-response","136","238538","0.0-4.0-2.36","20","null","","","","Images/BlackBeadChoiceWrong.png","null"
"image-keyboard-response","137","238721","0.0-4.0-0.37","20","181.86499999993248","","","","Images/NewTrialWC.png","39"
"image-keyboard-response","138","238977","0.0-4.0-1.37","20","null","","","","Images/WhiteBeadChoice.png","null"
"image-keyboard-response","139","239479","0.0-4.0-2.37","20","null","","","","Images/WhiteBeadChoiceCorrect.png","null"
"image-keyboard-response","140","239655","0.0-4.0-0.38","20","174.47000000005937","","","","Images/NewTrialWC.png","39"
"image-keyboard-response","141","239908","0.0-4.0-1.38","20","null","","","","Images/WhiteBeadChoice.png","null"
"image-keyboard-response","142","240410","0.0-4.0-2.38","20","364.0199999999895","","","","Images/WhiteBeadChoiceCorrect.png","39"
"image-keyboard-response","143","240802","0.0-4.0-0.39","20","391.70000000004075","","","","Images/NewTrialWC.png","39"
"image-keyboard-response","144","241058","0.0-4.0-1.39","20","null","","","","Images/WhiteBeadChoice.png","null"
"image-keyboard-response","145","241564","0.0-4.0-2.39","20","null","","","","Images/WhiteBeadChoiceWrong.png","null"
"image-keyboard-response","146","241804","0.0-4.0-0.40","20","239.01999999998952","","","","Images/NewTrialBC.png","37"
"image-keyboard-response","147","242057","0.0-4.0-1.40","20","null","","","","Images/BlackBeadChoice.png","null"
"image-keyboard-response","148","242563","0.0-4.0-2.40","20","null","","","","Images/BlackBeadChoiceCorrect.png","null"
"image-keyboard-response","149","242895","0.0-4.0-0.41","20","330.71999999997206","","","","Images/NewTrialBC.png","37"
"image-keyboard-response","150","243150","0.0-4.0-1.41","20","null","","","","Images/BlackBeadChoice.png","null"
"image-keyboard-response","151","243653","0.0-4.0-2.41","20","null","","","","Images/BlackBeadChoiceCorrect.png","null"
"image-keyboard-response","152","243997","0.0-4.0-0.42","20","343.34500000000116","","","","Images/NewTrialBC.png","37"
"image-keyboard-response","153","244253","0.0-4.0-1.42","20","null","","","","Images/BlackBeadChoice.png","null"
"image-keyboard-response","154","244759","0.0-4.0-2.42","20","null","","","","Images/BlackBeadChoiceCorrect.png","null"
"image-keyboard-response","155","244987","0.0-4.0-0.43","20","227.10999999998603","","","","Images/NewTrialBC.png","37"
"image-keyboard-response","156","245243","0.0-4.0-1.43","20","null","","","","Images/BlackBeadChoice.png","null"
"image-keyboard-response","157","245748","0.0-4.0-2.43","20","null","","","","Images/BlackBeadChoiceCorrect.png","null"
"image-keyboard-response","158","246011","0.0-4.0-0.44","20","262.09500000000116","","","","Images/NewTrialBC.png","37"
"image-keyboard-response","159","246267","0.0-4.0-1.44","20","null","","","","Images/BlackBeadChoice.png","null"
"image-keyboard-response","160","246773","0.0-4.0-2.44","20","null","","","","Images/BlackBeadChoiceWrong.png","null"
"image-keyboard-response","161","247226","0.0-4.0-0.45","20","451.3599999999569","","","","Images/NewTrialWC.png","39"
"image-keyboard-response","162","247482","0.0-4.0-1.45","20","null","","","","Images/WhiteBeadChoice.png","null"
"image-keyboard-response","163","247986","0.0-4.0-2.45","20","null","","","","Images/WhiteBeadChoiceWrong.png","null"
"image-keyboard-response","164","248498","0.0-4.0-0.46","20","510.1700000000128","","","","Images/NewTrialBC.png","37"
"image-keyboard-response","165","248749","0.0-4.0-1.46","20","null","","","","Images/BlackBeadChoice.png","null"
"image-keyboard-response","166","249255","0.0-4.0-2.46","20","null","","","","Images/BlackBeadChoiceCorrect.png","null"
"image-keyboard-response","167","249623","0.0-4.0-0.47","20","366.6700000000128","","","","Images/NewTrialBC.png","37"
"image-keyboard-response","168","249879","0.0-4.0-1.47","20","null","","","","Images/BlackBeadChoice.png","null"
"image-keyboard-response","169","250384","0.0-4.0-2.47","20","null","","","","Images/BlackBeadChoiceCorrect.png","null"
"image-keyboard-response","170","251873","0.0-4.0-0.48","20","1488.0749999999825","","","","Images/NewTrialBC.png","37"
"image-keyboard-response","171","252126","0.0-4.0-1.48","20","null","","","","Images/BlackBeadChoice.png","null"
"image-keyboard-response","172","252630","0.0-4.0-2.48","20","null","","","","Images/BlackBeadChoiceCorrect.png","null"
"image-keyboard-response","173","252930","0.0-4.0-0.49","20","299.7850000000035","","","","Images/NewTrialBC.png","37"
"image-keyboard-response","174","253186","0.0-4.0-1.49","20","null","","","","Images/BlackBeadChoice.png","null"
"image-keyboard-response","175","253692","0.0-4.0-2.49","20","null","","","","Images/BlackBeadChoiceCorrect.png","null"
"image-keyboard-response","176","254067","0.0-4.0-0.50","20","373.1450000000186","","","","Images/NewTrialBC.png","37"
"image-keyboard-response","177","254318","0.0-4.0-1.50","20","null","","","","Images/BlackBeadChoice.png","null"
"image-keyboard-response","178","254823","0.0-4.0-2.50","20","null","","","","Images/BlackBeadChoiceCorrect.png","null"
"image-keyboard-response","179","255743","0.0-4.0-0.51","20","919.2149999999674","","","","Images/NewTrialBC.png","37"
"image-keyboard-response","180","255999","0.0-4.0-1.51","20","null","","","","Images/BlackBeadChoice.png","null"
"image-keyboard-response","181","256505","0.0-4.0-2.51","20","null","","","","Images/BlackBeadChoiceCorrect.png","null"
"image-keyboard-response","182","257104","0.0-4.0-0.52","20","598.3049999999639","","","","Images/NewTrialBC.png","37"
"image-keyboard-response","183","257360","0.0-4.0-1.52","20","null","","","","Images/BlackBeadChoice.png","null"
"image-keyboard-response","184","257866","0.0-4.0-2.52","20","null","","","","Images/BlackBeadChoiceCorrect.png","null"
"image-keyboard-response","185","258229","0.0-4.0-0.53","20","361.94999999998254","","","","Images/NewTrialBC.png","37"
"image-keyboard-response","186","258483","0.0-4.0-1.53","20","null","","","","Images/BlackBeadChoice.png","null"
"image-keyboard-response","187","258986","0.0-4.0-2.53","20","null","","","","Images/BlackBeadChoiceCorrect.png","null"
"image-keyboard-response","188","259399","0.0-4.0-0.54","20","412.55999999996857","","","","Images/NewTrialBC.png","37"
"image-keyboard-response","189","259652","0.0-4.0-1.54","20","null","","","","Images/BlackBeadChoice.png","null"
"image-keyboard-response","190","260158","0.0-4.0-2.54","20","null","","","","Images/BlackBeadChoiceCorrect.png","null"
"image-keyboard-response","191","260738","0.0-4.0-0.55","20","578.6200000000244","","","","Images/NewTrialBC.png","37"
"image-keyboard-response","192","260994","0.0-4.0-1.55","20","null","","","","Images/BlackBeadChoice.png","null"
"image-keyboard-response","193","261500","0.0-4.0-2.55","20","null","","","","Images/BlackBeadChoiceWrong.png","null"
"image-keyboard-response","194","262100","0.0-4.0-0.56","20","598.515000000014","","","","Images/NewTrialWC.png","39"
"image-keyboard-response","195","262355","0.0-4.0-1.56","20","null","","","","Images/WhiteBeadChoice.png","null"
"image-keyboard-response","196","262861","0.0-4.0-2.56","20","null","","","","Images/WhiteBeadChoiceWrong.png","null"
"image-keyboard-response","197","263281","0.0-4.0-0.57","20","418.24500000005355","","","","Images/NewTrialBC.png","37"
"image-keyboard-response","198","263537","0.0-4.0-1.57","20","null","","","","Images/BlackBeadChoice.png","null"
"image-keyboard-response","199","264043","0.0-4.0-2.57","20","null","","","","Images/BlackBeadChoiceWrong.png","null"
"image-keyboard-response","200","264642","0.0-4.0-0.58","20","598.5200000000186","","","","Images/NewTrialWC.png","39"
"image-keyboard-response","201","264896","0.0-4.0-1.58","20","null","","","","Images/WhiteBeadChoice.png","null"
"image-keyboard-response","202","265401","0.0-4.0-2.58","20","null","","","","Images/WhiteBeadChoiceCorrect.png","null"
"image-keyboard-response","203","265868","0.0-4.0-0.59","20","466.9200000000419","","","","Images/NewTrialWC.png","39"
"image-keyboard-response","204","266122","0.0-4.0-1.59","20","null","","","","Images/WhiteBeadChoice.png","null"
"image-keyboard-response","205","266628","0.0-4.0-2.59","20","null","","","","Images/WhiteBeadChoiceWrong.png","null"
"image-keyboard-response","206","267803","0.0-4.0-0.60","20","1174.030000000028","","","","Images/NewTrialBC.png","39"
"image-keyboard-response","207","268057","0.0-4.0-1.60","20","null","","","","Images/WhiteBeadChoice.png","null"
"image-keyboard-response","208","268560","0.0-4.0-2.60","20","null","","","","Images/WhiteBeadChoiceCorrect.png","null"
"image-keyboard-response","209","269109","0.0-4.0-0.61","20","547.4450000000652","","","","Images/NewTrialWC.png","37"
"image-keyboard-response","210","269364","0.0-4.0-1.61","20","null","","","","Images/BlackBeadChoice.png","null"
"image-keyboard-response","211","269870","0.0-4.0-2.61","20","null","","","","Images/BlackBeadChoiceCorrect.png","null"
"image-keyboard-response","212","271269","0.0-4.0-0.62","20","1397.4450000000652","","","","Images/NewTrialBC.png","39"
"image-keyboard-response","213","271522","0.0-4.0-1.62","20","null","","","","Images/WhiteBeadChoice.png","null"
"image-keyboard-response","214","272024","0.0-4.0-2.62","20","null","","","","Images/WhiteBeadChoiceWrong.png","null"
"image-keyboard-response","215","272776","0.0-4.0-0.63","20","751.320000000007","","","","Images/NewTrialBC.png","39"
"image-keyboard-response","216","273029","0.0-4.0-1.63","20","null","","","","Images/WhiteBeadChoice.png","null"
"image-keyboard-response","217","273532","0.0-4.0-2.63","20","null","","","","Images/WhiteBeadChoiceWrong.png","null"
"image-keyboard-response","218","274205","0.0-4.0-0.64","20","672.3850000000675","","","","Images/NewTrialBC.png","39"
"image-keyboard-response","219","274461","0.0-4.0-1.64","20","null","","","","Images/WhiteBeadChoice.png","null"
"image-keyboard-response","220","274967","0.0-4.0-2.64","20","null","","","","Images/WhiteBeadChoiceWrong.png","null"
"image-keyboard-response","221","275285","0.0-4.0-0.65","20","316.97999999992317","","","","Images/NewTrialBC.png","39"
"image-keyboard-response","222","275541","0.0-4.0-1.65","20","null","","","","Images/WhiteBeadChoice.png","null"
"image-keyboard-response","223","276044","0.0-4.0-2.65","20","null","","","","Images/WhiteBeadChoiceWrong.png","null"
"image-keyboard-response","224","276466","0.0-4.0-0.66","20","421.36000000004424","","","","Images/NewTrialBC.png","39"
"image-keyboard-response","225","276722","0.0-4.0-1.66","20","null","","","","Images/WhiteBeadChoice.png","null"
"image-keyboard-response","226","277225","0.0-4.0-2.66","20","null","","","","Images/WhiteBeadChoiceWrong.png","null"
"image-keyboard-response","227","277603","0.0-4.0-0.67","20","377.07499999995343","","","","Images/NewTrialBC.png","39"
"image-keyboard-response","228","277853","0.0-4.0-1.67","20","null","","","","Images/WhiteBeadChoice.png","null"
"image-keyboard-response","229","278358","0.0-4.0-2.67","20","null","","","","Images/WhiteBeadChoiceWrong.png","null"
"image-keyboard-response","230","278750","0.0-4.0-0.68","20","391.0700000000652","","","","Images/NewTrialBC.png","39"
"image-keyboard-response","231","279006","0.0-4.0-1.68","20","null","","","","Images/WhiteBeadChoice.png","null"
"image-keyboard-response","232","279512","0.0-4.0-2.68","20","null","","","","Images/WhiteBeadChoiceCorrect.png","null"
"image-keyboard-response","233","280055","0.0-4.0-0.69","20","542.0650000000023","","","","Images/NewTrialWC.png","37"
"image-keyboard-response","234","280311","0.0-4.0-1.69","20","null","","","","Images/BlackBeadChoice.png","null"
"image-keyboard-response","235","280817","0.0-4.0-2.69","20","null","","","","Images/BlackBeadChoiceCorrect.png","null"
"image-keyboard-response","236","281203","0.0-4.0-0.70","20","384.6499999999651","","","","Images/NewTrialBC.png","37"
"image-keyboard-response","237","281459","0.0-4.0-1.70","20","null","","","","Images/BlackBeadChoice.png","null"
"image-keyboard-response","238","281965","0.0-4.0-2.70","20","null","","","","Images/BlackBeadChoiceCorrect.png","null"
"image-keyboard-response","239","282756","0.0-4.0-0.71","20","789.6049999999814","","","","Images/NewTrialBC.png","39"
"image-keyboard-response","240","283009","0.0-4.0-1.71","20","null","","","","Images/WhiteBeadChoice.png","null"
"image-keyboard-response","241","283515","0.0-4.0-2.71","20","null","","","","Images/WhiteBeadChoiceWrong.png","null"
"image-keyboard-response","242","284376","0.0-4.0-0.72","20","859.7849999999744","","","","Images/NewTrialBC.png","39"
"image-keyboard-response","243","284629","0.0-4.0-1.72","20","null","","","","Images/WhiteBeadChoice.png","null"
"image-keyboard-response","244","285132","0.0-4.0-2.72","20","null","","","","Images/WhiteBeadChoiceWrong.png","null"
"image-keyboard-response","245","285793","0.0-4.0-0.73","20","660.3400000000256","","","","Images/NewTrialBC.png","37"
"image-keyboard-response","246","286046","0.0-4.0-1.73","20","null","","","","Images/BlackBeadChoice.png","null"
"image-keyboard-response","247","286547","0.0-4.0-2.73","20","null","","","","Images/BlackBeadChoiceCorrect.png","null"
"image-keyboard-response","248","287256","0.0-4.0-0.74","20","707.2249999999767","","","","Images/NewTrialBC.png","37"
"image-keyboard-response","249","287511","0.0-4.0-1.74","20","null","","","","Images/BlackBeadChoice.png","null"
"image-keyboard-response","250","288014","0.0-4.0-2.74","20","null","","","","Images/BlackBeadChoiceCorrect.png","null"
"image-keyboard-response","251","288909","0.0-4.0-0.75","20","894.1549999999697","","","","Images/NewTrialBC.png","37"
"image-keyboard-response","252","289160","0.0-4.0-1.75","20","null","","","","Images/BlackBeadChoice.png","null"
"image-keyboard-response","253","289667","0.0-4.0-2.75","20","null","","","","Images/BlackBeadChoiceCorrect.png","null"
"image-keyboard-response","254","289956","0.0-4.0-0.76","20","288.1699999999255","","","","Images/NewTrialBC.png","37"
"image-keyboard-response","255","290212","0.0-4.0-1.76","20","null","","","","Images/BlackBeadChoice.png","null"
"image-keyboard-response","256","290719","0.0-4.0-2.76","20","null","","","","Images/BlackBeadChoiceCorrect.png","null"
"image-keyboard-response","257","290833","0.0-4.0-0.77","20","113.69500000000698","","","","Images/NewTrialBC.png","37"
"image-keyboard-response","258","291089","0.0-4.0-1.77","20","null","","","","Images/BlackBeadChoice.png","null"
"image-keyboard-response","259","291595","0.0-4.0-2.77","20","339.5449999999255","","","","Images/BlackBeadChoiceCorrect.png","37"
"image-keyboard-response","260","291924","0.0-4.0-0.78","20","327.6600000000326","","","","Images/NewTrialBC.png","37"
"image-keyboard-response","261","292180","0.0-4.0-1.78","20","null","","","","Images/BlackBeadChoice.png","null"
"image-keyboard-response","262","292683","0.0-4.0-2.78","20","null","","","","Images/BlackBeadChoiceCorrect.png","null"
"image-keyboard-response","263","292948","0.0-4.0-0.79","20","264.87999999994645","","","","Images/NewTrialBC.png","37"
"image-keyboard-response","264","293204","0.0-4.0-1.79","20","null","","","","Images/BlackBeadChoice.png","null"
"image-keyboard-response","265","293706","0.0-4.0-2.79","20","null","","","","Images/BlackBeadChoiceCorrect.png","null"
"image-keyboard-response","266","293972","0.0-4.0-0.80","20","265.3749999999418","","","","Images/NewTrialBC.png","37"
"image-keyboard-response","267","294228","0.0-4.0-1.80","20","null","","","","Images/BlackBeadChoice.png","null"
"image-keyboard-response","268","294734","0.0-4.0-2.80","20","null","","","","Images/BlackBeadChoiceCorrect.png","null"
"image-keyboard-response","269","295019","0.0-4.0-0.81","20","283.72000000003027","","","","Images/NewTrialBC.png","37"
"image-keyboard-response","270","295275","0.0-4.0-1.81","20","null","","","","Images/BlackBeadChoice.png","null"
"image-keyboard-response","271","295780","0.0-4.0-2.81","20","null","","","","Images/BlackBeadChoiceCorrect.png","null"
"image-keyboard-response","272","296132","0.0-4.0-0.82","20","350.7949999999837","","","","Images/NewTrialBC.png","37"
"image-keyboard-response","273","296384","0.0-4.0-1.82","20","null","","","","Images/BlackBeadChoice.png","null"
"image-keyboard-response","274","296891","0.0-4.0-2.82","20","null","","","","Images/BlackBeadChoiceCorrect.png","null"
"image-keyboard-response","275","297100","0.0-4.0-0.83","20","207.95000000001164","","","","Images/NewTrialBC.png","37"
"image-keyboard-response","276","297356","0.0-4.0-1.83","20","null","","","","Images/BlackBeadChoice.png","null"
"image-keyboard-response","277","297857","0.0-4.0-2.83","20","null","","","","Images/BlackBeadChoiceCorrect.png","null"
"image-keyboard-response","278","298203","0.0-4.0-0.84","20","344.58499999996275","","","","Images/NewTrialBC.png","37"
"image-keyboard-response","279","298456","0.0-4.0-1.84","20","null","","","","Images/BlackBeadChoice.png","null"
"image-keyboard-response","280","298962","0.0-4.0-2.84","20","null","","","","Images/BlackBeadChoiceCorrect.png","null"
"image-keyboard-response","281","299609","0.0-4.0-0.85","20","645.8699999999371","","","","Images/NewTrialBC.png","39"
"image-keyboard-response","282","299865","0.0-4.0-1.85","20","null","","","","Images/WhiteBeadChoice.png","null"
"image-keyboard-response","283","300371","0.0-4.0-2.85","20","null","","","","Images/WhiteBeadChoiceCorrect.png","null"
"image-keyboard-response","284","300824","0.0-4.0-0.86","20","451.89500000007683","","","","Images/NewTrialWC.png","37"
"image-keyboard-response","285","301080","0.0-4.0-1.86","20","null","","","","Images/BlackBeadChoice.png","null"
"image-keyboard-response","286","301586","0.0-4.0-2.86","20","null","","","","Images/BlackBeadChoiceCorrect.png","null"
"image-keyboard-response","287","302028","0.0-4.0-0.87","20","440.5900000000256","","","","Images/NewTrialBC.png","39"
"image-keyboard-response","288","302281","0.0-4.0-1.87","20","null","","","","Images/WhiteBeadChoice.png","null"
"image-keyboard-response","289","302787","0.0-4.0-2.87","20","null","","","","Images/WhiteBeadChoiceWrong.png","null"
"image-keyboard-response","290","303085","0.0-4.0-0.88","20","296.9099999999744","","","","Images/NewTrialBC.png","39"
"image-keyboard-response","291","303341","0.0-4.0-1.88","20","null","","","","Images/WhiteBeadChoice.png","null"
"image-keyboard-response","292","303847","0.0-4.0-2.88","20","null","","","","Images/WhiteBeadChoiceCorrect.png","null"
"image-keyboard-response","293","304188","0.0-4.0-0.89","20","339.29999999998836","","","","Images/NewTrialWC.png","37"
"image-keyboard-response","294","304444","0.0-4.0-1.89","20","null","","","","Images/BlackBeadChoice.png","null"
"image-keyboard-response","295","304946","0.0-4.0-2.89","20","null","","","","Images/BlackBeadChoiceCorrect.png","null"
"image-keyboard-response","296","305279","0.0-4.0-0.90","20","332.6150000000489","","","","Images/NewTrialBC.png","39"
"image-keyboard-response","297","305535","0.0-4.0-1.90","20","null","","","","Images/WhiteBeadChoice.png","null"
"image-keyboard-response","298","306041","0.0-4.0-2.90","20","null","","","","Images/WhiteBeadChoiceCorrect.png","null"
"image-keyboard-response","299","306314","0.0-4.0-0.91","20","271.6000000000349","","","","Images/NewTrialWC.png","37"
"image-keyboard-response","300","306570","0.0-4.0-1.91","20","null","","","","Images/BlackBeadChoice.png","null"
"image-keyboard-response","301","307076","0.0-4.0-2.91","20","null","","","","Images/BlackBeadChoiceCorrect.png","null"
"image-keyboard-response","302","307383","0.0-4.0-0.92","20","305.48499999998603","","","","Images/NewTrialBC.png","39"
"image-keyboard-response","303","307639","0.0-4.0-1.92","20","null","","","","Images/WhiteBeadChoice.png","null"
"image-keyboard-response","304","308141","0.0-4.0-2.92","20","null","","","","Images/WhiteBeadChoiceWrong.png","null"
"image-keyboard-response","305","308609","0.0-4.0-0.93","20","466.8549999999814","","","","Images/NewTrialBC.png","39"
"image-keyboard-response","306","308861","0.0-4.0-1.93","20","null","","","","Images/WhiteBeadChoice.png","null"
"image-keyboard-response","307","309368","0.0-4.0-2.93","20","null","","","","Images/WhiteBeadChoiceWrong.png","null"
"image-keyboard-response","308","309757","0.0-4.0-0.94","20","388.375","","","","Images/NewTrialBC.png","39"
"image-keyboard-response","309","310014","0.0-4.0-1.94","20","null","","","","Images/WhiteBeadChoice.png","null"
"image-keyboard-response","310","310516","0.0-4.0-2.94","20","null","","","","Images/WhiteBeadChoiceWrong.png","null"
"image-keyboard-response","311","310915","0.0-4.0-0.95","20","398.0999999999767","","","","Images/NewTrialBC.png","39"
"image-keyboard-response","312","311171","0.0-4.0-1.95","20","null","","","","Images/WhiteBeadChoice.png","null"
"image-keyboard-response","313","311678","0.0-4.0-2.95","20","null","","","","Images/WhiteBeadChoiceWrong.png","null"
"image-keyboard-response","314","312018","0.0-4.0-0.96","20","338.8999999999651","","","","Images/NewTrialBC.png","39"
"image-keyboard-response","315","312273","0.0-4.0-1.96","20","null","","","","Images/WhiteBeadChoice.png","null"
"image-keyboard-response","316","312780","0.0-4.0-2.96","20","null","","","","Images/WhiteBeadChoiceWrong.png","null"
"image-keyboard-response","317","313188","0.0-4.0-0.97","20","407.44999999995343","","","","Images/NewTrialBC.png","39"
"image-keyboard-response","318","313442","0.0-4.0-1.97","20","null","","","","Images/WhiteBeadChoice.png","null"
"image-keyboard-response","319","313948","0.0-4.0-2.97","20","null","","","","Images/WhiteBeadChoiceCorrect.png","null"
"image-keyboard-response","320","314178","0.0-4.0-0.98","20","229.10999999998603","","","","Images/NewTrialWC.png","37"
"image-keyboard-response","321","314433","0.0-4.0-1.98","20","null","","","","Images/BlackBeadChoice.png","null"
"image-keyboard-response","322","314940","0.0-4.0-2.98","20","null","","","","Images/BlackBeadChoiceCorrect.png","null"
"image-keyboard-response","323","315135","0.0-4.0-0.99","20","193.95999999996275","","","","Images/NewTrialBC.png","39"
"image-keyboard-response","324","315390","0.0-4.0-1.99","20","null","","","","Images/WhiteBeadChoice.png","null"
"image-keyboard-response","325","315897","0.0-4.0-2.99","20","null","","","","Images/WhiteBeadChoiceCorrect.png","null"
"image-keyboard-response","326","316597","0.0-4.0-0.100","20","699.5899999999674","","","","Images/NewTrialWC.png","37"
"image-keyboard-response","327","316852","0.0-4.0-1.100","20","null","","","","Images/BlackBeadChoice.png","null"
"image-keyboard-response","328","317358","0.0-4.0-2.100","20","null","","","","Images/BlackBeadChoiceWrong.png","null"
"image-keyboard-response","329","317970","0.0-4.0-0.101","20","610.734999999986","","","","Images/NewTrialWC.png","37"
"image-keyboard-response","330","318224","0.0-4.0-1.101","20","null","","","","Images/BlackBeadChoice.png","null"
"image-keyboard-response","331","318730","0.0-4.0-2.101","20","null","","","","Images/BlackBeadChoiceWrong.png","null"
"image-keyboard-response","332","319050","0.0-4.0-0.102","20","318.4099999999744","","","","Images/NewTrialWC.png","37"
"image-keyboard-response","333","319305","0.0-4.0-1.102","20","null","","","","Images/BlackBeadChoice.png","null"
"image-keyboard-response","334","319807","0.0-4.0-2.102","20","null","","","","Images/BlackBeadChoiceCorrect.png","null"
"image-keyboard-response","335","319814","0.0-4.0-0.103","20","6.125","","","","Images/NewTrialBC.png","39"
"image-keyboard-response","336","320066","0.0-4.0-1.103","20","null","","","","Images/WhiteBeadChoice.png","null"
"image-keyboard-response","337","320572","0.0-4.0-2.103","20","null","","","","Images/WhiteBeadChoiceCorrect.png","null"
"image-keyboard-response","338","320895","0.0-4.0-0.104","20","321.4549999998999","","","","Images/NewTrialWC.png","37"
"image-keyboard-response","339","321151","0.0-4.0-1.104","20","null","","","","Images/BlackBeadChoice.png","null"
"image-keyboard-response","340","321652","0.0-4.0-2.104","20","null","","","","Images/BlackBeadChoiceWrong.png","null"
"image-keyboard-response","341","322312","0.0-4.0-0.105","20","659.1000000000931","","","","Images/NewTrialWC.png","37"
"image-keyboard-response","342","322567","0.0-4.0-1.105","20","null","","","","Images/BlackBeadChoice.png","null"
"image-keyboard-response","343","323073","0.0-4.0-2.105","20","null","","","","Images/BlackBeadChoiceWrong.png","null"
"image-keyboard-response","344","323471","0.0-4.0-0.106","20","397.1599999999744","","","","Images/NewTrialWC.png","37"
"image-keyboard-response","345","323725","0.0-4.0-1.106","20","null","","","","Images/BlackBeadChoice.png","null"
"image-keyboard-response","346","324231","0.0-4.0-2.106","20","null","","","","Images/BlackBeadChoiceWrong.png","null"
"image-keyboard-response","347","324540","0.0-4.0-0.107","20","307.4849999999278","","","","Images/NewTrialWC.png","37"
"image-keyboard-response","348","324796","0.0-4.0-1.107","20","null","","","","Images/BlackBeadChoice.png","null"
"image-keyboard-response","349","325302","0.0-4.0-2.107","20","null","","","","Images/BlackBeadChoiceWrong.png","null"
"image-keyboard-response","350","325418","0.0-4.0-0.108","20","114.2149999999092","","","","Images/NewTrialWC.png","37"
"image-keyboard-response","351","325673","0.0-4.0-1.108","20","null","","","","Images/BlackBeadChoice.png","null"
"image-keyboard-response","352","326180","0.0-4.0-2.108","20","null","","","","Images/BlackBeadChoiceWrong.png","null"
"image-keyboard-response","353","326363","0.0-4.0-0.109","20","181.90000000002328","","","","Images/NewTrialWC.png","37"
"image-keyboard-response","354","326619","0.0-4.0-1.109","20","null","","","","Images/BlackBeadChoice.png","null"
"image-keyboard-response","355","327126","0.0-4.0-2.109","20","null","","","","Images/BlackBeadChoiceWrong.png","null"
"image-keyboard-response","356","327398","0.0-4.0-0.110","20","271.07500000001164","","","","Images/NewTrialWC.png","37"
"image-keyboard-response","357","327649","0.0-4.0-1.110","20","null","","","","Images/BlackBeadChoice.png","null"
"image-keyboard-response","358","328155","0.0-4.0-2.110","20","null","","","","Images/BlackBeadChoiceWrong.png","null"
"image-keyboard-response","359","328309","0.0-4.0-0.111","20","153.03000000002794","","","","Images/NewTrialWC.png","37"
"image-keyboard-response","360","328565","0.0-4.0-1.111","20","null","","","","Images/BlackBeadChoice.png","null"
"image-keyboard-response","361","329071","0.0-4.0-2.111","20","null","","","","Images/BlackBeadChoiceCorrect.png","null"
"image-keyboard-response","362","329378","0.0-4.0-0.112","20","305.695000000007","","","","Images/NewTrialBC.png","39"
"image-keyboard-response","363","329628","0.0-4.0-1.112","20","null","","","","Images/WhiteBeadChoice.png","null"
"image-keyboard-response","364","330131","0.0-4.0-2.112","20","null","","","","Images/WhiteBeadChoiceWrong.png","null"
"image-keyboard-response","365","330435","0.0-4.0-0.113","20","302.6249999999418","","","","Images/NewTrialBC.png","39"
"image-keyboard-response","366","330687","0.0-4.0-1.113","20","null","","","","Images/WhiteBeadChoice.png","null"
"image-keyboard-response","367","331193","0.0-4.0-2.113","20","null","","","","Images/WhiteBeadChoiceWrong.png","null"
"image-keyboard-response","368","331943","0.0-4.0-0.114","20","748.7149999999674","","","","Images/NewTrialBC.png","39"
"image-keyboard-response","369","332199","0.0-4.0-1.114","20","null","","","","Images/WhiteBeadChoice.png","null"
"image-keyboard-response","370","332705","0.0-4.0-2.114","20","null","","","","Images/WhiteBeadChoiceWrong.png","null"
"image-keyboard-response","371","333000","0.0-4.0-0.115","20","294.29000000003725","","","","Images/NewTrialBC.png","39"
"image-keyboard-response","372","333252","0.0-4.0-1.115","20","null","","","","Images/WhiteBeadChoice.png","null"
"image-keyboard-response","373","333759","0.0-4.0-2.115","20","null","","","","Images/WhiteBeadChoiceWrong.png","null"
"image-keyboard-response","374","334035","0.0-4.0-0.116","20","275.3850000000093","","","","Images/NewTrialBC.png","39"
"image-keyboard-response","375","334291","0.0-4.0-1.116","20","null","","","","Images/WhiteBeadChoice.png","null"
"image-keyboard-response","376","334798","0.0-4.0-2.116","20","null","","","","Images/WhiteBeadChoiceWrong.png","null"
"image-keyboard-response","377","335059","0.0-4.0-0.117","20","260.4750000000349","","","","Images/NewTrialBC.png","39"
"image-keyboard-response","378","335315","0.0-4.0-1.117","20","null","","","","Images/WhiteBeadChoice.png","null"
"image-keyboard-response","379","335821","0.0-4.0-2.117","20","null","","","","Images/WhiteBeadChoiceWrong.png","null"
"image-keyboard-response","380","336016","0.0-4.0-0.118","20","193.1600000000326","","","","Images/NewTrialBC.png","39"
"image-keyboard-response","381","336271","0.0-4.0-1.118","20","null","","","","Images/WhiteBeadChoice.png","null"
"image-keyboard-response","382","336774","0.0-4.0-2.118","20","null","","","","Images/WhiteBeadChoiceWrong.png","null"
"image-keyboard-response","383","336848","0.0-4.0-0.119","20","73.74499999993714","","","","Images/NewTrialBC.png","39"
"image-keyboard-response","384","337104","0.0-4.0-1.119","20","null","","","","Images/WhiteBeadChoice.png","null"
"image-keyboard-response","385","337610","0.0-4.0-2.119","20","null","","","","Images/WhiteBeadChoiceCorrect.png","null"
"image-keyboard-response","386","337793","0.0-4.0-0.120","20","182.05000000004657","","","","Images/NewTrialWC.png","37"
"image-keyboard-response","387","338049","0.0-4.0-1.120","20","null","","","","Images/BlackBeadChoice.png","null"
"image-keyboard-response","388","338554","0.0-4.0-2.120","20","null","","","","Images/BlackBeadChoiceCorrect.png","null"
"image-keyboard-response","389","339143","0.0-4.0-0.121","20","587.7749999999651","","","","Images/NewTrialBC.png","39"
"image-keyboard-response","390","339399","0.0-4.0-1.121","20","null","","","","Images/WhiteBeadChoice.png","null"
"image-keyboard-response","391","339905","0.0-4.0-2.121","20","null","","","","Images/WhiteBeadChoiceCorrect.png","null"
"image-keyboard-response","392","340336","0.0-4.0-0.122","20","429.48499999998603","","","","Images/NewTrialWC.png","39"
"image-keyboard-response","393","340587","0.0-4.0-1.122","20","null","","","","Images/WhiteBeadChoice.png","null"
"image-keyboard-response","394","341092","0.0-4.0-2.122","20","null","","","","Images/WhiteBeadChoiceWrong.png","null"
"image-keyboard-response","395","341866","0.0-4.0-0.123","20","772.9749999999767","","","","Images/NewTrialBC.png","37"
"image-keyboard-response","396","342122","0.0-4.0-1.123","20","null","","","","Images/BlackBeadChoice.png","null"
"image-keyboard-response","397","342628","0.0-4.0-2.123","20","463.2699999999604","","","","Images/BlackBeadChoiceCorrect.png","37"
"image-keyboard-response","398","343070","0.0-4.0-0.124","20","440.875","","","","Images/NewTrialBC.png","37"
"image-keyboard-response","399","343324","0.0-4.0-1.124","20","null","","","","Images/BlackBeadChoice.png","null"
"image-keyboard-response","400","343830","0.0-4.0-2.124","20","null","","","","Images/BlackBeadChoiceWrong.png","null"
"image-keyboard-response","401","344083","0.0-4.0-0.125","20","251.50499999994645","","","","Images/NewTrialWC.png","39"
"image-keyboard-response","402","344335","0.0-4.0-1.125","20","null","","","","Images/WhiteBeadChoice.png","null"
"image-keyboard-response","403","344840","0.0-4.0-2.125","20","null","","","","Images/WhiteBeadChoiceWrong.png","null"
"image-keyboard-response","404","345241","0.0-4.0-0.126","20","400.0900000000256","","","","Images/NewTrialBC.png","37"
"image-keyboard-response","405","345495","0.0-4.0-1.126","20","null","","","","Images/BlackBeadChoice.png","null"
"image-keyboard-response","406","346001","0.0-4.0-2.126","20","null","","","","Images/BlackBeadChoiceCorrect.png","null"
"image-keyboard-response","407","346366","0.0-4.0-0.127","20","363.77499999990687","","","","Images/NewTrialBC.png","37"
"image-keyboard-response","408","346618","0.0-4.0-1.127","20","null","","","","Images/BlackBeadChoice.png","null"
"image-keyboard-response","409","347124","0.0-4.0-2.127","20","null","","","","Images/BlackBeadChoiceCorrect.png","null"
"image-keyboard-response","410","347457","0.0-4.0-0.128","20","331.9099999999744","","","","Images/NewTrialBC.png","37"
"image-keyboard-response","411","347713","0.0-4.0-1.128","20","null","","","","Images/BlackBeadChoice.png","null"
"image-keyboard-response","412","348216","0.0-4.0-2.128","20","null","","","","Images/BlackBeadChoiceCorrect.png","null"
"image-keyboard-response","413","348380","0.0-4.0-0.129","20","163.08499999990454","","","","Images/NewTrialBC.png","37"
"image-keyboard-response","414","348636","0.0-4.0-1.129","20","null","","","","Images/BlackBeadChoice.png","null"
"image-keyboard-response","415","349142","0.0-4.0-2.129","20","null","","","","Images/BlackBeadChoiceCorrect.png","null"
"image-keyboard-response","416","349359","0.0-4.0-0.130","20","215.63000000006286","","","","Images/NewTrialBC.png","37"
"image-keyboard-response","417","349615","0.0-4.0-1.130","20","null","","","","Images/BlackBeadChoice.png","null"
"image-keyboard-response","418","350121","0.0-4.0-2.130","20","null","","","","Images/BlackBeadChoiceCorrect.png","null"
"image-keyboard-response","419","350664","0.0-4.0-0.131","20","541.7650000000722","","","","Images/NewTrialBC.png","39"
"image-keyboard-response","420","350920","0.0-4.0-1.131","20","null","","","","Images/WhiteBeadChoice.png","null"
"image-keyboard-response","421","351424","0.0-4.0-2.131","20","null","","","","Images/WhiteBeadChoiceWrong.png","null"
"image-keyboard-response","422","352014","0.0-4.0-0.132","20","588.1549999999115","","","","Images/NewTrialBC.png","39"
"image-keyboard-response","423","352270","0.0-4.0-1.132","20","null","","","","Images/WhiteBeadChoice.png","null"
"image-keyboard-response","424","352776","0.0-4.0-2.132","20","null","","","","Images/WhiteBeadChoiceCorrect.png","null"
"image-keyboard-response","425","353139","0.0-4.0-0.133","20","361.7050000000163","","","","Images/NewTrialWC.png","37"
"image-keyboard-response","426","353395","0.0-4.0-1.133","20","null","","","","Images/BlackBeadChoice.png","null"
"image-keyboard-response","427","353901","0.0-4.0-2.133","20","null","","","","Images/BlackBeadChoiceWrong.png","null"
"image-keyboard-response","428","354129","0.0-4.0-0.134","20","226.67999999999302","","","","Images/NewTrialWC.png","37"
"image-keyboard-response","429","354381","0.0-4.0-1.134","20","null","","","","Images/BlackBeadChoice.png","null"
"image-keyboard-response","430","354887","0.0-4.0-2.134","20","null","","","","Images/BlackBeadChoiceWrong.png","null"
"image-keyboard-response","431","355186","0.0-4.0-0.135","20","298.00500000000466","","","","Images/NewTrialWC.png","37"
"image-keyboard-response","432","355441","0.0-4.0-1.135","20","null","","","","Images/BlackBeadChoice.png","null"
"image-keyboard-response","433","355948","0.0-4.0-2.135","20","null","","","","Images/BlackBeadChoiceWrong.png","null"
"image-keyboard-response","434","356131","0.0-4.0-0.136","20","183.07500000001164","","","","Images/NewTrialWC.png","37"
"image-keyboard-response","435","356387","0.0-4.0-1.136","20","null","","","","Images/BlackBeadChoice.png","null"
"image-keyboard-response","436","356894","0.0-4.0-2.136","20","null","","","","Images/BlackBeadChoiceCorrect.png","null"
"image-keyboard-response","437","357189","0.0-4.0-0.137","20","294.32500000006985","","","","Images/NewTrialBC.png","39"
"image-keyboard-response","438","357442","0.0-4.0-1.137","20","null","","","","Images/WhiteBeadChoice.png","null"
"image-keyboard-response","439","357948","0.0-4.0-2.137","20","null","","","","Images/WhiteBeadChoiceWrong.png","null"
"image-keyboard-response","440","358258","0.0-4.0-0.138","20","308.9900000000489","","","","Images/NewTrialBC.png","39"
"image-keyboard-response","441","358512","0.0-4.0-1.138","20","null","","","","Images/WhiteBeadChoice.png","null"
"image-keyboard-response","442","359018","0.0-4.0-2.138","20","null","","","","Images/WhiteBeadChoiceCorrect.png","null"
"image-keyboard-response","443","359270","0.0-4.0-0.139","20","251.5","","","","Images/NewTrialWC.png","37"
"image-keyboard-response","444","359526","0.0-4.0-1.139","20","null","","","","Images/BlackBeadChoice.png","null"
"image-keyboard-response","445","360033","0.0-4.0-2.139","20","null","","","","Images/BlackBeadChoiceWrong.png","null"
"image-keyboard-response","446","360553","0.0-4.0-0.140","20","519.2600000000093","","","","Images/NewTrialWC.png","37"
"image-keyboard-response","447","360808","0.0-4.0-1.140","20","null","","","","Images/BlackBeadChoice.png","null"
"image-keyboard-response","448","361311","0.0-4.0-2.140","20","null","","","","Images/BlackBeadChoiceCorrect.png","null"
"image-keyboard-response","449","361431","0.0-4.0-0.141","20","118.0899999999674","","","","Images/NewTrialBC.png","39"
"image-keyboard-response","450","361686","0.0-4.0-1.141","20","null","","","","Images/WhiteBeadChoice.png","null"
"image-keyboard-response","451","362188","0.0-4.0-2.141","20","null","","","","Images/WhiteBeadChoiceWrong.png","null"
"image-keyboard-response","452","362420","0.0-4.0-0.142","20","231.65500000002794","","","","Images/NewTrialBC.png","39"
"image-keyboard-response","453","362673","0.0-4.0-1.142","20","null","","","","Images/WhiteBeadChoice.png","null"
"image-keyboard-response","454","363179","0.0-4.0-2.142","20","null","","","","Images/WhiteBeadChoiceWrong.png","null"
"image-keyboard-response","455","363478","0.0-4.0-0.143","20","297.8450000000885","","","","Images/NewTrialBC.png","39"
"image-keyboard-response","456","363734","0.0-4.0-1.143","20","null","","","","Images/WhiteBeadChoice.png","null"
"image-keyboard-response","457","364240","0.0-4.0-2.143","20","null","","","","Images/WhiteBeadChoiceCorrect.png","null"
"image-keyboard-response","458","364491","0.0-4.0-0.144","20","249.2149999999092","","","","Images/NewTrialWC.png","37"
"image-keyboard-response","459","364743","0.0-4.0-1.144","20","null","","","","Images/BlackBeadChoice.png","null"
"image-keyboard-response","460","365248","0.0-4.0-2.144","20","null","","","","Images/BlackBeadChoiceCorrect.png","null"
"image-keyboard-response","461","365514","0.0-4.0-0.145","20","265.8500000000349","","","","Images/NewTrialBC.png","39"
"image-keyboard-response","462","365770","0.0-4.0-1.145","20","null","","","","Images/WhiteBeadChoice.png","null"
"image-keyboard-response","463","366277","0.0-4.0-2.145","20","null","","","","Images/WhiteBeadChoiceCorrect.png","null"
"image-keyboard-response","464","366516","0.0-4.0-0.146","20","238.06500000000233","","","","Images/NewTrialWC.png","37"
"image-keyboard-response","465","366772","0.0-4.0-1.146","20","null","","","","Images/BlackBeadChoice.png","null"
"image-keyboard-response","466","367278","0.0-4.0-2.146","20","null","","","","Images/BlackBeadChoiceWrong.png","null"
"image-keyboard-response","467","367697","0.0-4.0-0.147","20","418.07500000006985","","","","Images/NewTrialWC.png","37"
"image-keyboard-response","468","367953","0.0-4.0-1.147","20","null","","","","Images/BlackBeadChoice.png","null"
"image-keyboard-response","469","368458","0.0-4.0-2.147","20","null","","","","Images/BlackBeadChoiceWrong.png","null"
"image-keyboard-response","470","368800","0.0-4.0-0.148","20","340.4999999999418","","","","Images/NewTrialWC.png","37"
"image-keyboard-response","471","369056","0.0-4.0-1.148","20","null","","","","Images/BlackBeadChoice.png","null"
"image-keyboard-response","472","369562","0.0-4.0-2.148","20","null","","","","Images/BlackBeadChoiceWrong.png","null"
"image-keyboard-response","473","369936","0.0-4.0-0.149","20","373.25500000000466","","","","Images/NewTrialWC.png","37"
"image-keyboard-response","474","370191","0.0-4.0-1.149","20","null","","","","Images/BlackBeadChoice.png","null"
"image-keyboard-response","475","370696","0.0-4.0-2.149","20","null","","","","Images/BlackBeadChoiceWrong.png","null"
"image-keyboard-response","476","370993","0.0-4.0-0.150","20","296.38000000000466","","","","Images/NewTrialWC.png","37"
"image-keyboard-response","477","371249","0.0-4.0-1.150","20","null","","","","Images/BlackBeadChoice.png","null"
"image-keyboard-response","478","371755","0.0-4.0-2.150","20","null","","","","Images/BlackBeadChoiceWrong.png","null"
"image-keyboard-response","479","372028","0.0-4.0-0.151","20","272.66500000009546","","","","Images/NewTrialWC.png","37"
"image-keyboard-response","480","372284","0.0-4.0-1.151","20","null","","","","Images/BlackBeadChoice.png","null"
"image-keyboard-response","481","372791","0.0-4.0-2.151","20","null","","","","Images/BlackBeadChoiceWrong.png","null"
"image-keyboard-response","482","373109","0.0-4.0-0.152","20","316.60999999998603","","","","Images/NewTrialWC.png","37"
"image-keyboard-response","483","373359","0.0-4.0-1.152","20","null","","","","Images/BlackBeadChoice.png","null"
"image-keyboard-response","484","373864","0.0-4.0-2.152","20","null","","","","Images/BlackBeadChoiceWrong.png","null"
"image-keyboard-response","485","374121","0.0-4.0-0.153","20","255.8749999999418","","","","Images/NewTrialWC.png","37"
"image-keyboard-response","486","374377","0.0-4.0-1.153","20","null","","","","Images/BlackBeadChoice.png","null"
"image-keyboard-response","487","374883","0.0-4.0-2.153","20","null","","","","Images/BlackBeadChoiceCorrect.png","null"
"image-keyboard-response","488","374987","0.0-4.0-0.154","20","103.13000000000466","","","","Images/NewTrialBC.png","39"
"image-keyboard-response","489","375243","0.0-4.0-1.154","20","null","","","","Images/WhiteBeadChoice.png","null"
"image-keyboard-response","490","375746","0.0-4.0-2.154","20","null","","","","Images/WhiteBeadChoiceWrong.png","null"
"image-keyboard-response","491","376000","0.0-4.0-0.155","20","252.89500000001863","","","","Images/NewTrialBC.png","39"
"image-keyboard-response","492","376256","0.0-4.0-1.155","20","null","","","","Images/WhiteBeadChoice.png","null"
"image-keyboard-response","493","376760","0.0-4.0-2.155","20","null","","","","Images/WhiteBeadChoiceWrong.png","null"
"image-keyboard-response","494","376979","0.0-4.0-0.156","20","217.19499999994878","","","","Images/NewTrialBC.png","39"
"image-keyboard-response","495","377233","0.0-4.0-1.156","20","null","","","","Images/WhiteBeadChoice.png","null"
"image-keyboard-response","496","377738","0.0-4.0-2.156","20","null","","","","Images/WhiteBeadChoiceWrong.png","null"
"image-keyboard-response","497","377935","0.0-4.0-0.157","20","196.19000000000233","","","","Images/NewTrialBC.png","39"
"image-keyboard-response","498","378191","0.0-4.0-1.157","20","null","","","","Images/WhiteBeadChoice.png","null"
"image-keyboard-response","499","378692","0.0-4.0-2.157","20","null","","","","Images/WhiteBeadChoiceWrong.png","null"
"image-keyboard-response","500","378846","0.0-4.0-0.158","20","152.79999999993015","","","","Images/NewTrialBC.png","39"
"image-keyboard-response","501","379102","0.0-4.0-1.158","20","null","","","","Images/WhiteBeadChoice.png","null"
"image-keyboard-response","502","379607","0.0-4.0-2.158","20","null","","","","Images/WhiteBeadChoiceWrong.png","null"
"image-keyboard-response","503","379667","0.0-4.0-0.159","20","59.360000000102445","","","","Images/NewTrialBC.png","39"
"image-keyboard-response","504","379923","0.0-4.0-1.159","20","null","","","","Images/WhiteBeadChoice.png","null"
"image-keyboard-response","505","380430","0.0-4.0-2.159","20","null","","","","Images/WhiteBeadChoiceCorrect.png","null"
"image-keyboard-response","506","380511","0.0-4.0-0.160","20","80.72999999998137","","","","Images/NewTrialWC.png","37"
"image-keyboard-response","507","380768","0.0-4.0-1.160","20","null","","","","Images/BlackBeadChoice.png","null"
"image-keyboard-response","508","381274","0.0-4.0-2.160","20","null","","","","Images/BlackBeadChoiceWrong.png","null"
"image-keyboard-response","509","381423","0.0-4.0-0.161","20","147.86000000004424","","","","Images/NewTrialWC.png","37"
"image-keyboard-response","510","381675","0.0-4.0-1.161","20","null","","","","Images/BlackBeadChoice.png","null"
"image-keyboard-response","511","382180","0.0-4.0-2.161","20","null","","","","Images/BlackBeadChoiceWrong.png","null"
"image-keyboard-response","512","382266","0.0-4.0-0.162","20","85.79000000009546","","","","Images/NewTrialWC.png","37"
"image-keyboard-response","513","382520","0.0-4.0-1.162","20","null","","","","Images/BlackBeadChoice.png","null"
"image-keyboard-response","514","383025","0.0-4.0-2.162","20","null","","","","Images/BlackBeadChoiceWrong.png","null"
"image-keyboard-response","515","383031","0.0-4.0-0.163","20","4.485000000044238","","","","Images/NewTrialWC.png","37"
"image-keyboard-response","516","383287","0.0-4.0-1.163","20","null","","","","Images/BlackBeadChoice.png","null"
"image-keyboard-response","517","383793","0.0-4.0-2.163","20","null","","","","Images/BlackBeadChoiceWrong.png","null"
"image-keyboard-response","518","384168","0.0-4.0-0.164","20","373.47500000009313","","","","Images/NewTrialWC.png","37"
"image-keyboard-response","519","384424","0.0-4.0-1.164","20","null","","","","Images/BlackBeadChoice.png","null"
"image-keyboard-response","520","384926","0.0-4.0-2.164","20","null","","","","Images/BlackBeadChoiceWrong.png","null"
"image-keyboard-response","521","385158","0.0-4.0-0.165","20","230.5900000000256","","","","Images/NewTrialWC.png","39"
"image-keyboard-response","522","385414","0.0-4.0-1.165","20","null","","","","Images/WhiteBeadChoice.png","null"
"image-keyboard-response","523","385918","0.0-4.0-2.165","20","null","","","","Images/WhiteBeadChoiceCorrect.png","null"
"image-keyboard-response","524","386407","0.0-4.0-0.166","20","487.63000000000466","","","","Images/NewTrialWC.png","39"
"image-keyboard-response","525","386663","0.0-4.0-1.166","20","null","","","","Images/WhiteBeadChoice.png","null"
"image-keyboard-response","526","387169","0.0-4.0-2.166","20","null","","","","Images/WhiteBeadChoiceCorrect.png","null"
"image-keyboard-response","527","387430","0.0-4.0-0.167","20","260.51499999989755","","","","Images/NewTrialWC.png","39"
"image-keyboard-response","528","387686","0.0-4.0-1.167","20","null","","","","Images/WhiteBeadChoice.png","null"
"image-keyboard-response","529","388190","0.0-4.0-2.167","20","null","","","","Images/WhiteBeadChoiceWrong.png","null"
"image-keyboard-response","530","388555","0.0-4.0-0.168","20","364.1350000000093","","","","Images/NewTrialBC.png","37"
"image-keyboard-response","531","388811","0.0-4.0-1.168","20","null","","","","Images/BlackBeadChoice.png","null"
"image-keyboard-response","532","389318","0.0-4.0-2.168","20","null","","","","Images/BlackBeadChoiceCorrect.png","null"
"image-keyboard-response","533","390637","0.0-4.0-0.169","20","1318.4299999999348","","","","Images/NewTrialBC.png","37"
"image-keyboard-response","534","390890","0.0-4.0-1.169","20","null","","","","Images/BlackBeadChoice.png","null"
"image-keyboard-response","535","391394","0.0-4.0-2.169","20","null","","","","Images/BlackBeadChoiceCorrect.png","null"
"image-keyboard-response","536","391559","0.0-4.0-0.170","20","164.75500000000466","","","","Images/NewTrialBC.png","37"
"image-keyboard-response","537","391815","0.0-4.0-1.170","20","null","","","","Images/BlackBeadChoice.png","null"
"image-keyboard-response","538","392322","0.0-4.0-2.170","20","463.19999999995343","","","","Images/BlackBeadChoiceCorrect.png","37"
"image-keyboard-response","539","392853","0.0-4.0-0.171","20","530.3599999999278","","","","Images/NewTrialBC.png","37"
"image-keyboard-response","540","393109","0.0-4.0-1.171","20","null","","","","Images/BlackBeadChoice.png","null"
"image-keyboard-response","541","393615","0.0-4.0-2.171","20","null","","","","Images/BlackBeadChoiceCorrect.png","null"
"image-keyboard-response","542","393900","0.0-4.0-0.172","20","283.53000000008615","","","","Images/NewTrialBC.png","37"
"image-keyboard-response","543","394156","0.0-4.0-1.172","20","null","","","","Images/BlackBeadChoice.png","null"
"image-keyboard-response","544","394660","0.0-4.0-2.172","20","null","","","","Images/BlackBeadChoiceCorrect.png","null"
"image-keyboard-response","545","395013","0.0-4.0-0.173","20","352.1699999999837","","","","Images/NewTrialBC.png","37"
"image-keyboard-response","546","395268","0.0-4.0-1.173","20","null","","","","Images/BlackBeadChoice.png","null"
"image-keyboard-response","547","395771","0.0-4.0-2.173","20","null","","","","Images/BlackBeadChoiceWrong.png","null"
"image-keyboard-response","548","397005","0.0-4.0-0.174","20","1232.094999999972","","","","Images/NewTrialWC.png","39"
"image-keyboard-response","549","397260","0.0-4.0-1.174","20","null","","","","Images/WhiteBeadChoice.png","null"
"image-keyboard-response","550","397765","0.0-4.0-2.174","20","null","","","","Images/WhiteBeadChoiceCorrect.png","null"
"image-keyboard-response","551","398085","0.0-4.0-0.175","20","318.7049999998999","","","","Images/NewTrialWC.png","39"
"image-keyboard-response","552","398341","0.0-4.0-1.175","20","null","","","","Images/WhiteBeadChoice.png","null"
"image-keyboard-response","553","398843","0.0-4.0-2.175","20","null","","","","Images/WhiteBeadChoiceWrong.png","null"
"image-keyboard-response","554","399277","0.0-4.0-0.176","20","433.34499999991385","","","","Images/NewTrialBC.png","37"
"image-keyboard-response","555","399531","0.0-4.0-1.176","20","null","","","","Images/BlackBeadChoice.png","null"
"image-keyboard-response","556","400034","0.0-4.0-2.176","20","null","","","","Images/BlackBeadChoiceCorrect.png","null"
"image-keyboard-response","557","400594","0.0-4.0-0.177","20","558.554999999993","","","","Images/NewTrialBC.png","37"
"image-keyboard-response","558","400850","0.0-4.0-1.177","20","null","","","","Images/BlackBeadChoice.png","null"
"image-keyboard-response","559","401356","0.0-4.0-2.177","20","null","","","","Images/BlackBeadChoiceWrong.png","null"
"image-keyboard-response","560","401888","0.0-4.0-0.178","20","530.6099999999278","","","","Images/NewTrialWC.png","39"
"image-keyboard-response","561","402143","0.0-4.0-1.178","20","null","","","","Images/WhiteBeadChoice.png","null"
"image-keyboard-response","562","402647","0.0-4.0-2.178","20","null","","","","Images/WhiteBeadChoiceCorrect.png","null"
"image-keyboard-response","563","402788","0.0-4.0-0.179","20","139.71000000002095","","","","Images/NewTrialWC.png","39"
"image-keyboard-response","564","403038","0.0-4.0-1.179","20","null","","","","Images/WhiteBeadChoice.png","null"
"image-keyboard-response","565","403540","0.0-4.0-2.179","20","null","","","","Images/WhiteBeadChoiceCorrect.png","null"
"image-keyboard-response","566","403699","0.0-4.0-0.180","20","157.1349999998929","","","","Images/NewTrialWC.png","39"
"image-keyboard-response","567","403954","0.0-4.0-1.180","20","null","","","","Images/WhiteBeadChoice.png","null"
"image-keyboard-response","568","404459","0.0-4.0-2.180","20","null","","","","Images/WhiteBeadChoiceCorrect.png","null"
"image-keyboard-response","569","404734","0.0-4.0-0.181","20","273.15499999996973","","","","Images/NewTrialWC.png","39"
"image-keyboard-response","570","404990","0.0-4.0-1.181","20","null","","","","Images/WhiteBeadChoice.png","null"
"image-keyboard-response","571","405496","0.0-4.0-2.181","20","null","","","","Images/WhiteBeadChoiceCorrect.png","null"
"image-keyboard-response","572","405757","0.0-4.0-0.182","20","260.54999999993015","","","","Images/NewTrialWC.png","39"
"image-keyboard-response","573","406012","0.0-4.0-1.182","20","null","","","","Images/WhiteBeadChoice.png","null"
"image-keyboard-response","574","406518","0.0-4.0-2.182","20","null","","","","Images/WhiteBeadChoiceCorrect.png","null"
"image-keyboard-response","575","406680","0.0-4.0-0.183","20","161.26000000012573","","","","Images/NewTrialWC.png","39"
"image-keyboard-response","576","406932","0.0-4.0-1.183","20","null","","","","Images/WhiteBeadChoice.png","null"
"image-keyboard-response","577","407438","0.0-4.0-2.183","20","null","","","","Images/WhiteBeadChoiceCorrect.png","null"
"image-keyboard-response","578","407681","0.0-4.0-0.184","20","242.22499999997672","","","","Images/NewTrialWC.png","39"
"image-keyboard-response","579","407934","0.0-4.0-1.184","20","null","","","","Images/WhiteBeadChoice.png","null"
"image-keyboard-response","580","408440","0.0-4.0-2.184","20","null","","","","Images/WhiteBeadChoiceCorrect.png","null"
"image-keyboard-response","581","408739","0.0-4.0-0.185","20","298.16500000003725","","","","Images/NewTrialWC.png","39"
"image-keyboard-response","582","408995","0.0-4.0-1.185","20","null","","","","Images/WhiteBeadChoice.png","null"
"image-keyboard-response","583","409500","0.0-4.0-2.185","20","null","","","","Images/WhiteBeadChoiceCorrect.png","null"
"image-keyboard-response","584","409763","0.0-4.0-0.186","20","261.2500000000582","","","","Images/NewTrialWC.png","39"
"image-keyboard-response","585","410019","0.0-4.0-1.186","20","null","","","","Images/WhiteBeadChoice.png","null"
"image-keyboard-response","586","410525","0.0-4.0-2.186","20","null","","","","Images/WhiteBeadChoiceCorrect.png","null"
"image-keyboard-response","587","410787","0.0-4.0-0.187","20","260.5800000000163","","","","Images/NewTrialWC.png","39"
"image-keyboard-response","588","411042","0.0-4.0-1.187","20","null","","","","Images/WhiteBeadChoice.png","null"
"image-keyboard-response","589","411549","0.0-4.0-2.187","20","null","","","","Images/WhiteBeadChoiceCorrect.png","null"
"image-keyboard-response","590","411833","0.0-4.0-0.188","20","283.09499999991385","","","","Images/NewTrialWC.png","39"
"image-keyboard-response","591","412086","0.0-4.0-1.188","20","null","","","","Images/WhiteBeadChoice.png","null"
"image-keyboard-response","592","412590","0.0-4.0-2.188","20","null","","","","Images/WhiteBeadChoiceCorrect.png","null"
"image-keyboard-response","593","412812","0.0-4.0-0.189","20","221.31500000000233","","","","Images/NewTrialWC.png","39"
"image-keyboard-response","594","413066","0.0-4.0-1.189","20","null","","","","Images/WhiteBeadChoice.png","null"
"image-keyboard-response","595","413572","0.0-4.0-2.189","20","null","","","","Images/WhiteBeadChoiceCorrect.png","null"
"image-keyboard-response","596","413790","0.0-4.0-0.190","20","217.4650000000256","","","","Images/NewTrialWC.png","39"
"image-keyboard-response","597","414046","0.0-4.0-1.190","20","null","","","","Images/WhiteBeadChoice.png","null"
"image-keyboard-response","598","414553","0.0-4.0-2.190","20","null","","","","Images/WhiteBeadChoiceCorrect.png","null"
"image-keyboard-response","599","414645","0.0-4.0-0.191","20","91.47499999991851","","","","Images/NewTrialWC.png","39"
"image-keyboard-response","600","414901","0.0-4.0-1.191","20","null","","","","Images/WhiteBeadChoice.png","null"
"image-keyboard-response","601","415408","0.0-4.0-2.191","20","null","","","","Images/WhiteBeadChoiceCorrect.png","null"
"image-keyboard-response","602","415624","0.0-4.0-0.192","20","215.40499999991152","","","","Images/NewTrialWC.png","39"
"image-keyboard-response","603","415880","0.0-4.0-1.192","20","null","","","","Images/WhiteBeadChoice.png","null"
"image-keyboard-response","604","416386","0.0-4.0-2.192","20","null","","","","Images/WhiteBeadChoiceWrong.png","null"
"image-keyboard-response","605","416682","0.0-4.0-0.193","20","294.60499999992317","","","","Images/NewTrialBC.png","37"
"image-keyboard-response","606","416938","0.0-4.0-1.193","20","null","","","","Images/BlackBeadChoice.png","null"
"image-keyboard-response","607","417444","0.0-4.0-2.193","20","null","","","","Images/BlackBeadChoiceCorrect.png","null"
"image-keyboard-response","608","417526","0.0-4.0-0.194","20","80.3300000000163","","","","Images/NewTrialBC.png","37"
"image-keyboard-response","609","417782","0.0-4.0-1.194","20","null","","","","Images/BlackBeadChoice.png","null"
"image-keyboard-response","610","418288","0.0-4.0-2.194","20","null","","","","Images/BlackBeadChoiceCorrect.png","null"
"image-keyboard-response","611","418369","0.0-4.0-0.195","20","80.78000000002794","","","","Images/NewTrialBC.png","37"
"image-keyboard-response","612","418622","0.0-4.0-1.195","20","null","","","","Images/BlackBeadChoice.png","null"
"image-keyboard-response","613","419125","0.0-4.0-2.195","20","488.3549999999814","","","","Images/BlackBeadChoiceCorrect.png","37"
"image-keyboard-response","614","419596","0.0-4.0-0.196","20","469.6249999999418","","","","Images/NewTrialBC.png","37"
"image-keyboard-response","615","419852","0.0-4.0-1.196","20","null","","","","Images/BlackBeadChoice.png","null"
"image-keyboard-response","616","420358","0.0-4.0-2.196","20","null","","","","Images/BlackBeadChoiceCorrect.png","null"
"image-keyboard-response","617","420563","0.0-4.0-0.197","20","204.2949999999837","","","","Images/NewTrialBC.png","37"
"image-keyboard-response","618","420819","0.0-4.0-1.197","20","null","","","","Images/BlackBeadChoice.png","null"
"image-keyboard-response","619","421326","0.0-4.0-2.197","20","null","","","","Images/BlackBeadChoiceCorrect.png","null"
"image-keyboard-response","620","421418","0.0-4.0-0.198","20","91.85499999992317","","","","Images/NewTrialBC.png","37"
"image-keyboard-response","621","421674","0.0-4.0-1.198","20","null","","","","Images/BlackBeadChoice.png","null"
"image-keyboard-response","622","422176","0.0-4.0-2.198","20","497.10999999998603","","","","Images/BlackBeadChoiceCorrect.png","37"
"image-keyboard-response","623","422678","0.0-4.0-0.199","20","501.6500000000233","","","","Images/NewTrialBC.png","37"
"image-keyboard-response","624","422934","0.0-4.0-1.199","20","null","","","","Images/BlackBeadChoice.png","null"
"image-keyboard-response","625","423441","0.0-4.0-2.199","20","null","","","","Images/BlackBeadChoiceCorrect.png","null"
"html-keyboard-response","626","428911","0.0-5.0","20","5469.945000000007","","","","","32"
"html-keyboard-response","627","438992","0.0-6.0","20","10079.920000000042","","","","<div class=""container"" style=""height:800px;width:800px;display:flex;flex-direction:column;justify-content:center;align-items:center;text-align:center;font-weight:normal;font-family:Arial;font-size:20px""><p>Loading episode&hellip;</p><div>","32"
"image-keyboard-response","628","440511","0.0-7.0-0.0","20","1517.7550000000047","","","","Images/NoChoiceMM.png","39"
"image-keyboard-response","629","440764","0.0-7.0-1.0","20","null","","","","Images/WhiteBeadChoiceMM.png","null"
"image-keyboard-response","630","441267","0.0-7.0-2.0","20","null","","","","Images/WhiteBeadChoiceCorrectMM.png","null"
"image-keyboard-response","631","442277","0.0-7.0-0.1","20","1008.6049999999814","","","","Images/NewTrialWCMM.png","39"
"image-keyboard-response","632","442528","0.0-7.0-1.1","20","null","","","","Images/WhiteBeadChoiceMM.png","null"
"image-keyboard-response","633","443034","0.0-7.0-2.1","20","null","","","","Images/WhiteBeadChoiceCorrectMM.png","null"
"image-keyboard-response","634","443593","0.0-7.0-0.2","20","557.8849999999511","","","","Images/NewTrialWCMM.png","39"
"image-keyboard-response","635","443849","0.0-7.0-1.2","20","null","","","","Images/WhiteBeadChoiceMM.png","null"
"image-keyboard-response","636","444354","0.0-7.0-2.2","20","null","","","","Images/WhiteBeadChoiceCorrectMM.png","null"
"image-keyboard-response","637","445022","0.0-7.0-0.3","20","667.0349999999162","","","","Images/NewTrialWCMM.png","39"
"image-keyboard-response","638","445278","0.0-7.0-1.3","20","null","","","","Images/WhiteBeadChoiceMM.png","null"
"image-keyboard-response","639","445782","0.0-7.0-2.3","20","null","","","","Images/WhiteBeadChoiceWrongMM.png","null"
"image-keyboard-response","640","446597","0.0-7.0-0.4","20","813.4749999999185","","","","Images/NewTrialBCMM.png","37"
"image-keyboard-response","641","446852","0.0-7.0-1.4","20","null","","","","Images/BlackBeadChoiceMM.png","null"
"image-keyboard-response","642","447359","0.0-7.0-2.4","20","null","","","","Images/BlackBeadChoiceCorrectMM.png","null"
"image-keyboard-response","643","447699","0.0-7.0-0.5","20","340.00500000000466","","","","Images/NewTrialBCMM.png","37"
"image-keyboard-response","644","447950","0.0-7.0-1.5","20","null","","","","Images/BlackBeadChoiceMM.png","null"
"image-keyboard-response","645","448457","0.0-7.0-2.5","20","null","","","","Images/BlackBeadChoiceWrongMM.png","null"
"image-keyboard-response","646","448701","0.0-7.0-0.6","20","242.69000000000233","","","","Images/NewTrialWCMM.png","39"
"image-keyboard-response","647","448953","0.0-7.0-1.6","20","null","","","","Images/WhiteBeadChoiceMM.png","null"
"image-keyboard-response","648","449459","0.0-7.0-2.6","20","null","","","","Images/WhiteBeadChoiceWrongMM.png","null"
"image-keyboard-response","649","449792","0.0-7.0-0.7","20","331.76499999989755","","","","Images/NewTrialBCMM.png","37"
"image-keyboard-response","650","450048","0.0-7.0-1.7","20","null","","","","Images/BlackBeadChoiceMM.png","null"
"image-keyboard-response","651","450554","0.0-7.0-2.7","20","null","","","","Images/BlackBeadChoiceCorrectMM.png","null"
"image-keyboard-response","652","450805","0.0-7.0-0.8","20","249.53999999992084","","","","Images/NewTrialBCMM.png","37"
"image-keyboard-response","653","451056","0.0-7.0-1.8","20","null","","","","Images/BlackBeadChoiceMM.png","null"
"image-keyboard-response","654","451557","0.0-7.0-2.8","20","null","","","","Images/BlackBeadChoiceCorrectMM.png","null"
"image-keyboard-response","655","451660","0.0-7.0-0.9","20","101.6699999999837","","","","Images/NewTrialBCMM.png","37"
"image-keyboard-response","656","451914","0.0-7.0-1.9","20","null","","","","Images/BlackBeadChoiceMM.png","null"
"image-keyboard-response","657","452420","0.0-7.0-2.9","20","null","","","","Images/BlackBeadChoiceCorrectMM.png","null"
"image-keyboard-response","658","452639","0.0-7.0-0.10","20","217.52500000002328","","","","Images/NewTrialBCMM.png","37"
"image-keyboard-response","659","452894","0.0-7.0-1.10","20","null","","","","Images/BlackBeadChoiceMM.png","null"
"image-keyboard-response","660","453398","0.0-7.0-2.10","20","null","","","","Images/BlackBeadChoiceCorrectMM.png","null"
"image-keyboard-response","661","453539","0.0-7.0-0.11","20","139.40500000002794","","","","Images/NewTrialBCMM.png","37"
"image-keyboard-response","662","453795","0.0-7.0-1.11","20","null","","","","Images/BlackBeadChoiceMM.png","null"
"image-keyboard-response","663","454301","0.0-7.0-2.11","20","null","","","","Images/BlackBeadChoiceCorrectMM.png","null"
"image-keyboard-response","664","454428","0.0-7.0-0.12","20","125.56500000006054","","","","Images/NewTrialBCMM.png","37"
"image-keyboard-response","665","454682","0.0-7.0-1.12","20","null","","","","Images/BlackBeadChoiceMM.png","null"
"image-keyboard-response","666","455188","0.0-7.0-2.12","20","null","","","","Images/BlackBeadChoiceCorrectMM.png","null"
"image-keyboard-response","667","455485","0.0-7.0-0.13","20","295.58499999996275","","","","Images/NewTrialBCMM.png","37"
"image-keyboard-response","668","455741","0.0-7.0-1.13","20","null","","","","Images/BlackBeadChoiceMM.png","null"
"image-keyboard-response","669","456247","0.0-7.0-2.13","20","null","","","","Images/BlackBeadChoiceCorrectMM.png","null"
"image-keyboard-response","670","456385","0.0-7.0-0.14","20","136.71999999997206","","","","Images/NewTrialBCMM.png","37"
"image-keyboard-response","671","456641","0.0-7.0-1.14","20","null","","","","Images/BlackBeadChoiceMM.png","null"
"image-keyboard-response","672","457142","0.0-7.0-2.14","20","null","","","","Images/BlackBeadChoiceWrongMM.png","null"
"image-keyboard-response","673","457409","0.0-7.0-0.15","20","265.38000000006286","","","","Images/NewTrialWCMM.png","39"
"image-keyboard-response","674","457665","0.0-7.0-1.15","20","null","","","","Images/WhiteBeadChoiceMM.png","null"
"image-keyboard-response","675","458171","0.0-7.0-2.15","20","null","","","","Images/WhiteBeadChoiceCorrectMM.png","null"
"image-keyboard-response","676","458399","0.0-7.0-0.16","20","226.91500000009546","","","","Images/NewTrialWCMM.png","39"
"image-keyboard-response","677","458652","0.0-7.0-1.16","20","null","","","","Images/WhiteBeadChoiceMM.png","null"
"image-keyboard-response","678","459159","0.0-7.0-2.16","20","null","","","","Images/WhiteBeadChoiceCorrectMM.png","null"
"image-keyboard-response","679","459243","0.0-7.0-0.17","20","82.87000000005355","","","","Images/NewTrialWCMM.png","39"
"image-keyboard-response","680","459498","0.0-7.0-1.17","20","null","","","","Images/WhiteBeadChoiceMM.png","null"
"image-keyboard-response","681","460004","0.0-7.0-2.17","20","null","","","","Images/WhiteBeadChoiceCorrectMM.png","null"
"image-keyboard-response","682","460278","0.0-7.0-0.18","20","272.2600000000675","","","","Images/NewTrialWCMM.png","39"
"image-keyboard-response","683","460534","0.0-7.0-1.18","20","null","","","","Images/WhiteBeadChoiceMM.png","null"
"image-keyboard-response","684","461040","0.0-7.0-2.18","20","null","","","","Images/WhiteBeadChoiceCorrectMM.png","null"
"image-keyboard-response","685","461189","0.0-7.0-0.19","20","148.2849999999744","","","","Images/NewTrialWCMM.png","39"
"image-keyboard-response","686","461444","0.0-7.0-1.19","20","null","","","","Images/WhiteBeadChoiceMM.png","null"
"image-keyboard-response","687","461950","0.0-7.0-2.19","20","null","","","","Images/WhiteBeadChoiceCorrectMM.png","null"
"image-keyboard-response","688","462325","0.0-7.0-0.20","20","374.06500000006054","","","","Images/NewTrialWCMM.png","39"
"image-keyboard-response","689","462581","0.0-7.0-1.20","20","null","","","","Images/WhiteBeadChoiceMM.png","null"
"image-keyboard-response","690","463087","0.0-7.0-2.20","20","null","","","","Images/WhiteBeadChoiceCorrectMM.png","null"
"image-keyboard-response","691","463372","0.0-7.0-0.21","20","283.05000000004657","","","","Images/NewTrialWCMM.png","39"
"image-keyboard-response","692","463622","0.0-7.0-1.21","20","null","","","","Images/WhiteBeadChoiceMM.png","null"
"image-keyboard-response","693","464128","0.0-7.0-2.21","20","null","","","","Images/WhiteBeadChoiceCorrectMM.png","null"
"image-keyboard-response","694","464497","0.0-7.0-0.22","20","367.0449999999837","","","","Images/NewTrialWCMM.png","39"
"image-keyboard-response","695","464753","0.0-7.0-1.22","20","null","","","","Images/WhiteBeadChoiceMM.png","null"
"image-keyboard-response","696","465255","0.0-7.0-2.22","20","null","","","","Images/WhiteBeadChoiceWrongMM.png","null"
"image-keyboard-response","697","466578","0.0-7.0-0.23","20","1321.4749999999185","","","","Images/NewTrialBCMM.png","37"
"image-keyboard-response","698","466831","0.0-7.0-1.23","20","null","","","","Images/BlackBeadChoiceMM.png","null"
"image-keyboard-response","699","467334","0.0-7.0-2.23","20","null","","","","Images/BlackBeadChoiceCorrectMM.png","null"
"image-keyboard-response","700","467433","0.0-7.0-0.24","20","97.46500000002561","","","","Images/NewTrialBCMM.png","37"
"image-keyboard-response","701","467686","0.0-7.0-1.24","20","null","","","","Images/BlackBeadChoiceMM.png","null"
"image-keyboard-response","702","468192","0.0-7.0-2.24","20","null","","","","Images/BlackBeadChoiceCorrectMM.png","null"
"image-keyboard-response","703","468603","0.0-7.0-0.25","20","409.9400000000023","","","","Images/NewTrialBCMM.png","37"
"image-keyboard-response","704","468859","0.0-7.0-1.25","20","null","","","","Images/BlackBeadChoiceMM.png","null"
"image-keyboard-response","705","469363","0.0-7.0-2.25","20","null","","","","Images/BlackBeadChoiceCorrectMM.png","null"
"image-keyboard-response","706","469818","0.0-7.0-0.26","20","453.8949999999604","","","","Images/NewTrialBCMM.png","37"
"image-keyboard-response","707","470069","0.0-7.0-1.26","20","null","","","","Images/BlackBeadChoiceMM.png","null"
"image-keyboard-response","708","470572","0.0-7.0-2.26","20","null","","","","Images/BlackBeadChoiceCorrectMM.png","null"
"image-keyboard-response","709","471168","0.0-7.0-0.27","20","594.9549999999581","","","","Images/NewTrialBCMM.png","37"
"image-keyboard-response","710","471424","0.0-7.0-1.27","20","null","","","","Images/BlackBeadChoiceMM.png","null"
"image-keyboard-response","711","471929","0.0-7.0-2.27","20","null","","","","Images/BlackBeadChoiceCorrectMM.png","null"
"image-keyboard-response","712","472507","0.0-7.0-0.28","20","576.3049999999348","","","","Images/NewTrialBCMM.png","37"
"image-keyboard-response","713","472760","0.0-7.0-1.28","20","null","","","","Images/BlackBeadChoiceMM.png","null"
"image-keyboard-response","714","473266","0.0-7.0-2.28","20","null","","","","Images/BlackBeadChoiceCorrectMM.png","null"
"image-keyboard-response","715","473733","0.0-7.0-0.29","20","466.43499999993946","","","","Images/NewTrialBCMM.png","37"
"image-keyboard-response","716","473989","0.0-7.0-1.29","20","null","","","","Images/BlackBeadChoiceMM.png","null"
"image-keyboard-response","717","474491","0.0-7.0-2.29","20","null","","","","Images/BlackBeadChoiceCorrectMM.png","null"
"image-keyboard-response","718","475095","0.0-7.0-0.30","20","602.8950000000186","","","","Images/NewTrialBCMM.png","37"
"image-keyboard-response","719","475349","0.0-7.0-1.30","20","null","","","","Images/BlackBeadChoiceMM.png","null"
"image-keyboard-response","720","475855","0.0-7.0-2.30","20","null","","","","Images/BlackBeadChoiceCorrectMM.png","null"
"image-keyboard-response","721","476434","0.0-7.0-0.31","20","577.6549999999115","","","","Images/NewTrialBCMM.png","37"
"image-keyboard-response","722","476689","0.0-7.0-1.31","20","null","","","","Images/BlackBeadChoiceMM.png","null"
"image-keyboard-response","723","477195","0.0-7.0-2.31","20","null","","","","Images/BlackBeadChoiceCorrectMM.png","null"
"image-keyboard-response","724","477750","0.0-7.0-0.32","20","553.2649999999558","","","","Images/NewTrialBCMM.png","37"
"image-keyboard-response","725","478002","0.0-7.0-1.32","20","null","","","","Images/BlackBeadChoiceMM.png","null"
"image-keyboard-response","726","478508","0.0-7.0-2.32","20","null","","","","Images/BlackBeadChoiceCorrectMM.png","null"
"image-keyboard-response","727","478740","0.0-7.0-0.33","20","230.2849999999744","","","","Images/NewTrialBCMM.png","39"
"image-keyboard-response","728","478996","0.0-7.0-1.33","20","null","","","","Images/WhiteBeadChoiceMM.png","null"
"image-keyboard-response","729","479502","0.0-7.0-2.33","20","null","","","","Images/WhiteBeadChoiceWrongMM.png","null"
"image-keyboard-response","730","480146","0.0-7.0-0.34","20","643.2949999999837","","","","Images/NewTrialBCMM.png","39"
"image-keyboard-response","731","480398","0.0-7.0-1.34","20","null","","","","Images/WhiteBeadChoiceMM.png","null"
"image-keyboard-response","732","480904","0.0-7.0-2.34","20","null","","","","Images/WhiteBeadChoiceWrongMM.png","null"
"image-keyboard-response","733","481294","0.0-7.0-0.35","20","388.6849999999977","","","","Images/NewTrialBCMM.png","39"
"image-keyboard-response","734","481550","0.0-7.0-1.35","20","null","","","","Images/WhiteBeadChoiceMM.png","null"
"image-keyboard-response","735","482056","0.0-7.0-2.35","20","null","","","","Images/WhiteBeadChoiceWrongMM.png","null"
"image-keyboard-response","736","482363","0.0-7.0-0.36","20","305.4199999999255","","","","Images/NewTrialBCMM.png","39"
"image-keyboard-response","737","482618","0.0-7.0-1.36","20","null","","","","Images/WhiteBeadChoiceMM.png","null"
"image-keyboard-response","738","483124","0.0-7.0-2.36","20","null","","","","Images/WhiteBeadChoiceCorrectMM.png","null"
"image-keyboard-response","739","483758","0.0-7.0-0.37","20","632.2150000000838","","","","Images/NewTrialWCMM.png","37"
"image-keyboard-response","740","484012","0.0-7.0-1.37","20","null","","","","Images/BlackBeadChoiceMM.png","null"
"image-keyboard-response","741","484518","0.0-7.0-2.37","20","null","","","","Images/BlackBeadChoiceWrongMM.png","null"
"image-keyboard-response","742","484781","0.0-7.0-0.38","20","262.4550000000745","","","","Images/NewTrialWCMM.png","37"
"image-keyboard-response","743","485035","0.0-7.0-1.38","20","null","","","","Images/BlackBeadChoiceMM.png","null"
"image-keyboard-response","744","485541","0.0-7.0-2.38","20","307.8050000000512","","","","Images/BlackBeadChoiceWrongMM.png","37"
"image-keyboard-response","745","485974","0.0-7.0-0.39","20","431.1700000000419","","","","Images/NewTrialWCMM.png","37"
"image-keyboard-response","746","486230","0.0-7.0-1.39","20","null","","","","Images/BlackBeadChoiceMM.png","null"
"image-keyboard-response","747","486733","0.0-7.0-2.39","20","null","","","","Images/BlackBeadChoiceWrongMM.png","null"
"image-keyboard-response","748","486987","0.0-7.0-0.40","20","252.70000000001164","","","","Images/NewTrialWCMM.png","39"
"image-keyboard-response","749","487242","0.0-7.0-1.40","20","null","","","","Images/WhiteBeadChoiceMM.png","null"
"image-keyboard-response","750","487745","0.0-7.0-2.40","20","null","","","","Images/WhiteBeadChoiceCorrectMM.png","null"
"image-keyboard-response","751","488123","0.0-7.0-0.41","20","376.75500000000466","","","","Images/NewTrialWCMM.png","37"
"image-keyboard-response","752","488379","0.0-7.0-1.41","20","null","","","","Images/BlackBeadChoiceMM.png","null"
"image-keyboard-response","753","488881","0.0-7.0-2.41","20","null","","","","Images/BlackBeadChoiceWrongMM.png","null"
"image-keyboard-response","754","489461","0.0-7.0-0.42","20","579.390000000014","","","","Images/NewTrialWCMM.png","37"
"image-keyboard-response","755","489714","0.0-7.0-1.42","20","null","","","","Images/BlackBeadChoiceMM.png","null"
"image-keyboard-response","756","490218","0.0-7.0-2.42","20","null","","","","Images/BlackBeadChoiceWrongMM.png","null"
"image-keyboard-response","757","490654","0.0-7.0-0.43","20","435.6049999999814","","","","Images/NewTrialWCMM.png","37"
"image-keyboard-response","758","490910","0.0-7.0-1.43","20","null","","","","Images/BlackBeadChoiceMM.png","null"
"image-keyboard-response","759","491416","0.0-7.0-2.43","20","null","","","","Images/BlackBeadChoiceWrongMM.png","null"
"image-keyboard-response","760","491835","0.0-7.0-0.44","20","417.86000000004424","","","","Images/NewTrialWCMM.png","37"
"image-keyboard-response","761","492088","0.0-7.0-1.44","20","null","","","","Images/BlackBeadChoiceMM.png","null"
"image-keyboard-response","762","492594","0.0-7.0-2.44","20","null","","","","Images/BlackBeadChoiceWrongMM.png","null"
"image-keyboard-response","763","492949","0.0-7.0-0.45","20","354.2400000000489","","","","Images/NewTrialWCMM.png","37"
"image-keyboard-response","764","493205","0.0-7.0-1.45","20","null","","","","Images/BlackBeadChoiceMM.png","null"
"image-keyboard-response","765","493711","0.0-7.0-2.45","20","null","","","","Images/BlackBeadChoiceWrongMM.png","null"
"image-keyboard-response","766","494164","0.0-7.0-0.46","20","452.13000000006286","","","","Images/NewTrialWCMM.png","37"
"image-keyboard-response","767","494415","0.0-7.0-1.46","20","null","","","","Images/BlackBeadChoiceMM.png","null"
"image-keyboard-response","768","494921","0.0-7.0-2.46","20","null","","","","Images/BlackBeadChoiceWrongMM.png","null"
"image-keyboard-response","769","495222","0.0-7.0-0.47","20","299.24500000005355","","","","Images/NewTrialWCMM.png","37"
"image-keyboard-response","770","495478","0.0-7.0-1.47","20","null","","","","Images/BlackBeadChoiceMM.png","null"
"image-keyboard-response","771","495980","0.0-7.0-2.47","20","null","","","","Images/BlackBeadChoiceWrongMM.png","null"
"image-keyboard-response","772","496426","0.0-7.0-0.48","20","445.40499999996973","","","","Images/NewTrialWCMM.png","37"
"image-keyboard-response","773","496682","0.0-7.0-1.48","20","null","","","","Images/BlackBeadChoiceMM.png","null"
"image-keyboard-response","774","497188","0.0-7.0-2.48","20","null","","","","Images/BlackBeadChoiceWrongMM.png","null"
"image-keyboard-response","775","497742","0.0-7.0-0.49","20","552.820000000007","","","","Images/NewTrialWCMM.png","37"
"image-keyboard-response","776","497998","0.0-7.0-1.49","20","null","","","","Images/BlackBeadChoiceMM.png","null"
"image-keyboard-response","777","498504","0.0-7.0-2.49","20","null","","","","Images/BlackBeadChoiceWrongMM.png","null"
"image-keyboard-response","778","499058","0.0-7.0-0.50","20","552.9799999999814","","","","Images/NewTrialWCMM.png","37"
"image-keyboard-response","779","499314","0.0-7.0-1.50","20","null","","","","Images/BlackBeadChoiceMM.png","null"
"image-keyboard-response","780","499820","0.0-7.0-2.50","20","null","","","","Images/BlackBeadChoiceWrongMM.png","null"
"image-keyboard-response","781","500161","0.0-7.0-0.51","20","339.32500000006985","","","","Images/NewTrialWCMM.png","37"
"image-keyboard-response","782","500417","0.0-7.0-1.51","20","null","","","","Images/BlackBeadChoiceMM.png","null"
"image-keyboard-response","783","500923","0.0-7.0-2.51","20","null","","","","Images/BlackBeadChoiceCorrectMM.png","null"
"image-keyboard-response","784","501005","0.0-7.0-0.52","20","80.25","","","","Images/NewTrialBCMM.png","39"
"image-keyboard-response","785","501260","0.0-7.0-1.52","20","null","","","","Images/WhiteBeadChoiceMM.png","null"
"image-keyboard-response","786","501766","0.0-7.0-2.52","20","null","","","","Images/WhiteBeadChoiceWrongMM.png","null"
"image-keyboard-response","787","502017","0.0-7.0-0.53","20","250.74500000005355","","","","Images/NewTrialBCMM.png","39"
"image-keyboard-response","788","502271","0.0-7.0-1.53","20","null","","","","Images/WhiteBeadChoiceMM.png","null"
"image-keyboard-response","789","502772","0.0-7.0-2.53","20","null","","","","Images/WhiteBeadChoiceWrongMM.png","null"
"image-keyboard-response","790","503030","0.0-7.0-0.54","20","256.5450000001001","","","","Images/NewTrialBCMM.png","37"
"image-keyboard-response","791","503285","0.0-7.0-1.54","20","null","","","","Images/BlackBeadChoiceMM.png","null"
"image-keyboard-response","792","503791","0.0-7.0-2.54","20","null","","","","Images/BlackBeadChoiceWrongMM.png","null"
"image-keyboard-response","793","504054","0.0-7.0-0.55","20","260.8199999999488","","","","Images/NewTrialWCMM.png","37"
"image-keyboard-response","794","504309","0.0-7.0-1.55","20","null","","","","Images/BlackBeadChoiceMM.png","null"
"image-keyboard-response","795","504814","0.0-7.0-2.55","20","null","","","","Images/BlackBeadChoiceWrongMM.png","null"
"image-keyboard-response","796","504909","0.0-7.0-0.56","20","93.37500000005821","","","","Images/NewTrialWCMM.png","37"
"image-keyboard-response","797","505165","0.0-7.0-1.56","20","null","","","","Images/BlackBeadChoiceMM.png","null"
"image-keyboard-response","798","505671","0.0-7.0-2.56","20","null","","","","Images/BlackBeadChoiceWrongMM.png","null"
"image-keyboard-response","799","505764","0.0-7.0-0.57","20","91.375","","","","Images/NewTrialWCMM.png","39"
"image-keyboard-response","800","506020","0.0-7.0-1.57","20","null","","","","Images/WhiteBeadChoiceMM.png","null"
"image-keyboard-response","801","506526","0.0-7.0-2.57","20","null","","","","Images/WhiteBeadChoiceCorrectMM.png","null"
"image-keyboard-response","802","506720","0.0-7.0-0.58","20","192.85499999998137","","","","Images/NewTrialWCMM.png","39"
"image-keyboard-response","803","506976","0.0-7.0-1.58","20","null","","","","Images/WhiteBeadChoiceMM.png","null"
"image-keyboard-response","804","507478","0.0-7.0-2.58","20","373.05000000004657","","","","Images/WhiteBeadChoiceCorrectMM.png","39"
"image-keyboard-response","805","507822","0.0-7.0-0.59","20","343.76000000012573","","","","Images/NewTrialWCMM.png","39"
"image-keyboard-response","806","508078","0.0-7.0-1.59","20","null","","","","Images/WhiteBeadChoiceMM.png","null"
"image-keyboard-response","807","508585","0.0-7.0-2.59","20","361.9400000000023","","","","Images/WhiteBeadChoiceCorrectMM.png","39"
"image-keyboard-response","808","508936","0.0-7.0-0.60","20","350.76500000001397","","","","Images/NewTrialWCMM.png","39"
