"trial_type","trial_index","time_elapsed","internal_node_id","Script_Picker","Block_Type","rt","url","responses","question_order","stimulus","key_press"
"pavlovia","0","4","0.0-0.0","7","High_HMMActual","","","","","",""
"external-html","1","1890246","0.0-1.0-0.0","7","High_HMMActual","1890217.6000000034","consent.html","","","",""
"survey-multi-choice","2","1897061","0.0-1.0-1.0","7","High_HMMActual","6810.474999998463","","{""Q0"":""Female"",""Q1"":""Other""}","[0,1]","",""
"survey-text","3","1901101","0.0-1.0-2.0","7","High_HMMActual","4031.8850000039674","","{""Q0"":""23""}","","",""
"survey-text","4","1908884","0.0-1.0-3.0","7","High_HMMActual","7680.915000004461","","{""Q0"":""5c7427d637793100010f8bff""}","","",""
"html-keyboard-response","5","1936033","0.0-2.0-0.0","7","High_HMMActual","27045.140000001993","","","","<div class=""container"" style=""height:800px;width:800px;display:flex;flex-direction:column;justify-content:center;align-items:center;text-align:center;font-weight:normal;font-family:Arial;font-size:20px""><p>In this task you will see black or white beads being pulled from jars. <br><br>On each trial, a bead will be pulled from one of two jars. Once you see this bead, your goal is to predict the color of NEXT bead that will be pulled. <br> <br>Every time you correctly guess the color of the NEXT bead, you will get a point. <br><br>Press the SPACEBAR to continue.</p><div>","32"
"html-keyboard-response","6","1946581","0.0-2.0-1.0","7","High_HMMActual","10548.224999998696","","","","<div class=""container"" style=""height:800px;width:800px;display:flex;flex-direction:column;justify-content:center;align-items:center;text-align:center;font-weight:normal;font-family:Arial;font-size:20px""><p>Jars are filled with 85% white or black beads and 15% of the opposite color mixed in<br><br>Press the SPACEBAR to continue. </p><div>","32"
"image-keyboard-response","7","1949762","0.0-2.0-2.0","7","High_HMMActual","3179.0049999980256","","","","resources/WhiteJar_HMM.png","32"
"image-keyboard-response","8","1951301","0.0-2.0-3.0","7","High_HMMActual","1538.7199999969453","","","","resources/BlackJar_HMM.png","32"
"html-keyboard-response","9","1958381","0.0-2.0-4.0","7","High_HMMActual","7079.535000004573","","","","<div class=""container"" style=""height:800px;width:800px;display:flex;flex-direction:column;justify-content:center;align-items:center;text-align:center;font-weight:normal;font-family:Arial;font-size:20px""><p>There will be two blocks of trials. Each block will contain 500 trials. <br><br>Here are examples of what you will see on each trial.<br><br>Press the SPACEBAR to continue. </p><div>","32"
"image-keyboard-response","10","1966764","0.0-2.0-5.0","7","High_HMMActual","8381.43500000285","","","","Images/NoChoice.png","32"
"html-keyboard-response","11","2001237","0.0-2.0-6.0","7","High_HMMActual","34472.600000001024","","","","<div class=""container"" style=""height:800px;width:800px;display:flex;flex-direction:column;justify-content:center;align-items:center;text-align:center;font-weight:normal;font-family:Arial;font-size:20px""><p> The jar the beads are pulled from is NOT choosen at random on each trial.<br><br>After each prediction, there will be a chance that the jars will switch, and that the next bead will be pulled from the opposite jar as the previous trial.<br><br>In each block, the chance that a jar will switch will either be LOW (the jars will not switch very often), or HIGH (the jars will switch almost all the time).<br><br>At the start of each block, you will be told the probability that the jars will switch on each trial. This switch probability will stay constant throughout the block.<br><br>Press the SPACEBAR to continue. </p><div>","32"
"image-keyboard-response","12","2009720","0.0-2.0-7.0","7","High_HMMActual","8482.109999997076","","","","Images/TutorialWhiteJarDrawHMMC.png","32"
"image-keyboard-response","13","2015766","0.0-2.0-8.0","7","High_HMMActual","6045.675000001211","","","","Images/TutorialBlackJarDrawHMMC.png","32"
"image-keyboard-response","14","2022705","0.0-2.0-9.0","7","High_HMMActual","6938.190000000875","","","","Images/TutorialBlackJarDrawHMMI.png","32"
"html-keyboard-response","15","2047661","0.0-2.0-10.0","7","High_HMMActual","24955.24999999907","","","","<div class=""container"" style=""height:800px;width:800px;display:flex;flex-direction:column;justify-content:center;align-items:center;text-align:center;font-weight:normal;font-family:Arial;font-size:20px""><p> As you observed, a white bead was pulled from a 85% white jar, the jars switched and a black bead was pulled from the 85% black jar, but then low-probability white bead was pulled from the 90% black jar. <br><br>In these mixed-jar blocks, you will first have to figure out which jar the current bead was pulled from, then use the jar switch probability to predict the color of the next bead.<br><br>Press SPACEBAR to conitnue.</p><div>","32"
"html-keyboard-response","16","2049802","0.0-2.0-11.0","7","High_HMMActual","2140.335000003688","","","","<div class=""container"" style=""height:800px;width:800px;display:flex;flex-direction:column;justify-content:center;align-items:center;text-align:center;font-weight:normal;font-family:Arial;font-size:20px""><p> You will now be given a 2 question quiz to make sure you understand the fundamentals. </p><div>","32"
"image-keyboard-response","17","2059432","0.0-2.0-12.0","7","High_HMMActual","9629.55499999947","","","","Images/TutorialQuestion1.png","39"
"image-keyboard-response","18","2075306","0.0-2.0-13.0","7","High_HMMActual","5556.470000002999","","","","Images/TutorialQuestion2.png","38"
"html-keyboard-response","19","2102074","0.0-3.0","7","High_HMMActual","24795.770000003977","","","","<div class=""container"" style=""height:800px;width:800px;display:flex;flex-direction:column;justify-content:center;align-items:center;text-align:center;font-weight:normal;font-family:Arial;font-size:20px""><p>Loading episode&hellip;</p><div>","32"
"image-keyboard-response","20","2109232","0.0-4.0-0.0","7","High_HMMActual","7156.994999997318","","","","Images/NoChoice.png","37"
"image-keyboard-response","21","2109484","0.0-4.0-1.0","7","High_HMMActual","null","","","","Images/BlackBeadChoice.png","null"
"image-keyboard-response","22","2109986","0.0-4.0-2.0","7","High_HMMActual","null","","","","Images/BlackBeadChoiceWrong.png","null"
"image-keyboard-response","23","2115155","0.0-4.0-0.1","7","High_HMMActual","5167.7750000017695","","","","Images/NewTrialWC.png","37"
"image-keyboard-response","24","2115406","0.0-4.0-1.1","7","High_HMMActual","null","","","","Images/BlackBeadChoice.png","null"
"image-keyboard-response","25","2115908","0.0-4.0-2.1","7","High_HMMActual","null","","","","Images/BlackBeadChoiceCorrect.png","null"
"image-keyboard-response","26","2121119","0.0-4.0-0.2","7","High_HMMActual","5210.140000002924","","","","Images/NewTrialBC.png","39"
"image-keyboard-response","27","2121370","0.0-4.0-1.2","7","High_HMMActual","null","","","","Images/WhiteBeadChoice.png","null"
"image-keyboard-response","28","2121872","0.0-4.0-2.2","7","High_HMMActual","null","","","","Images/WhiteBeadChoiceCorrect.png","null"
"image-keyboard-response","29","2124376","0.0-4.0-0.3","7","High_HMMActual","2502.7349999947473","","","","Images/NewTrialWC.png","39"
"image-keyboard-response","30","2124628","0.0-4.0-1.3","7","High_HMMActual","null","","","","Images/WhiteBeadChoice.png","null"
"image-keyboard-response","31","2125129","0.0-4.0-2.3","7","High_HMMActual","null","","","","Images/WhiteBeadChoiceWrong.png","null"
"image-keyboard-response","32","2126418","0.0-4.0-0.4","7","High_HMMActual","1287.2700000004843","","","","Images/NewTrialBC.png","39"
"image-keyboard-response","33","2126669","0.0-4.0-1.4","7","High_HMMActual","null","","","","Images/WhiteBeadChoice.png","null"
"image-keyboard-response","34","2127171","0.0-4.0-2.4","7","High_HMMActual","null","","","","Images/WhiteBeadChoiceCorrect.png","null"
"image-keyboard-response","35","2128430","0.0-4.0-0.5","7","High_HMMActual","1257.949999999255","","","","Images/NewTrialWC.png","37"
"image-keyboard-response","36","2128682","0.0-4.0-1.5","7","High_HMMActual","null","","","","Images/BlackBeadChoice.png","null"
"image-keyboard-response","37","2129183","0.0-4.0-2.5","7","High_HMMActual","null","","","","Images/BlackBeadChoiceCorrect.png","null"
"image-keyboard-response","38","2130145","0.0-4.0-0.6","7","High_HMMActual","961.0299999988638","","","","Images/NewTrialBC.png","39"
"image-keyboard-response","39","2130395","0.0-4.0-1.6","7","High_HMMActual","null","","","","Images/WhiteBeadChoice.png","null"
"image-keyboard-response","40","2130898","0.0-4.0-2.6","7","High_HMMActual","null","","","","Images/WhiteBeadChoiceCorrect.png","null"
"image-keyboard-response","41","2132395","0.0-4.0-0.7","7","High_HMMActual","1496.0449999999255","","","","Images/NewTrialWC.png","37"
"image-keyboard-response","42","2132648","0.0-4.0-1.7","7","High_HMMActual","null","","","","Images/BlackBeadChoice.png","null"
"image-keyboard-response","43","2133149","0.0-4.0-2.7","7","High_HMMActual","null","","","","Images/BlackBeadChoiceCorrect.png","null"
"image-keyboard-response","44","2134052","0.0-4.0-0.8","7","High_HMMActual","901.4099999982864","","","","Images/NewTrialBC.png","39"
"image-keyboard-response","45","2134303","0.0-4.0-1.8","7","High_HMMActual","null","","","","Images/WhiteBeadChoice.png","null"
"image-keyboard-response","46","2134805","0.0-4.0-2.8","7","High_HMMActual","null","","","","Images/WhiteBeadChoiceCorrect.png","null"
"image-keyboard-response","47","2135650","0.0-4.0-0.9","7","High_HMMActual","844.9099999996834","","","","Images/NewTrialWC.png","37"
"image-keyboard-response","48","2135903","0.0-4.0-1.9","7","High_HMMActual","null","","","","Images/BlackBeadChoice.png","null"
"image-keyboard-response","49","2136404","0.0-4.0-2.9","7","High_HMMActual","null","","","","Images/BlackBeadChoiceCorrect.png","null"
"image-keyboard-response","50","2137046","0.0-4.0-0.10","7","High_HMMActual","640.9600000046194","","","","Images/NewTrialBC.png","39"
"image-keyboard-response","51","2137298","0.0-4.0-1.10","7","High_HMMActual","null","","","","Images/WhiteBeadChoice.png","null"
"image-keyboard-response","52","2137800","0.0-4.0-2.10","7","High_HMMActual","null","","","","Images/WhiteBeadChoiceCorrect.png","null"
"image-keyboard-response","53","2139219","0.0-4.0-0.11","7","High_HMMActual","1418.5599999981932","","","","Images/NewTrialWC.png","37"
"image-keyboard-response","54","2139471","0.0-4.0-1.11","7","High_HMMActual","null","","","","Images/BlackBeadChoice.png","null"
"image-keyboard-response","55","2139974","0.0-4.0-2.11","7","High_HMMActual","null","","","","Images/BlackBeadChoiceCorrect.png","null"
"image-keyboard-response","56","2140867","0.0-4.0-0.12","7","High_HMMActual","892.0050000012852","","","","Images/NewTrialBC.png","39"
"image-keyboard-response","57","2141118","0.0-4.0-1.12","7","High_HMMActual","30.500000000931323","","","","Images/WhiteBeadChoice.png","39"
"image-keyboard-response","58","2141621","0.0-4.0-2.12","7","High_HMMActual","null","","","","Images/WhiteBeadChoiceCorrect.png","null"
"image-keyboard-response","59","2142486","0.0-4.0-0.13","7","High_HMMActual","863.875000002794","","","","Images/NewTrialWC.png","37"
"image-keyboard-response","60","2142737","0.0-4.0-1.13","7","High_HMMActual","null","","","","Images/BlackBeadChoice.png","null"
"image-keyboard-response","61","2143239","0.0-4.0-2.13","7","High_HMMActual","null","","","","Images/BlackBeadChoiceCorrect.png","null"
"image-keyboard-response","62","2143960","0.0-4.0-0.14","7","High_HMMActual","719.3699999991804","","","","Images/NewTrialBC.png","39"
"image-keyboard-response","63","2144212","0.0-4.0-1.14","7","High_HMMActual","null","","","","Images/WhiteBeadChoice.png","null"
"image-keyboard-response","64","2144713","0.0-4.0-2.14","7","High_HMMActual","null","","","","Images/WhiteBeadChoiceCorrect.png","null"
"image-keyboard-response","65","2145316","0.0-4.0-0.15","7","High_HMMActual","601.9049999956042","","","","Images/NewTrialWC.png","37"
"image-keyboard-response","66","2145568","0.0-4.0-1.15","7","High_HMMActual","null","","","","Images/BlackBeadChoice.png","null"
"image-keyboard-response","67","2146070","0.0-4.0-2.15","7","High_HMMActual","null","","","","Images/BlackBeadChoiceWrong.png","null"
"image-keyboard-response","68","2148007","0.0-4.0-0.16","7","High_HMMActual","1936.7700000000186","","","","Images/NewTrialWC.png","37"
"image-keyboard-response","69","2148260","0.0-4.0-1.16","7","High_HMMActual","null","","","","Images/BlackBeadChoice.png","null"
"image-keyboard-response","70","2148761","0.0-4.0-2.16","7","High_HMMActual","null","","","","Images/BlackBeadChoiceWrong.png","null"
"image-keyboard-response","71","2149375","0.0-4.0-0.17","7","High_HMMActual","613.2050000014715","","","","Images/NewTrialWC.png","37"
"image-keyboard-response","72","2149627","0.0-4.0-1.17","7","High_HMMActual","null","","","","Images/BlackBeadChoice.png","null"
"image-keyboard-response","73","2150130","0.0-4.0-2.17","7","High_HMMActual","null","","","","Images/BlackBeadChoiceCorrect.png","null"
"image-keyboard-response","74","2153513","0.0-4.0-0.18","7","High_HMMActual","3382.3600000031292","","","","Images/NewTrialBC.png","37"
"image-keyboard-response","75","2153765","0.0-4.0-1.18","7","High_HMMActual","null","","","","Images/BlackBeadChoice.png","null"
"image-keyboard-response","76","2154267","0.0-4.0-2.18","7","High_HMMActual","null","","","","Images/BlackBeadChoiceWrong.png","null"
"image-keyboard-response","77","2154851","0.0-4.0-0.19","7","High_HMMActual","583.5200000000186","","","","Images/NewTrialWC.png","37"
"image-keyboard-response","78","2155102","0.0-4.0-1.19","7","High_HMMActual","null","","","","Images/BlackBeadChoice.png","null"
"image-keyboard-response","79","2155605","0.0-4.0-2.19","7","High_HMMActual","null","","","","Images/BlackBeadChoiceWrong.png","null"
"image-keyboard-response","80","2156491","0.0-4.0-0.20","7","High_HMMActual","884.570000001695","","","","Images/NewTrialWC.png","37"
"image-keyboard-response","81","2156742","0.0-4.0-1.20","7","High_HMMActual","null","","","","Images/BlackBeadChoice.png","null"
"image-keyboard-response","82","2157244","0.0-4.0-2.20","7","High_HMMActual","null","","","","Images/BlackBeadChoiceCorrect.png","null"
"image-keyboard-response","83","2158556","0.0-4.0-0.21","7","High_HMMActual","1311.0100000048988","","","","Images/NewTrialBC.png","39"
"image-keyboard-response","84","2158808","0.0-4.0-1.21","7","High_HMMActual","null","","","","Images/WhiteBeadChoice.png","null"
"image-keyboard-response","85","2159309","0.0-4.0-2.21","7","High_HMMActual","null","","","","Images/WhiteBeadChoiceCorrect.png","null"
"image-keyboard-response","86","2160081","0.0-4.0-0.22","7","High_HMMActual","771.2250000038184","","","","Images/NewTrialWC.png","39"
"image-keyboard-response","87","2160332","0.0-4.0-1.22","7","High_HMMActual","null","","","","Images/WhiteBeadChoice.png","null"
"image-keyboard-response","88","2160833","0.0-4.0-2.22","7","High_HMMActual","null","","","","Images/WhiteBeadChoiceWrong.png","null"
"image-keyboard-response","89","2161268","0.0-4.0-0.23","7","High_HMMActual","433.5500000012107","","","","Images/NewTrialBC.png","39"
"image-keyboard-response","90","2161519","0.0-4.0-1.23","7","High_HMMActual","null","","","","Images/WhiteBeadChoice.png","null"
"image-keyboard-response","91","2162021","0.0-4.0-2.23","7","High_HMMActual","null","","","","Images/WhiteBeadChoiceCorrect.png","null"
"image-keyboard-response","92","2162369","0.0-4.0-0.24","7","High_HMMActual","347.5200000028126","","","","Images/NewTrialWC.png","39"
"image-keyboard-response","93","2162621","0.0-4.0-1.24","7","High_HMMActual","null","","","","Images/WhiteBeadChoice.png","null"
"image-keyboard-response","94","2163123","0.0-4.0-2.24","7","High_HMMActual","null","","","","Images/WhiteBeadChoiceCorrect.png","null"
"image-keyboard-response","95","2163569","0.0-4.0-0.25","7","High_HMMActual","444.8950000004843","","","","Images/NewTrialWC.png","39"
"image-keyboard-response","96","2163820","0.0-4.0-1.25","7","High_HMMActual","null","","","","Images/WhiteBeadChoice.png","null"
"image-keyboard-response","97","2164322","0.0-4.0-2.25","7","High_HMMActual","null","","","","Images/WhiteBeadChoiceCorrect.png","null"
"image-keyboard-response","98","2165274","0.0-4.0-0.26","7","High_HMMActual","951.4249999993481","","","","Images/NewTrialWC.png","37"
"image-keyboard-response","99","2165525","0.0-4.0-1.26","7","High_HMMActual","null","","","","Images/BlackBeadChoice.png","null"
"image-keyboard-response","100","2166026","0.0-4.0-2.26","7","High_HMMActual","null","","","","Images/BlackBeadChoiceCorrect.png","null"
"image-keyboard-response","101","2168910","0.0-4.0-0.27","7","High_HMMActual","2883.19000000041","","","","Images/NewTrialBC.png","39"
"image-keyboard-response","102","2169162","0.0-4.0-1.27","7","High_HMMActual","null","","","","Images/WhiteBeadChoice.png","null"
"image-keyboard-response","103","2169663","0.0-4.0-2.27","7","High_HMMActual","null","","","","Images/WhiteBeadChoiceCorrect.png","null"
"image-keyboard-response","104","2170714","0.0-4.0-0.28","7","High_HMMActual","1049.6899999999441","","","","Images/NewTrialWC.png","37"
"image-keyboard-response","105","2170966","0.0-4.0-1.28","7","High_HMMActual","null","","","","Images/BlackBeadChoice.png","null"
"image-keyboard-response","106","2171468","0.0-4.0-2.28","7","High_HMMActual","null","","","","Images/BlackBeadChoiceCorrect.png","null"
"image-keyboard-response","107","2172018","0.0-4.0-0.29","7","High_HMMActual","549.2250000024214","","","","Images/NewTrialBC.png","39"
"image-keyboard-response","108","2172270","0.0-4.0-1.29","7","High_HMMActual","null","","","","Images/WhiteBeadChoice.png","null"
"image-keyboard-response","109","2172771","0.0-4.0-2.29","7","High_HMMActual","null","","","","Images/WhiteBeadChoiceCorrect.png","null"
"image-keyboard-response","110","2173392","0.0-4.0-0.30","7","High_HMMActual","620.0049999970943","","","","Images/NewTrialWC.png","37"
"image-keyboard-response","111","2173644","0.0-4.0-1.30","7","High_HMMActual","null","","","","Images/BlackBeadChoice.png","null"
"image-keyboard-response","112","2174146","0.0-4.0-2.30","7","High_HMMActual","null","","","","Images/BlackBeadChoiceCorrect.png","null"
"image-keyboard-response","113","2174608","0.0-4.0-0.31","7","High_HMMActual","461.0200000028126","","","","Images/NewTrialBC.png","39"
"image-keyboard-response","114","2174859","0.0-4.0-1.31","7","High_HMMActual","null","","","","Images/WhiteBeadChoice.png","null"
"image-keyboard-response","115","2175361","0.0-4.0-2.31","7","High_HMMActual","null","","","","Images/WhiteBeadChoiceCorrect.png","null"
"image-keyboard-response","116","2176168","0.0-4.0-0.32","7","High_HMMActual","806.570000000298","","","","Images/NewTrialWC.png","39"
"image-keyboard-response","117","2176420","0.0-4.0-1.32","7","High_HMMActual","null","","","","Images/WhiteBeadChoice.png","null"
"image-keyboard-response","118","2176922","0.0-4.0-2.32","7","High_HMMActual","null","","","","Images/WhiteBeadChoiceWrong.png","null"
"image-keyboard-response","119","2177596","0.0-4.0-0.33","7","High_HMMActual","672.7949999985285","","","","Images/NewTrialBC.png","39"
"image-keyboard-response","120","2177848","0.0-4.0-1.33","7","High_HMMActual","null","","","","Images/WhiteBeadChoice.png","null"
"image-keyboard-response","121","2178349","0.0-4.0-2.33","7","High_HMMActual","null","","","","Images/WhiteBeadChoiceCorrect.png","null"
"image-keyboard-response","122","2178631","0.0-4.0-0.34","7","High_HMMActual","280.9999999953434","","","","Images/NewTrialWC.png","39"
"image-keyboard-response","123","2178883","0.0-4.0-1.34","7","High_HMMActual","null","","","","Images/WhiteBeadChoice.png","null"
"image-keyboard-response","124","2179385","0.0-4.0-2.34","7","High_HMMActual","null","","","","Images/WhiteBeadChoiceWrong.png","null"
"image-keyboard-response","125","2179789","0.0-4.0-0.35","7","High_HMMActual","403.4800000009127","","","","Images/NewTrialBC.png","39"
"image-keyboard-response","126","2180041","0.0-4.0-1.35","7","High_HMMActual","null","","","","Images/WhiteBeadChoice.png","null"
"image-keyboard-response","127","2180542","0.0-4.0-2.35","7","High_HMMActual","null","","","","Images/WhiteBeadChoiceCorrect.png","null"
"image-keyboard-response","128","2180912","0.0-4.0-0.36","7","High_HMMActual","368.7250000005588","","","","Images/NewTrialWC.png","37"
"image-keyboard-response","129","2181164","0.0-4.0-1.36","7","High_HMMActual","null","","","","Images/BlackBeadChoice.png","null"
"image-keyboard-response","130","2181665","0.0-4.0-2.36","7","High_HMMActual","null","","","","Images/BlackBeadChoiceCorrect.png","null"
"image-keyboard-response","131","2182021","0.0-4.0-0.37","7","High_HMMActual","354.6399999978021","","","","Images/NewTrialBC.png","39"
"image-keyboard-response","132","2182273","0.0-4.0-1.37","7","High_HMMActual","null","","","","Images/WhiteBeadChoice.png","null"
"image-keyboard-response","133","2182774","0.0-4.0-2.37","7","High_HMMActual","null","","","","Images/WhiteBeadChoiceCorrect.png","null"
"image-keyboard-response","134","2183272","0.0-4.0-0.38","7","High_HMMActual","496.22500000242144","","","","Images/NewTrialWC.png","37"
"image-keyboard-response","135","2183523","0.0-4.0-1.38","7","High_HMMActual","null","","","","Images/BlackBeadChoice.png","null"
"image-keyboard-response","136","2184025","0.0-4.0-2.38","7","High_HMMActual","null","","","","Images/BlackBeadChoiceCorrect.png","null"
"image-keyboard-response","137","2184298","0.0-4.0-0.39","7","High_HMMActual","272.2750000031665","","","","Images/NewTrialBC.png","39"
"image-keyboard-response","138","2184550","0.0-4.0-1.39","7","High_HMMActual","null","","","","Images/WhiteBeadChoice.png","null"
"image-keyboard-response","139","2185052","0.0-4.0-2.39","7","High_HMMActual","null","","","","Images/WhiteBeadChoiceCorrect.png","null"
"image-keyboard-response","140","2185409","0.0-4.0-0.40","7","High_HMMActual","355.78499999968335","","","","Images/NewTrialWC.png","37"
"image-keyboard-response","141","2185661","0.0-4.0-1.40","7","High_HMMActual","null","","","","Images/BlackBeadChoice.png","null"
"image-keyboard-response","142","2186162","0.0-4.0-2.40","7","High_HMMActual","null","","","","Images/BlackBeadChoiceCorrect.png","null"
"image-keyboard-response","143","2186507","0.0-4.0-0.41","7","High_HMMActual","343.4199999975972","","","","Images/NewTrialBC.png","39"
"image-keyboard-response","144","2186759","0.0-4.0-1.41","7","High_HMMActual","null","","","","Images/WhiteBeadChoice.png","null"
"image-keyboard-response","145","2187260","0.0-4.0-2.41","7","High_HMMActual","null","","","","Images/WhiteBeadChoiceCorrect.png","null"
"image-keyboard-response","146","2187538","0.0-4.0-0.42","7","High_HMMActual","276.78999999631196","","","","Images/NewTrialWC.png","37"
"image-keyboard-response","147","2187790","0.0-4.0-1.42","7","High_HMMActual","null","","","","Images/BlackBeadChoice.png","null"
"image-keyboard-response","148","2188292","0.0-4.0-2.42","7","High_HMMActual","null","","","","Images/BlackBeadChoiceCorrect.png","null"
"image-keyboard-response","149","2188462","0.0-4.0-0.43","7","High_HMMActual","169.80500000482425","","","","Images/NewTrialBC.png","39"
"image-keyboard-response","150","2188713","0.0-4.0-1.43","7","High_HMMActual","null","","","","Images/WhiteBeadChoice.png","null"
"image-keyboard-response","151","2189215","0.0-4.0-2.43","7","High_HMMActual","null","","","","Images/WhiteBeadChoiceCorrect.png","null"
"image-keyboard-response","152","2189321","0.0-4.0-0.44","7","High_HMMActual","105.26500000571832","","","","Images/NewTrialWC.png","37"
"image-keyboard-response","153","2189572","0.0-4.0-1.44","7","High_HMMActual","null","","","","Images/BlackBeadChoice.png","null"
"image-keyboard-response","154","2190074","0.0-4.0-2.44","7","High_HMMActual","null","","","","Images/BlackBeadChoiceCorrect.png","null"
"image-keyboard-response","155","2190101","0.0-4.0-0.45","7","High_HMMActual","26.584999999497086","","","","Images/NewTrialBC.png","39"
"image-keyboard-response","156","2190355","0.0-4.0-1.45","7","High_HMMActual","null","","","","Images/WhiteBeadChoice.png","null"
"image-keyboard-response","157","2190856","0.0-4.0-2.45","7","High_HMMActual","null","","","","Images/WhiteBeadChoiceCorrect.png","null"
"image-keyboard-response","158","2191270","0.0-4.0-0.46","7","High_HMMActual","412.499999998603","","","","Images/NewTrialWC.png","37"
"image-keyboard-response","159","2191520","0.0-4.0-1.46","7","High_HMMActual","null","","","","Images/BlackBeadChoice.png","null"
"image-keyboard-response","160","2192022","0.0-4.0-2.46","7","High_HMMActual","448.8899999996647","","","","Images/BlackBeadChoiceCorrect.png","39"
"image-keyboard-response","161","2194276","0.0-4.0-0.47","7","High_HMMActual","2252.795000000391","","","","Images/NewTrialBC.png","39"
"image-keyboard-response","162","2194529","0.0-4.0-1.47","7","High_HMMActual","null","","","","Images/WhiteBeadChoice.png","null"
"image-keyboard-response","163","2195030","0.0-4.0-2.47","7","High_HMMActual","null","","","","Images/WhiteBeadChoiceWrong.png","null"
"image-keyboard-response","164","2195812","0.0-4.0-0.48","7","High_HMMActual","781.0600000009872","","","","Images/NewTrialBC.png","37"
"image-keyboard-response","165","2196063","0.0-4.0-1.48","7","High_HMMActual","null","","","","Images/BlackBeadChoice.png","null"
"image-keyboard-response","166","2196565","0.0-4.0-2.48","7","High_HMMActual","null","","","","Images/BlackBeadChoiceCorrect.png","null"
"image-keyboard-response","167","2197555","0.0-4.0-0.49","7","High_HMMActual","988.8300000019372","","","","Images/NewTrialBC.png","37"
"image-keyboard-response","168","2197806","0.0-4.0-1.49","7","High_HMMActual","null","","","","Images/BlackBeadChoice.png","null"
"image-keyboard-response","169","2198308","0.0-4.0-2.49","7","High_HMMActual","null","","","","Images/BlackBeadChoiceWrong.png","null"
"image-keyboard-response","170","2199763","0.0-4.0-0.50","7","High_HMMActual","1454.0750000011176","","","","Images/NewTrialWC.png","37"
"image-keyboard-response","171","2200014","0.0-4.0-1.50","7","High_HMMActual","null","","","","Images/BlackBeadChoice.png","null"
"image-keyboard-response","172","2200516","0.0-4.0-2.50","7","High_HMMActual","null","","","","Images/BlackBeadChoiceCorrect.png","null"
"image-keyboard-response","173","2201031","0.0-4.0-0.51","7","High_HMMActual","514.304999996908","","","","Images/NewTrialBC.png","39"
"image-keyboard-response","174","2201283","0.0-4.0-1.51","7","High_HMMActual","null","","","","Images/WhiteBeadChoice.png","null"
"image-keyboard-response","175","2201784","0.0-4.0-2.51","7","High_HMMActual","null","","","","Images/WhiteBeadChoiceCorrect.png","null"
"image-keyboard-response","176","2202187","0.0-4.0-0.52","7","High_HMMActual","401.6550000011921","","","","Images/NewTrialWC.png","37"
"image-keyboard-response","177","2202439","0.0-4.0-1.52","7","High_HMMActual","null","","","","Images/BlackBeadChoice.png","null"
"image-keyboard-response","178","2202940","0.0-4.0-2.52","7","High_HMMActual","null","","","","Images/BlackBeadChoiceCorrect.png","null"
"image-keyboard-response","179","2203217","0.0-4.0-0.53","7","High_HMMActual","275.40500000026077","","","","Images/NewTrialBC.png","39"
"image-keyboard-response","180","2203468","0.0-4.0-1.53","7","High_HMMActual","null","","","","Images/WhiteBeadChoice.png","null"
"image-keyboard-response","181","2203969","0.0-4.0-2.53","7","High_HMMActual","null","","","","Images/WhiteBeadChoiceCorrect.png","null"
"image-keyboard-response","182","2204164","0.0-4.0-0.54","7","High_HMMActual","194.06999999796972","","","","Images/NewTrialWC.png","37"
"image-keyboard-response","183","2204416","0.0-4.0-1.54","7","High_HMMActual","null","","","","Images/BlackBeadChoice.png","null"
"image-keyboard-response","184","2204918","0.0-4.0-2.54","7","High_HMMActual","null","","","","Images/BlackBeadChoiceCorrect.png","null"
"image-keyboard-response","185","2205215","0.0-4.0-0.55","7","High_HMMActual","295.7299999981187","","","","Images/NewTrialBC.png","39"
"image-keyboard-response","186","2205465","0.0-4.0-1.55","7","High_HMMActual","null","","","","Images/WhiteBeadChoice.png","null"
"image-keyboard-response","187","2205967","0.0-4.0-2.55","7","High_HMMActual","null","","","","Images/WhiteBeadChoiceCorrect.png","null"
"image-keyboard-response","188","2206346","0.0-4.0-0.56","7","High_HMMActual","378.3499999991618","","","","Images/NewTrialWC.png","37"
"image-keyboard-response","189","2206598","0.0-4.0-1.56","7","High_HMMActual","null","","","","Images/BlackBeadChoice.png","null"
"image-keyboard-response","190","2207100","0.0-4.0-2.56","7","High_HMMActual","null","","","","Images/BlackBeadChoiceCorrect.png","null"
"image-keyboard-response","191","2207498","0.0-4.0-0.57","7","High_HMMActual","397.5399999981746","","","","Images/NewTrialBC.png","39"
"image-keyboard-response","192","2207750","0.0-4.0-1.57","7","High_HMMActual","null","","","","Images/WhiteBeadChoice.png","null"
"image-keyboard-response","193","2208252","0.0-4.0-2.57","7","High_HMMActual","null","","","","Images/WhiteBeadChoiceCorrect.png","null"
"image-keyboard-response","194","2208602","0.0-4.0-0.58","7","High_HMMActual","348.8350000041537","","","","Images/NewTrialWC.png","37"
"image-keyboard-response","195","2208854","0.0-4.0-1.58","7","High_HMMActual","null","","","","Images/BlackBeadChoice.png","null"
"image-keyboard-response","196","2209356","0.0-4.0-2.58","7","High_HMMActual","null","","","","Images/BlackBeadChoiceWrong.png","null"
"image-keyboard-response","197","2210114","0.0-4.0-0.59","7","High_HMMActual","756.7499999930151","","","","Images/NewTrialWC.png","39"
"image-keyboard-response","198","2210365","0.0-4.0-1.59","7","High_HMMActual","null","","","","Images/WhiteBeadChoice.png","null"
"image-keyboard-response","199","2210867","0.0-4.0-2.59","7","High_HMMActual","null","","","","Images/WhiteBeadChoiceCorrect.png","null"
"image-keyboard-response","200","2211802","0.0-4.0-0.60","7","High_HMMActual","934.3549999976531","","","","Images/NewTrialWC.png","37"
"image-keyboard-response","201","2212054","0.0-4.0-1.60","7","High_HMMActual","null","","","","Images/BlackBeadChoice.png","null"
"image-keyboard-response","202","2212555","0.0-4.0-2.60","7","High_HMMActual","null","","","","Images/BlackBeadChoiceCorrect.png","null"
"image-keyboard-response","203","2215760","0.0-4.0-0.61","7","High_HMMActual","3203.204999998212","","","","Images/NewTrialBC.png","39"
"image-keyboard-response","204","2216011","0.0-4.0-1.61","7","High_HMMActual","null","","","","Images/WhiteBeadChoice.png","null"
"image-keyboard-response","205","2216513","0.0-4.0-2.61","7","High_HMMActual","null","","","","Images/WhiteBeadChoiceWrong.png","null"
"image-keyboard-response","206","2217517","0.0-4.0-0.62","7","High_HMMActual","1002.8950000051409","","","","Images/NewTrialBC.png","39"
"image-keyboard-response","207","2217768","0.0-4.0-1.62","7","High_HMMActual","null","","","","Images/WhiteBeadChoice.png","null"
"image-keyboard-response","208","2218269","0.0-4.0-2.62","7","High_HMMActual","null","","","","Images/WhiteBeadChoiceWrong.png","null"
"image-keyboard-response","209","2218692","0.0-4.0-0.63","7","High_HMMActual","421.59999999403954","","","","Images/NewTrialBC.png","39"
"image-keyboard-response","210","2218943","0.0-4.0-1.63","7","High_HMMActual","null","","","","Images/WhiteBeadChoice.png","null"
"image-keyboard-response","211","2219445","0.0-4.0-2.63","7","High_HMMActual","null","","","","Images/WhiteBeadChoiceCorrect.png","null"
"image-keyboard-response","212","2219778","0.0-4.0-0.64","7","High_HMMActual","331.58999999426305","","","","Images/NewTrialWC.png","37"
"image-keyboard-response","213","2220029","0.0-4.0-1.64","7","High_HMMActual","null","","","","Images/BlackBeadChoice.png","null"
"image-keyboard-response","214","2220531","0.0-4.0-2.64","7","High_HMMActual","null","","","","Images/BlackBeadChoiceWrong.png","null"
"image-keyboard-response","215","2220774","0.0-4.0-0.65","7","High_HMMActual","241.58500000368804","","","","Images/NewTrialWC.png","39"
"image-keyboard-response","216","2221026","0.0-4.0-1.65","7","High_HMMActual","null","","","","Images/WhiteBeadChoice.png","null"
"image-keyboard-response","217","2221527","0.0-4.0-2.65","7","High_HMMActual","null","","","","Images/WhiteBeadChoiceWrong.png","null"
"image-keyboard-response","218","2221751","0.0-4.0-0.66","7","High_HMMActual","222.78499999828637","","","","Images/NewTrialBC.png","37"
"image-keyboard-response","219","2222003","0.0-4.0-1.66","7","High_HMMActual","null","","","","Images/BlackBeadChoice.png","null"
"image-keyboard-response","220","2222505","0.0-4.0-2.66","7","High_HMMActual","null","","","","Images/BlackBeadChoiceWrong.png","null"
"image-keyboard-response","221","2224124","0.0-4.0-0.67","7","High_HMMActual","1618.445000000298","","","","Images/NewTrialWC.png","37"
"image-keyboard-response","222","2224376","0.0-4.0-1.67","7","High_HMMActual","null","","","","Images/BlackBeadChoice.png","null"
"image-keyboard-response","223","2224879","0.0-4.0-2.67","7","High_HMMActual","null","","","","Images/BlackBeadChoiceCorrect.png","null"
"image-keyboard-response","224","2225515","0.0-4.0-0.68","7","High_HMMActual","635.855000000447","","","","Images/NewTrialBC.png","39"
"image-keyboard-response","225","2225767","0.0-4.0-1.68","7","High_HMMActual","null","","","","Images/WhiteBeadChoice.png","null"
"image-keyboard-response","226","2226269","0.0-4.0-2.68","7","High_HMMActual","null","","","","Images/WhiteBeadChoiceCorrect.png","null"
"image-keyboard-response","227","2226597","0.0-4.0-0.69","7","High_HMMActual","326.82000000216067","","","","Images/NewTrialWC.png","37"
"image-keyboard-response","228","2226847","0.0-4.0-1.69","7","High_HMMActual","null","","","","Images/BlackBeadChoice.png","null"
"image-keyboard-response","229","2227349","0.0-4.0-2.69","7","High_HMMActual","null","","","","Images/BlackBeadChoiceCorrect.png","null"
"image-keyboard-response","230","2227733","0.0-4.0-0.70","7","High_HMMActual","383.58499999623746","","","","Images/NewTrialBC.png","39"
"image-keyboard-response","231","2227985","0.0-4.0-1.70","7","High_HMMActual","null","","","","Images/WhiteBeadChoice.png","null"
"image-keyboard-response","232","2228487","0.0-4.0-2.70","7","High_HMMActual","null","","","","Images/WhiteBeadChoiceCorrect.png","null"
"image-keyboard-response","233","2228922","0.0-4.0-0.71","7","High_HMMActual","434.27499999990687","","","","Images/NewTrialWC.png","37"
"image-keyboard-response","234","2229174","0.0-4.0-1.71","7","High_HMMActual","null","","","","Images/BlackBeadChoice.png","null"
"image-keyboard-response","235","2229676","0.0-4.0-2.71","7","High_HMMActual","null","","","","Images/BlackBeadChoiceCorrect.png","null"
"image-keyboard-response","236","2230282","0.0-4.0-0.72","7","High_HMMActual","605.800000004936","","","","Images/NewTrialBC.png","39"
"image-keyboard-response","237","2230534","0.0-4.0-1.72","7","High_HMMActual","null","","","","Images/WhiteBeadChoice.png","null"
"image-keyboard-response","238","2231036","0.0-4.0-2.72","7","High_HMMActual","null","","","","Images/WhiteBeadChoiceCorrect.png","null"
"image-keyboard-response","239","2232896","0.0-4.0-0.73","7","High_HMMActual","1858.5349999992177","","","","Images/NewTrialWC.png","37"
"image-keyboard-response","240","2233148","0.0-4.0-1.73","7","High_HMMActual","null","","","","Images/BlackBeadChoice.png","null"
"image-keyboard-response","241","2233649","0.0-4.0-2.73","7","High_HMMActual","null","","","","Images/BlackBeadChoiceWrong.png","null"
"image-keyboard-response","242","2234366","0.0-4.0-0.74","7","High_HMMActual","716.0100000039674","","","","Images/NewTrialWC.png","39"
"image-keyboard-response","243","2234618","0.0-4.0-1.74","7","High_HMMActual","null","","","","Images/WhiteBeadChoice.png","null"
"image-keyboard-response","244","2235120","0.0-4.0-2.74","7","High_HMMActual","null","","","","Images/WhiteBeadChoiceCorrect.png","null"
"image-keyboard-response","245","2235884","0.0-4.0-0.75","7","High_HMMActual","762.754999996163","","","","Images/NewTrialWC.png","37"
"image-keyboard-response","246","2236135","0.0-4.0-1.75","7","High_HMMActual","null","","","","Images/BlackBeadChoice.png","null"
"image-keyboard-response","247","2236637","0.0-4.0-2.75","7","High_HMMActual","null","","","","Images/BlackBeadChoiceCorrect.png","null"
"image-keyboard-response","248","2237112","0.0-4.0-0.76","7","High_HMMActual","473.4449999961071","","","","Images/NewTrialBC.png","39"
"image-keyboard-response","249","2237363","0.0-4.0-1.76","7","High_HMMActual","null","","","","Images/WhiteBeadChoice.png","null"
"image-keyboard-response","250","2237865","0.0-4.0-2.76","7","High_HMMActual","null","","","","Images/WhiteBeadChoiceCorrect.png","null"
"image-keyboard-response","251","2238197","0.0-4.0-0.77","7","High_HMMActual","330.72499999962747","","","","Images/NewTrialWC.png","37"
"image-keyboard-response","252","2238448","0.0-4.0-1.77","7","High_HMMActual","null","","","","Images/BlackBeadChoice.png","null"
"image-keyboard-response","253","2238951","0.0-4.0-2.77","7","High_HMMActual","null","","","","Images/BlackBeadChoiceCorrect.png","null"
"image-keyboard-response","254","2239366","0.0-4.0-0.78","7","High_HMMActual","414.71499999891967","","","","Images/NewTrialBC.png","39"
"image-keyboard-response","255","2239618","0.0-4.0-1.78","7","High_HMMActual","null","","","","Images/WhiteBeadChoice.png","null"
"image-keyboard-response","256","2240120","0.0-4.0-2.78","7","High_HMMActual","null","","","","Images/WhiteBeadChoiceCorrect.png","null"
"image-keyboard-response","257","2240662","0.0-4.0-0.79","7","High_HMMActual","541.0950000002049","","","","Images/NewTrialWC.png","37"
"image-keyboard-response","258","2240914","0.0-4.0-1.79","7","High_HMMActual","null","","","","Images/BlackBeadChoice.png","null"
"image-keyboard-response","259","2241415","0.0-4.0-2.79","7","High_HMMActual","null","","","","Images/BlackBeadChoiceWrong.png","null"
"image-keyboard-response","260","2241779","0.0-4.0-0.80","7","High_HMMActual","362.58499999530613","","","","Images/NewTrialWC.png","39"
"image-keyboard-response","261","2242031","0.0-4.0-1.80","7","High_HMMActual","null","","","","Images/WhiteBeadChoice.png","null"
"image-keyboard-response","262","2242532","0.0-4.0-2.80","7","High_HMMActual","null","","","","Images/WhiteBeadChoiceWrong.png","null"
"image-keyboard-response","263","2243371","0.0-4.0-0.81","7","High_HMMActual","837.6399999978021","","","","Images/NewTrialBC.png","39"
"image-keyboard-response","264","2243622","0.0-4.0-1.81","7","High_HMMActual","null","","","","Images/WhiteBeadChoice.png","null"
"image-keyboard-response","265","2244124","0.0-4.0-2.81","7","High_HMMActual","null","","","","Images/WhiteBeadChoiceCorrect.png","null"
"image-keyboard-response","266","2244537","0.0-4.0-0.82","7","High_HMMActual","412.1850000009872","","","","Images/NewTrialWC.png","37"
"image-keyboard-response","267","2244788","0.0-4.0-1.82","7","High_HMMActual","null","","","","Images/BlackBeadChoice.png","null"
"image-keyboard-response","268","2245290","0.0-4.0-2.82","7","High_HMMActual","null","","","","Images/BlackBeadChoiceCorrect.png","null"
"image-keyboard-response","269","2245584","0.0-4.0-0.83","7","High_HMMActual","292.7899999995716","","","","Images/NewTrialBC.png","39"
"image-keyboard-response","270","2245836","0.0-4.0-1.83","7","High_HMMActual","null","","","","Images/WhiteBeadChoice.png","null"
"image-keyboard-response","271","2246338","0.0-4.0-2.83","7","High_HMMActual","null","","","","Images/WhiteBeadChoiceCorrect.png","null"
"image-keyboard-response","272","2246691","0.0-4.0-0.84","7","High_HMMActual","351.464999999851","","","","Images/NewTrialWC.png","37"
"image-keyboard-response","273","2246943","0.0-4.0-1.84","7","High_HMMActual","null","","","","Images/BlackBeadChoice.png","null"
"image-keyboard-response","274","2247444","0.0-4.0-2.84","7","High_HMMActual","null","","","","Images/BlackBeadChoiceCorrect.png","null"
"image-keyboard-response","275","2247840","0.0-4.0-0.85","7","High_HMMActual","395.0299999997951","","","","Images/NewTrialBC.png","39"
"image-keyboard-response","276","2248091","0.0-4.0-1.85","7","High_HMMActual","null","","","","Images/WhiteBeadChoice.png","null"
"image-keyboard-response","277","2248593","0.0-4.0-2.85","7","High_HMMActual","null","","","","Images/WhiteBeadChoiceCorrect.png","null"
"image-keyboard-response","278","2249115","0.0-4.0-0.86","7","High_HMMActual","521.4899999992922","","","","Images/NewTrialWC.png","37"
"image-keyboard-response","279","2249367","0.0-4.0-1.86","7","High_HMMActual","null","","","","Images/BlackBeadChoice.png","null"
"image-keyboard-response","280","2249869","0.0-4.0-2.86","7","High_HMMActual","null","","","","Images/BlackBeadChoiceWrong.png","null"
"image-keyboard-response","281","2250188","0.0-4.0-0.87","7","High_HMMActual","318.625","","","","Images/NewTrialWC.png","39"
"image-keyboard-response","282","2250440","0.0-4.0-1.87","7","High_HMMActual","null","","","","Images/WhiteBeadChoice.png","null"
"image-keyboard-response","283","2250942","0.0-4.0-2.87","7","High_HMMActual","null","","","","Images/WhiteBeadChoiceWrong.png","null"
"image-keyboard-response","284","2251192","0.0-4.0-0.88","7","High_HMMActual","248.91999999806285","","","","Images/NewTrialBC.png","37"
"image-keyboard-response","285","2251444","0.0-4.0-1.88","7","High_HMMActual","null","","","","Images/BlackBeadChoice.png","null"
"image-keyboard-response","286","2251946","0.0-4.0-2.88","7","High_HMMActual","null","","","","Images/BlackBeadChoiceWrong.png","null"
"image-keyboard-response","287","2252277","0.0-4.0-0.89","7","High_HMMActual","330.1649999995716","","","","Images/NewTrialWC.png","39"
"image-keyboard-response","288","2252529","0.0-4.0-1.89","7","High_HMMActual","null","","","","Images/WhiteBeadChoice.png","null"
"image-keyboard-response","289","2253030","0.0-4.0-2.89","7","High_HMMActual","null","","","","Images/WhiteBeadChoiceWrong.png","null"
"image-keyboard-response","290","2253128","0.0-4.0-0.90","7","High_HMMActual","96.49500000523403","","","","Images/NewTrialBC.png","37"
"image-keyboard-response","291","2253379","0.0-4.0-1.90","7","High_HMMActual","null","","","","Images/BlackBeadChoice.png","null"
"image-keyboard-response","292","2253882","0.0-4.0-2.90","7","High_HMMActual","null","","","","Images/BlackBeadChoiceWrong.png","null"
"image-keyboard-response","293","2255482","0.0-4.0-0.91","7","High_HMMActual","1599.2600000025705","","","","Images/NewTrialWC.png","37"
"image-keyboard-response","294","2255734","0.0-4.0-1.91","7","High_HMMActual","null","","","","Images/BlackBeadChoice.png","null"
"image-keyboard-response","295","2256236","0.0-4.0-2.91","7","High_HMMActual","null","","","","Images/BlackBeadChoiceWrong.png","null"
"image-keyboard-response","296","2257307","0.0-4.0-0.92","7","High_HMMActual","1070.0299999951385","","","","Images/NewTrialWC.png","37"
"image-keyboard-response","297","2257558","0.0-4.0-1.92","7","High_HMMActual","null","","","","Images/BlackBeadChoice.png","null"
"image-keyboard-response","298","2258060","0.0-4.0-2.92","7","High_HMMActual","null","","","","Images/BlackBeadChoiceCorrect.png","null"
"image-keyboard-response","299","2258941","0.0-4.0-0.93","7","High_HMMActual","880.2050000014715","","","","Images/NewTrialBC.png","39"
"image-keyboard-response","300","2259193","0.0-4.0-1.93","7","High_HMMActual","null","","","","Images/WhiteBeadChoice.png","null"
"image-keyboard-response","301","2259694","0.0-4.0-2.93","7","High_HMMActual","null","","","","Images/WhiteBeadChoiceCorrect.png","null"
"image-keyboard-response","302","2260149","0.0-4.0-0.94","7","High_HMMActual","453.15000000130385","","","","Images/NewTrialWC.png","39"
"image-keyboard-response","303","2260401","0.0-4.0-1.94","7","High_HMMActual","null","","","","Images/WhiteBeadChoice.png","null"
"image-keyboard-response","304","2260903","0.0-4.0-2.94","7","High_HMMActual","null","","","","Images/WhiteBeadChoiceWrong.png","null"
"image-keyboard-response","305","2262354","0.0-4.0-0.95","7","High_HMMActual","1449.3850000002421","","","","Images/NewTrialBC.png","39"
"image-keyboard-response","306","2262605","0.0-4.0-1.95","7","High_HMMActual","null","","","","Images/WhiteBeadChoice.png","null"
"image-keyboard-response","307","2263107","0.0-4.0-2.95","7","High_HMMActual","null","","","","Images/WhiteBeadChoiceCorrect.png","null"
"image-keyboard-response","308","2264004","0.0-4.0-0.96","7","High_HMMActual","896.5650000027381","","","","Images/NewTrialWC.png","39"
"image-keyboard-response","309","2264257","0.0-4.0-1.96","7","High_HMMActual","null","","","","Images/WhiteBeadChoice.png","null"
"image-keyboard-response","310","2264759","0.0-4.0-2.96","7","High_HMMActual","null","","","","Images/WhiteBeadChoiceWrong.png","null"
"image-keyboard-response","311","2265285","0.0-4.0-0.97","7","High_HMMActual","525.2250000047497","","","","Images/NewTrialBC.png","39"
"image-keyboard-response","312","2265537","0.0-4.0-1.97","7","High_HMMActual","null","","","","Images/WhiteBeadChoice.png","null"
"image-keyboard-response","313","2266038","0.0-4.0-2.97","7","High_HMMActual","null","","","","Images/WhiteBeadChoiceWrong.png","null"
"image-keyboard-response","314","2266375","0.0-4.0-0.98","7","High_HMMActual","335.1800000015646","","","","Images/NewTrialBC.png","39"
"image-keyboard-response","315","2266626","0.0-4.0-1.98","7","High_HMMActual","null","","","","Images/WhiteBeadChoice.png","null"
"image-keyboard-response","316","2267128","0.0-4.0-2.98","7","High_HMMActual","null","","","","Images/WhiteBeadChoiceCorrect.png","null"
"image-keyboard-response","317","2267781","0.0-4.0-0.99","7","High_HMMActual","652.7300000013784","","","","Images/NewTrialWC.png","37"
"image-keyboard-response","318","2268033","0.0-4.0-1.99","7","High_HMMActual","null","","","","Images/BlackBeadChoice.png","null"
"image-keyboard-response","319","2268536","0.0-4.0-2.99","7","High_HMMActual","null","","","","Images/BlackBeadChoiceCorrect.png","null"
"image-keyboard-response","320","2268873","0.0-4.0-0.100","7","High_HMMActual","335.99000000720844","","","","Images/NewTrialBC.png","39"
"image-keyboard-response","321","2269124","0.0-4.0-1.100","7","High_HMMActual","null","","","","Images/WhiteBeadChoice.png","null"
"image-keyboard-response","322","2269627","0.0-4.0-2.100","7","High_HMMActual","null","","","","Images/WhiteBeadChoiceCorrect.png","null"
"image-keyboard-response","323","2269982","0.0-4.0-0.101","7","High_HMMActual","354.20999999763444","","","","Images/NewTrialWC.png","37"
"image-keyboard-response","324","2270233","0.0-4.0-1.101","7","High_HMMActual","null","","","","Images/BlackBeadChoice.png","null"
"image-keyboard-response","325","2270735","0.0-4.0-2.101","7","High_HMMActual","null","","","","Images/BlackBeadChoiceWrong.png","null"
"image-keyboard-response","326","2271024","0.0-4.0-0.102","7","High_HMMActual","287.8350000027567","","","","Images/NewTrialWC.png","39"
"image-keyboard-response","327","2271275","0.0-4.0-1.102","7","High_HMMActual","null","","","","Images/WhiteBeadChoice.png","null"
"image-keyboard-response","328","2271777","0.0-4.0-2.102","7","High_HMMActual","null","","","","Images/WhiteBeadChoiceWrong.png","null"
"image-keyboard-response","329","2273110","0.0-4.0-0.103","7","High_HMMActual","1331.8550000041723","","","","Images/NewTrialBC.png","37"
"image-keyboard-response","330","2273363","0.0-4.0-1.103","7","High_HMMActual","null","","","","Images/BlackBeadChoice.png","null"
"image-keyboard-response","331","2273865","0.0-4.0-2.103","7","High_HMMActual","null","","","","Images/BlackBeadChoiceWrong.png","null"
"image-keyboard-response","332","2274609","0.0-4.0-0.104","7","High_HMMActual","743.3899999959394","","","","Images/NewTrialWC.png","37"
"image-keyboard-response","333","2274861","0.0-4.0-1.104","7","High_HMMActual","null","","","","Images/BlackBeadChoice.png","null"
"image-keyboard-response","334","2275363","0.0-4.0-2.104","7","High_HMMActual","null","","","","Images/BlackBeadChoiceWrong.png","null"
"image-keyboard-response","335","2277303","0.0-4.0-0.105","7","High_HMMActual","1939.8700000019744","","","","Images/NewTrialWC.png","37"
"image-keyboard-response","336","2277555","0.0-4.0-1.105","7","High_HMMActual","null","","","","Images/BlackBeadChoice.png","null"
"image-keyboard-response","337","2278056","0.0-4.0-2.105","7","High_HMMActual","null","","","","Images/BlackBeadChoiceWrong.png","null"
"image-keyboard-response","338","2279070","0.0-4.0-0.106","7","High_HMMActual","1013.039999997709","","","","Images/NewTrialWC.png","37"
"image-keyboard-response","339","2279322","0.0-4.0-1.106","7","High_HMMActual","null","","","","Images/BlackBeadChoice.png","null"
"image-keyboard-response","340","2279824","0.0-4.0-2.106","7","High_HMMActual","null","","","","Images/BlackBeadChoiceWrong.png","null"
"image-keyboard-response","341","2280132","0.0-4.0-0.107","7","High_HMMActual","307.61000000312924","","","","Images/NewTrialWC.png","39"
"image-keyboard-response","342","2280384","0.0-4.0-1.107","7","High_HMMActual","null","","","","Images/WhiteBeadChoice.png","null"
"image-keyboard-response","343","2280886","0.0-4.0-2.107","7","High_HMMActual","432.3399999993853","","","","Images/WhiteBeadChoiceWrong.png","37"
"image-keyboard-response","344","2281466","0.0-4.0-0.108","7","High_HMMActual","579.0799999958836","","","","Images/NewTrialBC.png","37"
"image-keyboard-response","345","2281718","0.0-4.0-1.108","7","High_HMMActual","null","","","","Images/BlackBeadChoice.png","null"
"image-keyboard-response","346","2282220","0.0-4.0-2.108","7","High_HMMActual","null","","","","Images/BlackBeadChoiceWrong.png","null"
"image-keyboard-response","347","2283378","0.0-4.0-0.109","7","High_HMMActual","1157.1099999998696","","","","Images/NewTrialWC.png","37"
"image-keyboard-response","348","2283629","0.0-4.0-1.109","7","High_HMMActual","null","","","","Images/BlackBeadChoice.png","null"
"image-keyboard-response","349","2284131","0.0-4.0-2.109","7","High_HMMActual","null","","","","Images/BlackBeadChoiceCorrect.png","null"
"image-keyboard-response","350","2284924","0.0-4.0-0.110","7","High_HMMActual","792.305000002496","","","","Images/NewTrialBC.png","39"
"image-keyboard-response","351","2285176","0.0-4.0-1.110","7","High_HMMActual","null","","","","Images/WhiteBeadChoice.png","null"
"image-keyboard-response","352","2285678","0.0-4.0-2.110","7","High_HMMActual","null","","","","Images/WhiteBeadChoiceCorrect.png","null"
"image-keyboard-response","353","2286013","0.0-4.0-0.111","7","High_HMMActual","334.77000000094995","","","","Images/NewTrialWC.png","37"
"image-keyboard-response","354","2286265","0.0-4.0-1.111","7","High_HMMActual","null","","","","Images/BlackBeadChoice.png","null"
"image-keyboard-response","355","2286767","0.0-4.0-2.111","7","High_HMMActual","null","","","","Images/BlackBeadChoiceWrong.png","null"
"image-keyboard-response","356","2287229","0.0-4.0-0.112","7","High_HMMActual","461.38000000081956","","","","Images/NewTrialWC.png","39"
"image-keyboard-response","357","2287481","0.0-4.0-1.112","7","High_HMMActual","null","","","","Images/WhiteBeadChoice.png","null"
"image-keyboard-response","358","2287983","0.0-4.0-2.112","7","High_HMMActual","null","","","","Images/WhiteBeadChoiceCorrect.png","null"
"image-keyboard-response","359","2289273","0.0-4.0-0.113","7","High_HMMActual","1289.5550000034273","","","","Images/NewTrialWC.png","39"
"image-keyboard-response","360","2289524","0.0-4.0-1.113","7","High_HMMActual","null","","","","Images/WhiteBeadChoice.png","null"
"image-keyboard-response","361","2290026","0.0-4.0-2.113","7","High_HMMActual","null","","","","Images/WhiteBeadChoiceCorrect.png","null"
"image-keyboard-response","362","2290894","0.0-4.0-0.114","7","High_HMMActual","866.8150000013411","","","","Images/NewTrialWC.png","39"
"image-keyboard-response","363","2291145","0.0-4.0-1.114","7","High_HMMActual","null","","","","Images/WhiteBeadChoice.png","null"
"image-keyboard-response","364","2291647","0.0-4.0-2.114","7","High_HMMActual","null","","","","Images/WhiteBeadChoiceCorrect.png","null"
"image-keyboard-response","365","2292992","0.0-4.0-0.115","7","High_HMMActual","1344.1200000015087","","","","Images/NewTrialWC.png","37"
"image-keyboard-response","366","2293243","0.0-4.0-1.115","7","High_HMMActual","null","","","","Images/BlackBeadChoice.png","null"
"image-keyboard-response","367","2293744","0.0-4.0-2.115","7","High_HMMActual","null","","","","Images/BlackBeadChoiceCorrect.png","null"
"image-keyboard-response","368","2294749","0.0-4.0-0.116","7","High_HMMActual","1003.9599999948405","","","","Images/NewTrialBC.png","39"
"image-keyboard-response","369","2295001","0.0-4.0-1.116","7","High_HMMActual","null","","","","Images/WhiteBeadChoice.png","null"
"image-keyboard-response","370","2295502","0.0-4.0-2.116","7","High_HMMActual","null","","","","Images/WhiteBeadChoiceCorrect.png","null"
"image-keyboard-response","371","2296133","0.0-4.0-0.117","7","High_HMMActual","629.1649999981746","","","","Images/NewTrialWC.png","39"
"image-keyboard-response","372","2296384","0.0-4.0-1.117","7","High_HMMActual","null","","","","Images/WhiteBeadChoice.png","null"
"image-keyboard-response","373","2296886","0.0-4.0-2.117","7","High_HMMActual","null","","","","Images/WhiteBeadChoiceWrong.png","null"
"image-keyboard-response","374","2297228","0.0-4.0-0.118","7","High_HMMActual","341.0500000026077","","","","Images/NewTrialBC.png","39"
"image-keyboard-response","375","2297480","0.0-4.0-1.118","7","High_HMMActual","null","","","","Images/WhiteBeadChoice.png","null"
"image-keyboard-response","376","2297982","0.0-4.0-2.118","7","High_HMMActual","null","","","","Images/WhiteBeadChoiceCorrect.png","null"
"image-keyboard-response","377","2298318","0.0-4.0-0.119","7","High_HMMActual","334.96500000171363","","","","Images/NewTrialWC.png","39"
"image-keyboard-response","378","2298569","0.0-4.0-1.119","7","High_HMMActual","null","","","","Images/WhiteBeadChoice.png","null"
"image-keyboard-response","379","2299071","0.0-4.0-2.119","7","High_HMMActual","null","","","","Images/WhiteBeadChoiceWrong.png","null"
"image-keyboard-response","380","2299363","0.0-4.0-0.120","7","High_HMMActual","290.8450000034645","","","","Images/NewTrialBC.png","39"
"image-keyboard-response","381","2299615","0.0-4.0-1.120","7","High_HMMActual","null","","","","Images/WhiteBeadChoice.png","null"
"image-keyboard-response","382","2300116","0.0-4.0-2.120","7","High_HMMActual","null","","","","Images/WhiteBeadChoiceCorrect.png","null"
"image-keyboard-response","383","2300461","0.0-4.0-0.121","7","High_HMMActual","343.9550000037998","","","","Images/NewTrialWC.png","37"
"image-keyboard-response","384","2300712","0.0-4.0-1.121","7","High_HMMActual","null","","","","Images/BlackBeadChoice.png","null"
"image-keyboard-response","385","2301214","0.0-4.0-2.121","7","High_HMMActual","null","","","","Images/BlackBeadChoiceCorrect.png","null"
"image-keyboard-response","386","2301880","0.0-4.0-0.122","7","High_HMMActual","664.5550000029616","","","","Images/NewTrialBC.png","39"
"image-keyboard-response","387","2302132","0.0-4.0-1.122","7","High_HMMActual","null","","","","Images/WhiteBeadChoice.png","null"
"image-keyboard-response","388","2302634","0.0-4.0-2.122","7","High_HMMActual","null","","","","Images/WhiteBeadChoiceCorrect.png","null"
"image-keyboard-response","389","2303362","0.0-4.0-0.123","7","High_HMMActual","727.6249999995343","","","","Images/NewTrialWC.png","39"
"image-keyboard-response","390","2303614","0.0-4.0-1.123","7","High_HMMActual","null","","","","Images/WhiteBeadChoice.png","null"
"image-keyboard-response","391","2304116","0.0-4.0-2.123","7","High_HMMActual","null","","","","Images/WhiteBeadChoiceWrong.png","null"
"image-keyboard-response","392","2304703","0.0-4.0-0.124","7","High_HMMActual","585.785000002943","","","","Images/NewTrialBC.png","37"
"image-keyboard-response","393","2304953","0.0-4.0-1.124","7","High_HMMActual","null","","","","Images/BlackBeadChoice.png","null"
"image-keyboard-response","394","2305455","0.0-4.0-2.124","7","High_HMMActual","null","","","","Images/BlackBeadChoiceWrong.png","null"
"image-keyboard-response","395","2306558","0.0-4.0-0.125","7","High_HMMActual","1101.6499999966472","","","","Images/NewTrialWC.png","39"
"image-keyboard-response","396","2306808","0.0-4.0-1.125","7","High_HMMActual","null","","","","Images/WhiteBeadChoice.png","null"
"image-keyboard-response","397","2307310","0.0-4.0-2.125","7","High_HMMActual","null","","","","Images/WhiteBeadChoiceCorrect.png","null"
"image-keyboard-response","398","2308108","0.0-4.0-0.126","7","High_HMMActual","797.3449999988079","","","","Images/NewTrialWC.png","39"
"image-keyboard-response","399","2308360","0.0-4.0-1.126","7","High_HMMActual","null","","","","Images/WhiteBeadChoice.png","null"
"image-keyboard-response","400","2308862","0.0-4.0-2.126","7","High_HMMActual","null","","","","Images/WhiteBeadChoiceCorrect.png","null"
"image-keyboard-response","401","2310000","0.0-4.0-0.127","7","High_HMMActual","1136.9049999993294","","","","Images/NewTrialWC.png","37"
"image-keyboard-response","402","2310251","0.0-4.0-1.127","7","High_HMMActual","null","","","","Images/BlackBeadChoice.png","null"
"image-keyboard-response","403","2310753","0.0-4.0-2.127","7","High_HMMActual","null","","","","Images/BlackBeadChoiceCorrect.png","null"
"image-keyboard-response","404","2311597","0.0-4.0-0.128","7","High_HMMActual","843.0149999982677","","","","Images/NewTrialBC.png","39"
"image-keyboard-response","405","2311848","0.0-4.0-1.128","7","High_HMMActual","null","","","","Images/WhiteBeadChoice.png","null"
"image-keyboard-response","406","2312349","0.0-4.0-2.128","7","High_HMMActual","null","","","","Images/WhiteBeadChoiceCorrect.png","null"
"image-keyboard-response","407","2312958","0.0-4.0-0.129","7","High_HMMActual","607.8400000040419","","","","Images/NewTrialWC.png","37"
"image-keyboard-response","408","2313209","0.0-4.0-1.129","7","High_HMMActual","null","","","","Images/BlackBeadChoice.png","null"
"image-keyboard-response","409","2313711","0.0-4.0-2.129","7","High_HMMActual","null","","","","Images/BlackBeadChoiceCorrect.png","null"
"image-keyboard-response","410","2314770","0.0-4.0-0.130","7","High_HMMActual","1057.5600000009872","","","","Images/NewTrialBC.png","39"
"image-keyboard-response","411","2315021","0.0-4.0-1.130","7","High_HMMActual","null","","","","Images/WhiteBeadChoice.png","null"
"image-keyboard-response","412","2315523","0.0-4.0-2.130","7","High_HMMActual","null","","","","Images/WhiteBeadChoiceCorrect.png","null"
"image-keyboard-response","413","2316051","0.0-4.0-0.131","7","High_HMMActual","527.0600000000559","","","","Images/NewTrialWC.png","37"
"image-keyboard-response","414","2316303","0.0-4.0-1.131","7","High_HMMActual","null","","","","Images/BlackBeadChoice.png","null"
"image-keyboard-response","415","2316805","0.0-4.0-2.131","7","High_HMMActual","null","","","","Images/BlackBeadChoiceCorrect.png","null"
"image-keyboard-response","416","2317243","0.0-4.0-0.132","7","High_HMMActual","437.3799999956973","","","","Images/NewTrialBC.png","39"
"image-keyboard-response","417","2317495","0.0-4.0-1.132","7","High_HMMActual","null","","","","Images/WhiteBeadChoice.png","null"
"image-keyboard-response","418","2317996","0.0-4.0-2.132","7","High_HMMActual","null","","","","Images/WhiteBeadChoiceCorrect.png","null"
"image-keyboard-response","419","2319301","0.0-4.0-0.133","7","High_HMMActual","1304.1650000014342","","","","Images/NewTrialWC.png","39"
"image-keyboard-response","420","2319553","0.0-4.0-1.133","7","High_HMMActual","null","","","","Images/WhiteBeadChoice.png","null"
"image-keyboard-response","421","2320055","0.0-4.0-2.133","7","High_HMMActual","null","","","","Images/WhiteBeadChoiceWrong.png","null"
"image-keyboard-response","422","2320394","0.0-4.0-0.134","7","High_HMMActual","337.8950000042096","","","","Images/NewTrialBC.png","37"
"image-keyboard-response","423","2320645","0.0-4.0-1.134","7","High_HMMActual","null","","","","Images/BlackBeadChoice.png","null"
"image-keyboard-response","424","2321147","0.0-4.0-2.134","7","High_HMMActual","null","","","","Images/BlackBeadChoiceWrong.png","null"
"image-keyboard-response","425","2323835","0.0-4.0-0.135","7","High_HMMActual","2687.280000005383","","","","Images/NewTrialWC.png","39"
"image-keyboard-response","426","2324087","0.0-4.0-1.135","7","High_HMMActual","null","","","","Images/WhiteBeadChoice.png","null"
"image-keyboard-response","427","2324589","0.0-4.0-2.135","7","High_HMMActual","null","","","","Images/WhiteBeadChoiceWrong.png","null"
"image-keyboard-response","428","2325912","0.0-4.0-0.136","7","High_HMMActual","1322.2499999976717","","","","Images/NewTrialBC.png","37"
"image-keyboard-response","429","2326164","0.0-4.0-1.136","7","High_HMMActual","null","","","","Images/BlackBeadChoice.png","null"
"image-keyboard-response","430","2326665","0.0-4.0-2.136","7","High_HMMActual","null","","","","Images/BlackBeadChoiceCorrect.png","null"
"image-keyboard-response","431","2328090","0.0-4.0-0.137","7","High_HMMActual","1423.7999999970198","","","","Images/NewTrialBC.png","39"
"image-keyboard-response","432","2328341","0.0-4.0-1.137","7","High_HMMActual","null","","","","Images/WhiteBeadChoice.png","null"
"image-keyboard-response","433","2328842","0.0-4.0-2.137","7","High_HMMActual","null","","","","Images/WhiteBeadChoiceCorrect.png","null"
"image-keyboard-response","434","2329471","0.0-4.0-0.138","7","High_HMMActual","627.8500000047497","","","","Images/NewTrialWC.png","39"
"image-keyboard-response","435","2329723","0.0-4.0-1.138","7","High_HMMActual","null","","","","Images/WhiteBeadChoice.png","null"
"image-keyboard-response","436","2330226","0.0-4.0-2.138","7","High_HMMActual","null","","","","Images/WhiteBeadChoiceCorrect.png","null"
"image-keyboard-response","437","2330679","0.0-4.0-0.139","7","High_HMMActual","452.660000002943","","","","Images/NewTrialWC.png","39"
"image-keyboard-response","438","2330931","0.0-4.0-1.139","7","High_HMMActual","null","","","","Images/WhiteBeadChoice.png","null"
"image-keyboard-response","439","2331432","0.0-4.0-2.139","7","High_HMMActual","null","","","","Images/WhiteBeadChoiceCorrect.png","null"
"image-keyboard-response","440","2332145","0.0-4.0-0.140","7","High_HMMActual","711.8499999996275","","","","Images/NewTrialWC.png","37"
"image-keyboard-response","441","2332397","0.0-4.0-1.140","7","High_HMMActual","null","","","","Images/BlackBeadChoice.png","null"
"image-keyboard-response","442","2332899","0.0-4.0-2.140","7","High_HMMActual","null","","","","Images/BlackBeadChoiceCorrect.png","null"
"image-keyboard-response","443","2333643","0.0-4.0-0.141","7","High_HMMActual","743.7600000048988","","","","Images/NewTrialBC.png","39"
"image-keyboard-response","444","2333895","0.0-4.0-1.141","7","High_HMMActual","null","","","","Images/WhiteBeadChoice.png","null"
"image-keyboard-response","445","2334397","0.0-4.0-2.141","7","High_HMMActual","null","","","","Images/WhiteBeadChoiceWrong.png","null"
"image-keyboard-response","446","2335883","0.0-4.0-0.142","7","High_HMMActual","1485.8799999998882","","","","Images/NewTrialBC.png","39"
"image-keyboard-response","447","2336135","0.0-4.0-1.142","7","High_HMMActual","null","","","","Images/WhiteBeadChoice.png","null"
"image-keyboard-response","448","2336637","0.0-4.0-2.142","7","High_HMMActual","null","","","","Images/WhiteBeadChoiceWrong.png","null"
"image-keyboard-response","449","2339285","0.0-4.0-0.143","7","High_HMMActual","2647.225000000559","","","","Images/NewTrialBC.png","39"
"image-keyboard-response","450","2339537","0.0-4.0-1.143","7","High_HMMActual","null","","","","Images/WhiteBeadChoice.png","null"
"image-keyboard-response","451","2340040","0.0-4.0-2.143","7","High_HMMActual","null","","","","Images/WhiteBeadChoiceCorrect.png","null"
"image-keyboard-response","452","2340712","0.0-4.0-0.144","7","High_HMMActual","670.9249999984168","","","","Images/NewTrialWC.png","37"
"image-keyboard-response","453","2340963","0.0-4.0-1.144","7","High_HMMActual","null","","","","Images/BlackBeadChoice.png","null"
"image-keyboard-response","454","2341466","0.0-4.0-2.144","7","High_HMMActual","null","","","","Images/BlackBeadChoiceCorrect.png","null"
"image-keyboard-response","455","2341801","0.0-4.0-0.145","7","High_HMMActual","334.3349999994971","","","","Images/NewTrialBC.png","39"
"image-keyboard-response","456","2342052","0.0-4.0-1.145","7","High_HMMActual","null","","","","Images/WhiteBeadChoice.png","null"
"image-keyboard-response","457","2342554","0.0-4.0-2.145","7","High_HMMActual","null","","","","Images/WhiteBeadChoiceCorrect.png","null"
"image-keyboard-response","458","2342904","0.0-4.0-0.146","7","High_HMMActual","349.4900000006892","","","","Images/NewTrialWC.png","37"
"image-keyboard-response","459","2343156","0.0-4.0-1.146","7","High_HMMActual","null","","","","Images/BlackBeadChoice.png","null"
"image-keyboard-response","460","2343658","0.0-4.0-2.146","7","High_HMMActual","null","","","","Images/BlackBeadChoiceCorrect.png","null"
"image-keyboard-response","461","2344077","0.0-4.0-0.147","7","High_HMMActual","418.03499999502674","","","","Images/NewTrialBC.png","39"
"image-keyboard-response","462","2344329","0.0-4.0-1.147","7","High_HMMActual","null","","","","Images/WhiteBeadChoice.png","null"
"image-keyboard-response","463","2344831","0.0-4.0-2.147","7","High_HMMActual","null","","","","Images/WhiteBeadChoiceCorrect.png","null"
"image-keyboard-response","464","2345177","0.0-4.0-0.148","7","High_HMMActual","345.9099999964237","","","","Images/NewTrialWC.png","37"
"image-keyboard-response","465","2345429","0.0-4.0-1.148","7","High_HMMActual","null","","","","Images/BlackBeadChoice.png","null"
"image-keyboard-response","466","2345931","0.0-4.0-2.148","7","High_HMMActual","null","","","","Images/BlackBeadChoiceCorrect.png","null"
"image-keyboard-response","467","2346290","0.0-4.0-0.149","7","High_HMMActual","358.62499999348074","","","","Images/NewTrialBC.png","39"
"image-keyboard-response","468","2346542","0.0-4.0-1.149","7","High_HMMActual","null","","","","Images/WhiteBeadChoice.png","null"
"image-keyboard-response","469","2347044","0.0-4.0-2.149","7","High_HMMActual","null","","","","Images/WhiteBeadChoiceWrong.png","null"
"image-keyboard-response","470","2347927","0.0-4.0-0.150","7","High_HMMActual","882.1199999949895","","","","Images/NewTrialBC.png","37"
"image-keyboard-response","471","2348179","0.0-4.0-1.150","7","High_HMMActual","null","","","","Images/BlackBeadChoice.png","null"
"image-keyboard-response","472","2348680","0.0-4.0-2.150","7","High_HMMActual","null","","","","Images/BlackBeadChoiceCorrect.png","null"
"image-keyboard-response","473","2349188","0.0-4.0-0.151","7","High_HMMActual","506.6800000057556","","","","Images/NewTrialBC.png","39"
"image-keyboard-response","474","2349439","0.0-4.0-1.151","7","High_HMMActual","null","","","","Images/WhiteBeadChoice.png","null"
"image-keyboard-response","475","2349942","0.0-4.0-2.151","7","High_HMMActual","null","","","","Images/WhiteBeadChoiceCorrect.png","null"
"image-keyboard-response","476","2350432","0.0-4.0-0.152","7","High_HMMActual","489.31499999854714","","","","Images/NewTrialWC.png","37"
"image-keyboard-response","477","2350684","0.0-4.0-1.152","7","High_HMMActual","null","","","","Images/BlackBeadChoice.png","null"
"image-keyboard-response","478","2351186","0.0-4.0-2.152","7","High_HMMActual","null","","","","Images/BlackBeadChoiceCorrect.png","null"
"image-keyboard-response","479","2351487","0.0-4.0-0.153","7","High_HMMActual","299.9150000032969","","","","Images/NewTrialBC.png","39"
"image-keyboard-response","480","2351738","0.0-4.0-1.153","7","High_HMMActual","null","","","","Images/WhiteBeadChoice.png","null"
"image-keyboard-response","481","2352240","0.0-4.0-2.153","7","High_HMMActual","null","","","","Images/WhiteBeadChoiceCorrect.png","null"
"image-keyboard-response","482","2352621","0.0-4.0-0.154","7","High_HMMActual","380.1499999971129","","","","Images/NewTrialWC.png","37"
"image-keyboard-response","483","2352872","0.0-4.0-1.154","7","High_HMMActual","null","","","","Images/BlackBeadChoice.png","null"
"image-keyboard-response","484","2353374","0.0-4.0-2.154","7","High_HMMActual","null","","","","Images/BlackBeadChoiceCorrect.png","null"
"image-keyboard-response","485","2354041","0.0-4.0-0.155","7","High_HMMActual","665.6850000000559","","","","Images/NewTrialBC.png","39"
"image-keyboard-response","486","2354292","0.0-4.0-1.155","7","High_HMMActual","null","","","","Images/WhiteBeadChoice.png","null"
"image-keyboard-response","487","2354794","0.0-4.0-2.155","7","High_HMMActual","null","","","","Images/WhiteBeadChoiceCorrect.png","null"
"image-keyboard-response","488","2355214","0.0-4.0-0.156","7","High_HMMActual","418.73499999940395","","","","Images/NewTrialWC.png","37"
"image-keyboard-response","489","2355465","0.0-4.0-1.156","7","High_HMMActual","null","","","","Images/BlackBeadChoice.png","null"
"image-keyboard-response","490","2355967","0.0-4.0-2.156","7","High_HMMActual","null","","","","Images/BlackBeadChoiceCorrect.png","null"
"image-keyboard-response","491","2356318","0.0-4.0-0.157","7","High_HMMActual","350.27000000234693","","","","Images/NewTrialBC.png","39"
"image-keyboard-response","492","2356570","0.0-4.0-1.157","7","High_HMMActual","null","","","","Images/WhiteBeadChoice.png","null"
"image-keyboard-response","493","2357072","0.0-4.0-2.157","7","High_HMMActual","null","","","","Images/WhiteBeadChoiceCorrect.png","null"
"image-keyboard-response","494","2357409","0.0-4.0-0.158","7","High_HMMActual","336.52499999897555","","","","Images/NewTrialWC.png","37"
"image-keyboard-response","495","2357661","0.0-4.0-1.158","7","High_HMMActual","null","","","","Images/BlackBeadChoice.png","null"
"image-keyboard-response","496","2358163","0.0-4.0-2.158","7","High_HMMActual","null","","","","Images/BlackBeadChoiceCorrect.png","null"
"image-keyboard-response","497","2358488","0.0-4.0-0.159","7","High_HMMActual","323.6949999993667","","","","Images/NewTrialBC.png","39"
"image-keyboard-response","498","2358739","0.0-4.0-1.159","7","High_HMMActual","null","","","","Images/WhiteBeadChoice.png","null"
"image-keyboard-response","499","2359241","0.0-4.0-2.159","7","High_HMMActual","null","","","","Images/WhiteBeadChoiceCorrect.png","null"
"image-keyboard-response","500","2361765","0.0-4.0-0.160","7","High_HMMActual","2522.6350000011735","","","","Images/NewTrialWC.png","37"
"image-keyboard-response","501","2362017","0.0-4.0-1.160","7","High_HMMActual","null","","","","Images/BlackBeadChoice.png","null"
"image-keyboard-response","502","2362518","0.0-4.0-2.160","7","High_HMMActual","null","","","","Images/BlackBeadChoiceCorrect.png","null"
"image-keyboard-response","503","2362969","0.0-4.0-0.161","7","High_HMMActual","449.58000000054017","","","","Images/NewTrialBC.png","39"
"image-keyboard-response","504","2363220","0.0-4.0-1.161","7","High_HMMActual","null","","","","Images/WhiteBeadChoice.png","null"
"image-keyboard-response","505","2363722","0.0-4.0-2.161","7","High_HMMActual","null","","","","Images/WhiteBeadChoiceCorrect.png","null"
"image-keyboard-response","506","2364137","0.0-4.0-0.162","7","High_HMMActual","413.3300000028685","","","","Images/NewTrialWC.png","37"
"image-keyboard-response","507","2364388","0.0-4.0-1.162","7","High_HMMActual","null","","","","Images/BlackBeadChoice.png","null"
"image-keyboard-response","508","2364890","0.0-4.0-2.162","7","High_HMMActual","null","","","","Images/BlackBeadChoiceCorrect.png","null"
"image-keyboard-response","509","2365161","0.0-4.0-0.163","7","High_HMMActual","270.07500000018626","","","","Images/NewTrialBC.png","39"
"image-keyboard-response","510","2365413","0.0-4.0-1.163","7","High_HMMActual","null","","","","Images/WhiteBeadChoice.png","null"
"image-keyboard-response","511","2365914","0.0-4.0-2.163","7","High_HMMActual","null","","","","Images/WhiteBeadChoiceCorrect.png","null"
"image-keyboard-response","512","2366281","0.0-4.0-0.164","7","High_HMMActual","365.714999999851","","","","Images/NewTrialWC.png","39"
"image-keyboard-response","513","2366533","0.0-4.0-1.164","7","High_HMMActual","null","","","","Images/WhiteBeadChoice.png","null"
"image-keyboard-response","514","2367035","0.0-4.0-2.164","7","High_HMMActual","null","","","","Images/WhiteBeadChoiceWrong.png","null"
"image-keyboard-response","515","2367402","0.0-4.0-0.165","7","High_HMMActual","365.46000000089407","","","","Images/NewTrialBC.png","39"
"image-keyboard-response","516","2367654","0.0-4.0-1.165","7","High_HMMActual","null","","","","Images/WhiteBeadChoice.png","null"
"image-keyboard-response","517","2368155","0.0-4.0-2.165","7","High_HMMActual","null","","","","Images/WhiteBeadChoiceCorrect.png","null"
"image-keyboard-response","518","2368522","0.0-4.0-0.166","7","High_HMMActual","365.7700000037439","","","","Images/NewTrialWC.png","39"
"image-keyboard-response","519","2368774","0.0-4.0-1.166","7","High_HMMActual","null","","","","Images/WhiteBeadChoice.png","null"
"image-keyboard-response","520","2369275","0.0-4.0-2.166","7","High_HMMActual","null","","","","Images/WhiteBeadChoiceCorrect.png","null"
"image-keyboard-response","521","2369553","0.0-4.0-0.167","7","High_HMMActual","276.8250000011176","","","","Images/NewTrialWC.png","39"
"image-keyboard-response","522","2369806","0.0-4.0-1.167","7","High_HMMActual","null","","","","Images/WhiteBeadChoice.png","null"
"image-keyboard-response","523","2370308","0.0-4.0-2.167","7","High_HMMActual","null","","","","Images/WhiteBeadChoiceCorrect.png","null"
"image-keyboard-response","524","2370950","0.0-4.0-0.168","7","High_HMMActual","641.5099999941885","","","","Images/NewTrialWC.png","37"
"image-keyboard-response","525","2371201","0.0-4.0-1.168","7","High_HMMActual","null","","","","Images/BlackBeadChoice.png","null"
"image-keyboard-response","526","2371703","0.0-4.0-2.168","7","High_HMMActual","null","","","","Images/BlackBeadChoiceWrong.png","null"
"image-keyboard-response","527","2372069","0.0-4.0-0.169","7","High_HMMActual","365.1850000023842","","","","Images/NewTrialWC.png","37"
"image-keyboard-response","528","2372322","0.0-4.0-1.169","7","High_HMMActual","null","","","","Images/BlackBeadChoice.png","null"
"image-keyboard-response","529","2372823","0.0-4.0-2.169","7","High_HMMActual","null","","","","Images/BlackBeadChoiceCorrect.png","null"
"image-keyboard-response","530","2374007","0.0-4.0-0.170","7","High_HMMActual","1183.1149999997579","","","","Images/NewTrialBC.png","39"
"image-keyboard-response","531","2374260","0.0-4.0-1.170","7","High_HMMActual","null","","","","Images/WhiteBeadChoice.png","null"
"image-keyboard-response","532","2374761","0.0-4.0-2.170","7","High_HMMActual","null","","","","Images/WhiteBeadChoiceCorrect.png","null"
"image-keyboard-response","533","2375123","0.0-4.0-0.171","7","High_HMMActual","361.0800000028685","","","","Images/NewTrialWC.png","37"
"image-keyboard-response","534","2375374","0.0-4.0-1.171","7","High_HMMActual","null","","","","Images/BlackBeadChoice.png","null"
"image-keyboard-response","535","2375876","0.0-4.0-2.171","7","High_HMMActual","null","","","","Images/BlackBeadChoiceCorrect.png","null"
"image-keyboard-response","536","2376333","0.0-4.0-0.172","7","High_HMMActual","455.3750000051223","","","","Images/NewTrialBC.png","39"
"image-keyboard-response","537","2376583","0.0-4.0-1.172","7","High_HMMActual","null","","","","Images/WhiteBeadChoice.png","null"
"image-keyboard-response","538","2377085","0.0-4.0-2.172","7","High_HMMActual","null","","","","Images/WhiteBeadChoiceCorrect.png","null"
"image-keyboard-response","539","2377367","0.0-4.0-0.173","7","High_HMMActual","280.8599999989383","","","","Images/NewTrialWC.png","37"
"image-keyboard-response","540","2377619","0.0-4.0-1.173","7","High_HMMActual","null","","","","Images/BlackBeadChoice.png","null"
"image-keyboard-response","541","2378120","0.0-4.0-2.173","7","High_HMMActual","null","","","","Images/BlackBeadChoiceWrong.png","null"
"image-keyboard-response","542","2378459","0.0-4.0-0.174","7","High_HMMActual","338.0050000050105","","","","Images/NewTrialWC.png","39"
"image-keyboard-response","543","2378711","0.0-4.0-1.174","7","High_HMMActual","null","","","","Images/WhiteBeadChoice.png","null"
"image-keyboard-response","544","2379212","0.0-4.0-2.174","7","High_HMMActual","null","","","","Images/WhiteBeadChoiceWrong.png","null"
"image-keyboard-response","545","2379582","0.0-4.0-0.175","7","High_HMMActual","368.64999999664724","","","","Images/NewTrialBC.png","39"
"image-keyboard-response","546","2379834","0.0-4.0-1.175","7","High_HMMActual","null","","","","Images/WhiteBeadChoice.png","null"
"image-keyboard-response","547","2380335","0.0-4.0-2.175","7","High_HMMActual","null","","","","Images/WhiteBeadChoiceCorrect.png","null"
"image-keyboard-response","548","2380886","0.0-4.0-0.176","7","High_HMMActual","549.9199999975972","","","","Images/NewTrialWC.png","37"
"image-keyboard-response","549","2381138","0.0-4.0-1.176","7","High_HMMActual","null","","","","Images/BlackBeadChoice.png","null"
"image-keyboard-response","550","2381640","0.0-4.0-2.176","7","High_HMMActual","null","","","","Images/BlackBeadChoiceCorrect.png","null"
"image-keyboard-response","551","2381924","0.0-4.0-0.177","7","High_HMMActual","282.85500000510365","","","","Images/NewTrialBC.png","39"
"image-keyboard-response","552","2382175","0.0-4.0-1.177","7","High_HMMActual","null","","","","Images/WhiteBeadChoice.png","null"
"image-keyboard-response","553","2382677","0.0-4.0-2.177","7","High_HMMActual","null","","","","Images/WhiteBeadChoiceWrong.png","null"
"image-keyboard-response","554","2383058","0.0-4.0-0.178","7","High_HMMActual","379.894999998156","","","","Images/NewTrialBC.png","37"
"image-keyboard-response","555","2383309","0.0-4.0-1.178","7","High_HMMActual","null","","","","Images/BlackBeadChoice.png","null"
"image-keyboard-response","556","2383810","0.0-4.0-2.178","7","High_HMMActual","null","","","","Images/BlackBeadChoiceCorrect.png","null"
"image-keyboard-response","557","2384766","0.0-4.0-0.179","7","High_HMMActual","954.964999997057","","","","Images/NewTrialBC.png","37"
"image-keyboard-response","558","2385018","0.0-4.0-1.179","7","High_HMMActual","null","","","","Images/BlackBeadChoice.png","null"
"image-keyboard-response","559","2385519","0.0-4.0-2.179","7","High_HMMActual","null","","","","Images/BlackBeadChoiceWrong.png","null"
"image-keyboard-response","560","2386404","0.0-4.0-0.180","7","High_HMMActual","883.5199999958277","","","","Images/NewTrialWC.png","37"
"image-keyboard-response","561","2386655","0.0-4.0-1.180","7","High_HMMActual","null","","","","Images/BlackBeadChoice.png","null"
"image-keyboard-response","562","2387157","0.0-4.0-2.180","7","High_HMMActual","null","","","","Images/BlackBeadChoiceCorrect.png","null"
"image-keyboard-response","563","2387510","0.0-4.0-0.181","7","High_HMMActual","351.4149999972433","","","","Images/NewTrialBC.png","39"
"image-keyboard-response","564","2387761","0.0-4.0-1.181","7","High_HMMActual","null","","","","Images/WhiteBeadChoice.png","null"
"image-keyboard-response","565","2388263","0.0-4.0-2.181","7","High_HMMActual","null","","","","Images/WhiteBeadChoiceCorrect.png","null"
"image-keyboard-response","566","2388573","0.0-4.0-0.182","7","High_HMMActual","309.140000004787","","","","Images/NewTrialWC.png","37"
"image-keyboard-response","567","2388825","0.0-4.0-1.182","7","High_HMMActual","null","","","","Images/BlackBeadChoice.png","null"
"image-keyboard-response","568","2389326","0.0-4.0-2.182","7","High_HMMActual","null","","","","Images/BlackBeadChoiceWrong.png","null"
"image-keyboard-response","569","2389639","0.0-4.0-0.183","7","High_HMMActual","312.00499999988824","","","","Images/NewTrialWC.png","39"
"image-keyboard-response","570","2389891","0.0-4.0-1.183","7","High_HMMActual","null","","","","Images/WhiteBeadChoice.png","null"
"image-keyboard-response","571","2390392","0.0-4.0-2.183","7","High_HMMActual","null","","","","Images/WhiteBeadChoiceCorrect.png","null"
"image-keyboard-response","572","2391604","0.0-4.0-0.184","7","High_HMMActual","1210.4199999957345","","","","Images/NewTrialWC.png","37"
"image-keyboard-response","573","2391856","0.0-4.0-1.184","7","High_HMMActual","null","","","","Images/BlackBeadChoice.png","null"
"image-keyboard-response","574","2392357","0.0-4.0-2.184","7","High_HMMActual","null","","","","Images/BlackBeadChoiceCorrect.png","null"
"image-keyboard-response","575","2393579","0.0-4.0-0.185","7","High_HMMActual","1220.8549999995157","","","","Images/NewTrialBC.png","37"
"image-keyboard-response","576","2393830","0.0-4.0-1.185","7","High_HMMActual","null","","","","Images/BlackBeadChoice.png","null"
"image-keyboard-response","577","2394333","0.0-4.0-2.185","7","High_HMMActual","null","","","","Images/BlackBeadChoiceCorrect.png","null"
"image-keyboard-response","578","2395506","0.0-4.0-0.186","7","High_HMMActual","1171.855000000447","","","","Images/NewTrialBC.png","37"
"image-keyboard-response","579","2395759","0.0-4.0-1.186","7","High_HMMActual","null","","","","Images/BlackBeadChoice.png","null"
"image-keyboard-response","580","2396261","0.0-4.0-2.186","7","High_HMMActual","null","","","","Images/BlackBeadChoiceCorrect.png","null"
"image-keyboard-response","581","2397840","0.0-4.0-0.187","7","High_HMMActual","1577.8849999983795","","","","Images/NewTrialBC.png","37"
"image-keyboard-response","582","2398091","0.0-4.0-1.187","7","High_HMMActual","null","","","","Images/BlackBeadChoice.png","null"
"image-keyboard-response","583","2398592","0.0-4.0-2.187","7","High_HMMActual","null","","","","Images/BlackBeadChoiceWrong.png","null"
"image-keyboard-response","584","2399559","0.0-4.0-0.188","7","High_HMMActual","965.1799999992363","","","","Images/NewTrialWC.png","39"
"image-keyboard-response","585","2399811","0.0-4.0-1.188","7","High_HMMActual","null","","","","Images/WhiteBeadChoice.png","null"
"image-keyboard-response","586","2400313","0.0-4.0-2.188","7","High_HMMActual","null","","","","Images/WhiteBeadChoiceCorrect.png","null"
"image-keyboard-response","587","2401037","0.0-4.0-0.189","7","High_HMMActual","723.4949999982491","","","","Images/NewTrialWC.png","39"
"image-keyboard-response","588","2401289","0.0-4.0-1.189","7","High_HMMActual","null","","","","Images/WhiteBeadChoice.png","null"
"image-keyboard-response","589","2401791","0.0-4.0-2.189","7","High_HMMActual","null","","","","Images/WhiteBeadChoiceCorrect.png","null"
"image-keyboard-response","590","2402226","0.0-4.0-0.190","7","High_HMMActual","434.3850000007078","","","","Images/NewTrialWC.png","39"
"image-keyboard-response","591","2402477","0.0-4.0-1.190","7","High_HMMActual","null","","","","Images/WhiteBeadChoice.png","null"
"image-keyboard-response","592","2402979","0.0-4.0-2.190","7","High_HMMActual","null","","","","Images/WhiteBeadChoiceWrong.png","null"
"image-keyboard-response","593","2403314","0.0-4.0-0.191","7","High_HMMActual","334.6949999979697","","","","Images/NewTrialBC.png","37"
"image-keyboard-response","594","2403566","0.0-4.0-1.191","7","High_HMMActual","null","","","","Images/BlackBeadChoice.png","null"
"image-keyboard-response","595","2404068","0.0-4.0-2.191","7","High_HMMActual","null","","","","Images/BlackBeadChoiceWrong.png","null"
"image-keyboard-response","596","2405090","0.0-4.0-0.192","7","High_HMMActual","1021.0450000013225","","","","Images/NewTrialWC.png","37"
"image-keyboard-response","597","2405341","0.0-4.0-1.192","7","High_HMMActual","null","","","","Images/BlackBeadChoice.png","null"
"image-keyboard-response","598","2405844","0.0-4.0-2.192","7","High_HMMActual","null","","","","Images/BlackBeadChoiceCorrect.png","null"
"image-keyboard-response","599","2406565","0.0-4.0-0.193","7","High_HMMActual","720.0800000061281","","","","Images/NewTrialBC.png","39"
"image-keyboard-response","600","2406817","0.0-4.0-1.193","7","High_HMMActual","null","","","","Images/WhiteBeadChoice.png","null"
"image-keyboard-response","601","2407318","0.0-4.0-2.193","7","High_HMMActual","null","","","","Images/WhiteBeadChoiceCorrect.png","null"
"image-keyboard-response","602","2407864","0.0-4.0-0.194","7","High_HMMActual","544.6400000001304","","","","Images/NewTrialWC.png","37"
"image-keyboard-response","603","2408115","0.0-4.0-1.194","7","High_HMMActual","null","","","","Images/BlackBeadChoice.png","null"
"image-keyboard-response","604","2408617","0.0-4.0-2.194","7","High_HMMActual","null","","","","Images/BlackBeadChoiceCorrect.png","null"
"image-keyboard-response","605","2409136","0.0-4.0-0.195","7","High_HMMActual","517.7449999977835","","","","Images/NewTrialBC.png","39"
"image-keyboard-response","606","2409388","0.0-4.0-1.195","7","High_HMMActual","null","","","","Images/WhiteBeadChoice.png","null"
"image-keyboard-response","607","2409889","0.0-4.0-2.195","7","High_HMMActual","null","","","","Images/WhiteBeadChoiceCorrect.png","null"
"image-keyboard-response","608","2411146","0.0-4.0-0.196","7","High_HMMActual","1256.2699999976903","","","","Images/NewTrialWC.png","39"
"image-keyboard-response","609","2411398","0.0-4.0-1.196","7","High_HMMActual","null","","","","Images/WhiteBeadChoice.png","null"
"image-keyboard-response","610","2411901","0.0-4.0-2.196","7","High_HMMActual","null","","","","Images/WhiteBeadChoiceWrong.png","null"
"image-keyboard-response","611","2412365","0.0-4.0-0.197","7","High_HMMActual","462.8599999998696","","","","Images/NewTrialBC.png","39"
"image-keyboard-response","612","2412616","0.0-4.0-1.197","7","High_HMMActual","null","","","","Images/WhiteBeadChoice.png","null"
"image-keyboard-response","613","2413118","0.0-4.0-2.197","7","High_HMMActual","null","","","","Images/WhiteBeadChoiceWrong.png","null"
"image-keyboard-response","614","2413751","0.0-4.0-0.198","7","High_HMMActual","632.085000005085","","","","Images/NewTrialBC.png","37"
"image-keyboard-response","615","2414002","0.0-4.0-1.198","7","High_HMMActual","null","","","","Images/BlackBeadChoice.png","null"
"image-keyboard-response","616","2414504","0.0-4.0-2.198","7","High_HMMActual","null","","","","Images/BlackBeadChoiceCorrect.png","null"
"image-keyboard-response","617","2414946","0.0-4.0-0.199","7","High_HMMActual","440.89499999955297","","","","Images/NewTrialBC.png","39"
"image-keyboard-response","618","2415197","0.0-4.0-1.199","7","High_HMMActual","null","","","","Images/WhiteBeadChoice.png","null"
"image-keyboard-response","619","2415699","0.0-4.0-2.199","7","High_HMMActual","null","","","","Images/WhiteBeadChoiceCorrect.png","null"
"image-keyboard-response","620","2416119","0.0-4.0-0.200","7","High_HMMActual","419.85500000044703","","","","Images/NewTrialWC.png","37"
"image-keyboard-response","621","2416371","0.0-4.0-1.200","7","High_HMMActual","null","","","","Images/BlackBeadChoice.png","null"
"image-keyboard-response","622","2416874","0.0-4.0-2.200","7","High_HMMActual","null","","","","Images/BlackBeadChoiceCorrect.png","null"
"image-keyboard-response","623","2417226","0.0-4.0-0.201","7","High_HMMActual","351.6900000027381","","","","Images/NewTrialBC.png","39"
"image-keyboard-response","624","2417478","0.0-4.0-1.201","7","High_HMMActual","null","","","","Images/WhiteBeadChoice.png","null"
"image-keyboard-response","625","2417981","0.0-4.0-2.201","7","High_HMMActual","null","","","","Images/WhiteBeadChoiceCorrect.png","null"
"image-keyboard-response","626","2418302","0.0-4.0-0.202","7","High_HMMActual","320.7299999995157","","","","Images/NewTrialWC.png","37"
"image-keyboard-response","627","2418554","0.0-4.0-1.202","7","High_HMMActual","null","","","","Images/BlackBeadChoice.png","null"
"image-keyboard-response","628","2419056","0.0-4.0-2.202","7","High_HMMActual","null","","","","Images/BlackBeadChoiceCorrect.png","null"
"image-keyboard-response","629","2419222","0.0-4.0-0.203","7","High_HMMActual","165.15500000258908","","","","Images/NewTrialBC.png","39"
"image-keyboard-response","630","2419474","0.0-4.0-1.203","7","High_HMMActual","null","","","","Images/WhiteBeadChoice.png","null"
"image-keyboard-response","631","2419975","0.0-4.0-2.203","7","High_HMMActual","null","","","","Images/WhiteBeadChoiceWrong.png","null"
"image-keyboard-response","632","2421104","0.0-4.0-0.204","7","High_HMMActual","1127.4449999979697","","","","Images/NewTrialBC.png","37"
"image-keyboard-response","633","2421355","0.0-4.0-1.204","7","High_HMMActual","null","","","","Images/BlackBeadChoice.png","null"
"image-keyboard-response","634","2421857","0.0-4.0-2.204","7","High_HMMActual","null","","","","Images/BlackBeadChoiceWrong.png","null"
"image-keyboard-response","635","2422124","0.0-4.0-0.205","7","High_HMMActual","265.52500000270084","","","","Images/NewTrialWC.png","39"
"image-keyboard-response","636","2422376","0.0-4.0-1.205","7","High_HMMActual","null","","","","Images/WhiteBeadChoice.png","null"
"image-keyboard-response","637","2422879","0.0-4.0-2.205","7","High_HMMActual","null","","","","Images/WhiteBeadChoiceCorrect.png","null"
"image-keyboard-response","638","2423566","0.0-4.0-0.206","7","High_HMMActual","686.5949999992736","","","","Images/NewTrialWC.png","39"
"image-keyboard-response","639","2423817","0.0-4.0-1.206","7","High_HMMActual","null","","","","Images/WhiteBeadChoice.png","null"
"image-keyboard-response","640","2424319","0.0-4.0-2.206","7","High_HMMActual","null","","","","Images/WhiteBeadChoiceWrong.png","null"
"image-keyboard-response","641","2424520","0.0-4.0-0.207","7","High_HMMActual","200.8950000014156","","","","Images/NewTrialBC.png","37"
"image-keyboard-response","642","2424771","0.0-4.0-1.207","7","High_HMMActual","null","","","","Images/BlackBeadChoice.png","null"
"image-keyboard-response","643","2425273","0.0-4.0-2.207","7","High_HMMActual","null","","","","Images/BlackBeadChoiceCorrect.png","null"
"image-keyboard-response","644","2425656","0.0-4.0-0.208","7","High_HMMActual","381.5800000014715","","","","Images/NewTrialBC.png","37"
"image-keyboard-response","645","2425907","0.0-4.0-1.208","7","High_HMMActual","null","","","","Images/BlackBeadChoice.png","null"
"image-keyboard-response","646","2426409","0.0-4.0-2.208","7","High_HMMActual","null","","","","Images/BlackBeadChoiceCorrect.png","null"
"image-keyboard-response","647","2427481","0.0-4.0-0.209","7","High_HMMActual","1070.5349999992177","","","","Images/NewTrialBC.png","39"
"image-keyboard-response","648","2427733","0.0-4.0-1.209","7","High_HMMActual","null","","","","Images/WhiteBeadChoice.png","null"
"image-keyboard-response","649","2428234","0.0-4.0-2.209","7","High_HMMActual","null","","","","Images/WhiteBeadChoiceCorrect.png","null"
"image-keyboard-response","650","2428629","0.0-4.0-0.210","7","High_HMMActual","393.6549999997951","","","","Images/NewTrialWC.png","37"
"image-keyboard-response","651","2428881","0.0-4.0-1.210","7","High_HMMActual","null","","","","Images/BlackBeadChoice.png","null"
"image-keyboard-response","652","2429382","0.0-4.0-2.210","7","High_HMMActual","null","","","","Images/BlackBeadChoiceCorrect.png","null"
"image-keyboard-response","653","2429752","0.0-4.0-0.211","7","High_HMMActual","368.95499999821186","","","","Images/NewTrialBC.png","39"
"image-keyboard-response","654","2430003","0.0-4.0-1.211","7","High_HMMActual","null","","","","Images/WhiteBeadChoice.png","null"
"image-keyboard-response","655","2430505","0.0-4.0-2.211","7","High_HMMActual","null","","","","Images/WhiteBeadChoiceWrong.png","null"
"image-keyboard-response","656","2432285","0.0-4.0-0.212","7","High_HMMActual","1778.199999993667","","","","Images/NewTrialBC.png","37"
"image-keyboard-response","657","2432536","0.0-4.0-1.212","7","High_HMMActual","null","","","","Images/BlackBeadChoice.png","null"
"image-keyboard-response","658","2433038","0.0-4.0-2.212","7","High_HMMActual","null","","","","Images/BlackBeadChoiceWrong.png","null"
"image-keyboard-response","659","2433844","0.0-4.0-0.213","7","High_HMMActual","805.0600000061095","","","","Images/NewTrialWC.png","37"
"image-keyboard-response","660","2434096","0.0-4.0-1.213","7","High_HMMActual","null","","","","Images/BlackBeadChoice.png","null"
"image-keyboard-response","661","2434598","0.0-4.0-2.213","7","High_HMMActual","null","","","","Images/BlackBeadChoiceCorrect.png","null"
"image-keyboard-response","662","2434898","0.0-4.0-0.214","7","High_HMMActual","299.81499999854714","","","","Images/NewTrialBC.png","39"
"image-keyboard-response","663","2435150","0.0-4.0-1.214","7","High_HMMActual","null","","","","Images/WhiteBeadChoice.png","null"
"image-keyboard-response","664","2435652","0.0-4.0-2.214","7","High_HMMActual","null","","","","Images/WhiteBeadChoiceCorrect.png","null"
"image-keyboard-response","665","2435995","0.0-4.0-0.215","7","High_HMMActual","342.59999999636784","","","","Images/NewTrialWC.png","37"
"image-keyboard-response","666","2436247","0.0-4.0-1.215","7","High_HMMActual","null","","","","Images/BlackBeadChoice.png","null"
"image-keyboard-response","667","2436749","0.0-4.0-2.215","7","High_HMMActual","null","","","","Images/BlackBeadChoiceWrong.png","null"
"image-keyboard-response","668","2437583","0.0-4.0-0.216","7","High_HMMActual","833.234999998007","","","","Images/NewTrialWC.png","39"
"image-keyboard-response","669","2437835","0.0-4.0-1.216","7","High_HMMActual","null","","","","Images/WhiteBeadChoice.png","null"
"image-keyboard-response","670","2438337","0.0-4.0-2.216","7","High_HMMActual","null","","","","Images/WhiteBeadChoiceCorrect.png","null"
"image-keyboard-response","671","2439005","0.0-4.0-0.217","7","High_HMMActual","667.1700000008568","","","","Images/NewTrialWC.png","37"
"image-keyboard-response","672","2439256","0.0-4.0-1.217","7","High_HMMActual","null","","","","Images/BlackBeadChoice.png","null"
"image-keyboard-response","673","2439758","0.0-4.0-2.217","7","High_HMMActual","null","","","","Images/BlackBeadChoiceCorrect.png","null"
"image-keyboard-response","674","2440172","0.0-4.0-0.218","7","High_HMMActual","413.58999999659136","","","","Images/NewTrialBC.png","39"
"image-keyboard-response","675","2440424","0.0-4.0-1.218","7","High_HMMActual","null","","","","Images/WhiteBeadChoice.png","null"
"image-keyboard-response","676","2440926","0.0-4.0-2.218","7","High_HMMActual","null","","","","Images/WhiteBeadChoiceCorrect.png","null"
"image-keyboard-response","677","2441465","0.0-4.0-0.219","7","High_HMMActual","538.4449999984354","","","","Images/NewTrialWC.png","37"
"image-keyboard-response","678","2441717","0.0-4.0-1.219","7","High_HMMActual","null","","","","Images/BlackBeadChoice.png","null"
"image-keyboard-response","679","2442218","0.0-4.0-2.219","7","High_HMMActual","null","","","","Images/BlackBeadChoiceCorrect.png","null"
"image-keyboard-response","680","2442580","0.0-4.0-0.220","7","High_HMMActual","360.63000000314787","","","","Images/NewTrialBC.png","37"
"image-keyboard-response","681","2442833","0.0-4.0-1.220","7","High_HMMActual","null","","","","Images/BlackBeadChoice.png","null"
"image-keyboard-response","682","2443335","0.0-4.0-2.220","7","High_HMMActual","null","","","","Images/BlackBeadChoiceWrong.png","null"
"image-keyboard-response","683","2443661","0.0-4.0-0.221","7","High_HMMActual","324.9750000028871","","","","Images/NewTrialWC.png","37"
"image-keyboard-response","684","2443913","0.0-4.0-1.221","7","High_HMMActual","null","","","","Images/BlackBeadChoice.png","null"
"image-keyboard-response","685","2444414","0.0-4.0-2.221","7","High_HMMActual","null","","","","Images/BlackBeadChoiceCorrect.png","null"
"image-keyboard-response","686","2445183","0.0-4.0-0.222","7","High_HMMActual","768.1799999992363","","","","Images/NewTrialBC.png","37"
"image-keyboard-response","687","2445435","0.0-4.0-1.222","7","High_HMMActual","null","","","","Images/BlackBeadChoice.png","null"
"image-keyboard-response","688","2445936","0.0-4.0-2.222","7","High_HMMActual","null","","","","Images/BlackBeadChoiceWrong.png","null"
"image-keyboard-response","689","2446297","0.0-4.0-0.223","7","High_HMMActual","359.39499999955297","","","","Images/NewTrialWC.png","37"
"image-keyboard-response","690","2446548","0.0-4.0-1.223","7","High_HMMActual","null","","","","Images/BlackBeadChoice.png","null"
"image-keyboard-response","691","2447049","0.0-4.0-2.223","7","High_HMMActual","null","","","","Images/BlackBeadChoiceCorrect.png","null"
"image-keyboard-response","692","2447217","0.0-4.0-0.224","7","High_HMMActual","167.00000000139698","","","","Images/NewTrialBC.png","39"
"image-keyboard-response","693","2447469","0.0-4.0-1.224","7","High_HMMActual","null","","","","Images/WhiteBeadChoice.png","null"
"image-keyboard-response","694","2447971","0.0-4.0-2.224","7","High_HMMActual","null","","","","Images/WhiteBeadChoiceCorrect.png","null"
"image-keyboard-response","695","2448239","0.0-4.0-0.225","7","High_HMMActual","267.11499999510124","","","","Images/NewTrialWC.png","37"
"image-keyboard-response","696","2448491","0.0-4.0-1.225","7","High_HMMActual","null","","","","Images/BlackBeadChoice.png","null"
"image-keyboard-response","697","2448994","0.0-4.0-2.225","7","High_HMMActual","null","","","","Images/BlackBeadChoiceWrong.png","null"
"image-keyboard-response","698","2449211","0.0-4.0-0.226","7","High_HMMActual","216.20499999681488","","","","Images/NewTrialWC.png","39"
"image-keyboard-response","699","2449463","0.0-4.0-1.226","7","High_HMMActual","null","","","","Images/WhiteBeadChoice.png","null"
"image-keyboard-response","700","2449965","0.0-4.0-2.226","7","High_HMMActual","null","","","","Images/WhiteBeadChoiceCorrect.png","null"
"image-keyboard-response","701","2450260","0.0-4.0-0.227","7","High_HMMActual","294.8299999986775","","","","Images/NewTrialWC.png","37"
"image-keyboard-response","702","2450512","0.0-4.0-1.227","7","High_HMMActual","null","","","","Images/BlackBeadChoice.png","null"
"image-keyboard-response","703","2451014","0.0-4.0-2.227","7","High_HMMActual","null","","","","Images/BlackBeadChoiceCorrect.png","null"
"image-keyboard-response","704","2452162","0.0-4.0-0.228","7","High_HMMActual","1147.7199999936856","","","","Images/NewTrialBC.png","37"
"image-keyboard-response","705","2452414","0.0-4.0-1.228","7","High_HMMActual","null","","","","Images/BlackBeadChoice.png","null"
"image-keyboard-response","706","2452916","0.0-4.0-2.228","7","High_HMMActual","null","","","","Images/BlackBeadChoiceWrong.png","null"
"image-keyboard-response","707","2453774","0.0-4.0-0.229","7","High_HMMActual","856.9749999954365","","","","Images/NewTrialWC.png","37"
"image-keyboard-response","708","2454026","0.0-4.0-1.229","7","High_HMMActual","null","","","","Images/BlackBeadChoice.png","null"
"image-keyboard-response","709","2454527","0.0-4.0-2.229","7","High_HMMActual","null","","","","Images/BlackBeadChoiceCorrect.png","null"
"image-keyboard-response","710","2454912","0.0-4.0-0.230","7","High_HMMActual","383.9049999951385","","","","Images/NewTrialBC.png","39"
"image-keyboard-response","711","2455165","0.0-4.0-1.230","7","High_HMMActual","null","","","","Images/WhiteBeadChoice.png","null"
"image-keyboard-response","712","2455666","0.0-4.0-2.230","7","High_HMMActual","null","","","","Images/WhiteBeadChoiceCorrect.png","null"
"image-keyboard-response","713","2456040","0.0-4.0-0.231","7","High_HMMActual","372.6249999962747","","","","Images/NewTrialWC.png","37"
"image-keyboard-response","714","2456292","0.0-4.0-1.231","7","High_HMMActual","null","","","","Images/BlackBeadChoice.png","null"
"image-keyboard-response","715","2456793","0.0-4.0-2.231","7","High_HMMActual","null","","","","Images/BlackBeadChoiceCorrect.png","null"
"image-keyboard-response","716","2457165","0.0-4.0-0.232","7","High_HMMActual","369.9049999997951","","","","Images/NewTrialBC.png","37"
"image-keyboard-response","717","2457417","0.0-4.0-1.232","7","High_HMMActual","null","","","","Images/BlackBeadChoice.png","null"
