"trial_type","trial_index","time_elapsed","internal_node_id","Script_Picker","Block_Type","rt","url","responses","question_order","stimulus","key_press"
"pavlovia","0","6","0.0-0.0","9","Low_HMMActual","","","","","",""
"external-html","1","14061","0.0-1.0-0.0","9","Low_HMMActual","13874.880000017583","consent.html","","","",""
"survey-multi-choice","2","18394","0.0-1.0-1.0","9","Low_HMMActual","4331.070000072941","","{""Q0"":""Male"",""Q1"":""Asian""}","[0,1]","",""
"survey-text","3","21811","0.0-1.0-2.0","9","Low_HMMActual","3412.3400000389665","","{""Q0"":""43""}","","",""
"survey-text","4","29328","0.0-1.0-3.0","9","Low_HMMActual","7411.990000051446","","{""Q0"":""5eedb6e33c65b81eb84679db""}","","",""
"html-keyboard-response","5","53601","0.0-2.0-0.0","9","Low_HMMActual","24168.940000003204","","","","<div class=""container"" style=""height:800px;width:800px;display:flex;flex-direction:column;justify-content:center;align-items:center;text-align:center;font-weight:normal;font-family:Arial;font-size:20px""><p>In this task you will see black or white beads being pulled from jars. <br><br>On each trial, a bead will be pulled from one of two jars. Once you see this bead, your goal is to predict the color of NEXT bead that will be pulled. <br> <br>Every time you correctly guess the color of the NEXT bead, you will get a point. <br><br>Press the SPACEBAR to continue.</p><div>","32"
"html-keyboard-response","6","65879","0.0-2.0-1.0","9","Low_HMMActual","12276.339999982156","","","","<div class=""container"" style=""height:800px;width:800px;display:flex;flex-direction:column;justify-content:center;align-items:center;text-align:center;font-weight:normal;font-family:Arial;font-size:20px""><p>Jars are filled with 85% white or black beads and 15% of the opposite color mixed in<br><br>Press the SPACEBAR to continue. </p><div>","32"
"image-keyboard-response","7","70158","0.0-2.0-2.0","9","Low_HMMActual","4277.02500007581","","","","resources/WhiteJar_HMM.png","32"
"image-keyboard-response","8","73014","0.0-2.0-3.0","9","Low_HMMActual","2854.1149999946356","","","","resources/BlackJar_HMM.png","32"
"html-keyboard-response","9","81512","0.0-2.0-4.0","9","Low_HMMActual","8496.365000028163","","","","<div class=""container"" style=""height:800px;width:800px;display:flex;flex-direction:column;justify-content:center;align-items:center;text-align:center;font-weight:normal;font-family:Arial;font-size:20px""><p>There will be two blocks of trials. Each block will contain 500 trials. <br><br>Here are examples of what you will see on each trial.<br><br>Press the SPACEBAR to continue. </p><div>","32"
"image-keyboard-response","10","87068","0.0-2.0-5.0","9","Low_HMMActual","5554.304999997839","","","","Images/NoChoice.png","32"
"html-keyboard-response","11","124159","0.0-2.0-6.0","9","Low_HMMActual","37090.10499995202","","","","<div class=""container"" style=""height:800px;width:800px;display:flex;flex-direction:column;justify-content:center;align-items:center;text-align:center;font-weight:normal;font-family:Arial;font-size:20px""><p> The jar the beads are pulled from is NOT choosen at random on each trial.<br><br>After each prediction, there will be a chance that the jars will switch, and that the next bead will be pulled from the opposite jar as the previous trial.<br><br>In each block, the chance that a jar will switch will either be LOW (the jars will not switch very often), or HIGH (the jars will switch almost all the time).<br><br>At the start of each block, you will be told the probability that the jars will switch on each trial. This switch probability will stay constant throughout the block.<br><br>Press the SPACEBAR to continue. </p><div>","32"
"image-keyboard-response","12","143206","0.0-2.0-7.0","9","Low_HMMActual","19045.07500003092","","","","Images/TutorialWhiteJarDrawHMMC.png","32"
"image-keyboard-response","13","153951","0.0-2.0-8.0","9","Low_HMMActual","10743.415000033565","","","","Images/TutorialBlackJarDrawHMMC.png","32"
"image-keyboard-response","14","157373","0.0-2.0-9.0","9","Low_HMMActual","3421.070000040345","","","","Images/TutorialBlackJarDrawHMMI.png","32"
"html-keyboard-response","15","192468","0.0-2.0-10.0","9","Low_HMMActual","35094.69000005629","","","","<div class=""container"" style=""height:800px;width:800px;display:flex;flex-direction:column;justify-content:center;align-items:center;text-align:center;font-weight:normal;font-family:Arial;font-size:20px""><p> As you observed, a white bead was pulled from a 85% white jar, the jars switched and a black bead was pulled from the 85% black jar, but then low-probability white bead was pulled from the 90% black jar. <br><br>In these mixed-jar blocks, you will first have to figure out which jar the current bead was pulled from, then use the jar switch probability to predict the color of the next bead.<br><br>Press SPACEBAR to conitnue.</p><div>","32"
"html-keyboard-response","16","195638","0.0-2.0-11.0","9","Low_HMMActual","3169.4249999709427","","","","<div class=""container"" style=""height:800px;width:800px;display:flex;flex-direction:column;justify-content:center;align-items:center;text-align:center;font-weight:normal;font-family:Arial;font-size:20px""><p> You will now be given a 2 question quiz to make sure you understand the fundamentals. </p><div>","32"
"image-keyboard-response","17","206637","0.0-2.0-12.0","9","Low_HMMActual","10998.419999959879","","","","Images/TutorialQuestion1.png","39"
"image-keyboard-response","18","216908","0.0-2.0-13.0","9","Low_HMMActual","7807.700000004843","","","","Images/TutorialQuestion2.png","38"
"html-keyboard-response","19","245952","0.0-3.0","9","Low_HMMActual","27850.64999992028","","","","<div class=""container"" style=""height:800px;width:800px;display:flex;flex-direction:column;justify-content:center;align-items:center;text-align:center;font-weight:normal;font-family:Arial;font-size:20px""><p>Loading episode&hellip;</p><div>","32"
"image-keyboard-response","20","260291","0.0-4.0-0.0","9","Low_HMMActual","14337.700000032783","","","","Images/NoChoice.png","37"
"image-keyboard-response","21","260543","0.0-4.0-1.0","9","Low_HMMActual","null","","","","Images/BlackBeadChoice.png","null"
"image-keyboard-response","22","261045","0.0-4.0-2.0","9","Low_HMMActual","null","","","","Images/BlackBeadChoiceWrong.png","null"
"image-keyboard-response","23","277029","0.0-4.0-0.1","9","Low_HMMActual","15981.150000006892","","","","Images/NewTrialWC.png","37"
"image-keyboard-response","24","277281","0.0-4.0-1.1","9","Low_HMMActual","null","","","","Images/BlackBeadChoice.png","null"
"image-keyboard-response","25","277783","0.0-4.0-2.1","9","Low_HMMActual","null","","","","Images/BlackBeadChoiceWrong.png","null"
"image-keyboard-response","26","281797","0.0-4.0-0.2","9","Low_HMMActual","4013.615000061691","","","","Images/NewTrialWC.png","37"
"image-keyboard-response","27","282050","0.0-4.0-1.2","9","Low_HMMActual","null","","","","Images/BlackBeadChoice.png","null"
"image-keyboard-response","28","282552","0.0-4.0-2.2","9","Low_HMMActual","null","","","","Images/BlackBeadChoiceWrong.png","null"
"image-keyboard-response","29","283974","0.0-4.0-0.3","9","Low_HMMActual","1419.965000008233","","","","Images/NewTrialWC.png","37"
"image-keyboard-response","30","284227","0.0-4.0-1.3","9","Low_HMMActual","null","","","","Images/BlackBeadChoice.png","null"
"image-keyboard-response","31","284728","0.0-4.0-2.3","9","Low_HMMActual","null","","","","Images/BlackBeadChoiceWrong.png","null"
"image-keyboard-response","32","286012","0.0-4.0-0.4","9","Low_HMMActual","1283.0250000115484","","","","Images/NewTrialWC.png","39"
"image-keyboard-response","33","286265","0.0-4.0-1.4","9","Low_HMMActual","null","","","","Images/WhiteBeadChoice.png","null"
"image-keyboard-response","34","286768","0.0-4.0-2.4","9","Low_HMMActual","null","","","","Images/WhiteBeadChoiceCorrect.png","null"
"image-keyboard-response","35","287469","0.0-4.0-0.5","9","Low_HMMActual","698.9799999864772","","","","Images/NewTrialWC.png","39"
"image-keyboard-response","36","287722","0.0-4.0-1.5","9","Low_HMMActual","null","","","","Images/WhiteBeadChoice.png","null"
"image-keyboard-response","37","288225","0.0-4.0-2.5","9","Low_HMMActual","null","","","","Images/WhiteBeadChoiceCorrect.png","null"
"image-keyboard-response","38","289349","0.0-4.0-0.6","9","Low_HMMActual","1122.3600000375882","","","","Images/NewTrialWC.png","37"
"image-keyboard-response","39","289601","0.0-4.0-1.6","9","Low_HMMActual","null","","","","Images/BlackBeadChoice.png","null"
"image-keyboard-response","40","290103","0.0-4.0-2.6","9","Low_HMMActual","null","","","","Images/BlackBeadChoiceWrong.png","null"
"image-keyboard-response","41","290509","0.0-4.0-0.7","9","Low_HMMActual","403.8050000090152","","","","Images/NewTrialWC.png","39"
"image-keyboard-response","42","290761","0.0-4.0-1.7","9","Low_HMMActual","null","","","","Images/WhiteBeadChoice.png","null"
"image-keyboard-response","43","291263","0.0-4.0-2.7","9","Low_HMMActual","null","","","","Images/WhiteBeadChoiceCorrect.png","null"
"image-keyboard-response","44","293285","0.0-4.0-0.8","9","Low_HMMActual","2021.1600000038743","","","","Images/NewTrialWC.png","39"
"image-keyboard-response","45","293537","0.0-4.0-1.8","9","Low_HMMActual","null","","","","Images/WhiteBeadChoice.png","null"
"image-keyboard-response","46","294040","0.0-4.0-2.8","9","Low_HMMActual","null","","","","Images/WhiteBeadChoiceCorrect.png","null"
"image-keyboard-response","47","294396","0.0-4.0-0.9","9","Low_HMMActual","353.6999999778345","","","","Images/NewTrialWC.png","39"
"image-keyboard-response","48","294647","0.0-4.0-1.9","9","Low_HMMActual","null","","","","Images/WhiteBeadChoice.png","null"
"image-keyboard-response","49","295150","0.0-4.0-2.9","9","Low_HMMActual","null","","","","Images/WhiteBeadChoiceCorrect.png","null"
"image-keyboard-response","50","295789","0.0-4.0-0.10","9","Low_HMMActual","636.6350000025705","","","","Images/NewTrialWC.png","37"
"image-keyboard-response","51","296041","0.0-4.0-1.10","9","Low_HMMActual","null","","","","Images/BlackBeadChoice.png","null"
"image-keyboard-response","52","296542","0.0-4.0-2.10","9","Low_HMMActual","null","","","","Images/BlackBeadChoiceWrong.png","null"
"image-keyboard-response","53","296909","0.0-4.0-0.11","9","Low_HMMActual","364.049999974668","","","","Images/NewTrialWC.png","37"
"image-keyboard-response","54","297161","0.0-4.0-1.11","9","Low_HMMActual","null","","","","Images/BlackBeadChoice.png","null"
"image-keyboard-response","55","297663","0.0-4.0-2.11","9","Low_HMMActual","null","","","","Images/BlackBeadChoiceCorrect.png","null"
"image-keyboard-response","56","298910","0.0-4.0-0.12","9","Low_HMMActual","1244.5200000656769","","","","Images/NewTrialBC.png","37"
"image-keyboard-response","57","299162","0.0-4.0-1.12","9","Low_HMMActual","null","","","","Images/BlackBeadChoice.png","null"
"image-keyboard-response","58","299665","0.0-4.0-2.12","9","Low_HMMActual","null","","","","Images/BlackBeadChoiceWrong.png","null"
"image-keyboard-response","59","299940","0.0-4.0-0.13","9","Low_HMMActual","274.3400000035763","","","","Images/NewTrialWC.png","39"
"image-keyboard-response","60","300192","0.0-4.0-1.13","9","Low_HMMActual","null","","","","Images/WhiteBeadChoice.png","null"
"image-keyboard-response","61","300695","0.0-4.0-2.13","9","Low_HMMActual","null","","","","Images/WhiteBeadChoiceCorrect.png","null"
"image-keyboard-response","62","300805","0.0-4.0-0.14","9","Low_HMMActual","108.17000002134591","","","","Images/NewTrialWC.png","39"
"image-keyboard-response","63","301058","0.0-4.0-1.14","9","Low_HMMActual","null","","","","Images/WhiteBeadChoice.png","null"
"image-keyboard-response","64","301560","0.0-4.0-2.14","9","Low_HMMActual","329.79500002693385","","","","Images/WhiteBeadChoiceCorrect.png","39"
"image-keyboard-response","65","301966","0.0-4.0-0.15","9","Low_HMMActual","404.9349999986589","","","","Images/NewTrialWC.png","39"
"image-keyboard-response","66","302217","0.0-4.0-1.15","9","Low_HMMActual","null","","","","Images/WhiteBeadChoice.png","null"
"image-keyboard-response","67","302720","0.0-4.0-2.15","9","Low_HMMActual","null","","","","Images/WhiteBeadChoiceCorrect.png","null"
"image-keyboard-response","68","302797","0.0-4.0-0.16","9","Low_HMMActual","75.46500000171363","","","","Images/NewTrialWC.png","39"
"image-keyboard-response","69","303053","0.0-4.0-1.16","9","Low_HMMActual","null","","","","Images/WhiteBeadChoice.png","null"
"image-keyboard-response","70","303555","0.0-4.0-2.16","9","Low_HMMActual","null","","","","Images/WhiteBeadChoiceCorrect.png","null"
"image-keyboard-response","71","303651","0.0-4.0-0.17","9","Low_HMMActual","94.09500006586313","","","","Images/NewTrialWC.png","39"
"image-keyboard-response","72","303903","0.0-4.0-1.17","9","Low_HMMActual","null","","","","Images/WhiteBeadChoice.png","null"
"image-keyboard-response","73","304405","0.0-4.0-2.17","9","Low_HMMActual","null","","","","Images/WhiteBeadChoiceCorrect.png","null"
"image-keyboard-response","74","304772","0.0-4.0-0.18","9","Low_HMMActual","364.58000005222857","","","","Images/NewTrialWC.png","39"
"image-keyboard-response","75","305023","0.0-4.0-1.18","9","Low_HMMActual","null","","","","Images/WhiteBeadChoice.png","null"
"image-keyboard-response","76","305524","0.0-4.0-2.18","9","Low_HMMActual","null","","","","Images/WhiteBeadChoiceWrong.png","null"
"image-keyboard-response","77","306094","0.0-4.0-0.19","9","Low_HMMActual","568.5400000074878","","","","Images/NewTrialBC.png","37"
"image-keyboard-response","78","306346","0.0-4.0-1.19","9","Low_HMMActual","null","","","","Images/BlackBeadChoice.png","null"
"image-keyboard-response","79","306848","0.0-4.0-2.19","9","Low_HMMActual","432.23000003490597","","","","Images/BlackBeadChoiceCorrect.png","37"
"image-keyboard-response","80","307180","0.0-4.0-0.20","9","Low_HMMActual","331.9750000955537","","","","Images/NewTrialBC.png","37"
"image-keyboard-response","81","307433","0.0-4.0-1.20","9","Low_HMMActual","null","","","","Images/BlackBeadChoice.png","null"
"image-keyboard-response","82","307936","0.0-4.0-2.20","9","Low_HMMActual","417.3850000370294","","","","Images/BlackBeadChoiceWrong.png","37"
"image-keyboard-response","83","308365","0.0-4.0-0.21","9","Low_HMMActual","426.8550000851974","","","","Images/NewTrialWC.png","39"
"image-keyboard-response","84","308618","0.0-4.0-1.21","9","Low_HMMActual","null","","","","Images/WhiteBeadChoice.png","null"
"image-keyboard-response","85","309120","0.0-4.0-2.21","9","Low_HMMActual","null","","","","Images/WhiteBeadChoiceCorrect.png","null"
"image-keyboard-response","86","309261","0.0-4.0-0.22","9","Low_HMMActual","138.80499999504536","","","","Images/NewTrialWC.png","39"
"image-keyboard-response","87","309512","0.0-4.0-1.22","9","Low_HMMActual","null","","","","Images/WhiteBeadChoice.png","null"
"image-keyboard-response","88","310015","0.0-4.0-2.22","9","Low_HMMActual","null","","","","Images/WhiteBeadChoiceCorrect.png","null"
"image-keyboard-response","89","310075","0.0-4.0-0.23","9","Low_HMMActual","58.12500009778887","","","","Images/NewTrialWC.png","39"
"image-keyboard-response","90","310327","0.0-4.0-1.23","9","Low_HMMActual","null","","","","Images/WhiteBeadChoice.png","null"
"image-keyboard-response","91","310829","0.0-4.0-2.23","9","Low_HMMActual","null","","","","Images/WhiteBeadChoiceCorrect.png","null"
"image-keyboard-response","92","310860","0.0-4.0-0.24","9","Low_HMMActual","29.60999996867031","","","","Images/NewTrialWC.png","39"
"image-keyboard-response","93","311113","0.0-4.0-1.24","9","Low_HMMActual","null","","","","Images/WhiteBeadChoice.png","null"
"image-keyboard-response","94","311615","0.0-4.0-2.24","9","Low_HMMActual","402.11000002454966","","","","Images/WhiteBeadChoiceCorrect.png","39"
"image-keyboard-response","95","311940","0.0-4.0-0.25","9","Low_HMMActual","323.72500002384186","","","","Images/NewTrialWC.png","39"
"image-keyboard-response","96","312193","0.0-4.0-1.25","9","Low_HMMActual","null","","","","Images/WhiteBeadChoice.png","null"
"image-keyboard-response","97","312696","0.0-4.0-2.25","9","Low_HMMActual","null","","","","Images/WhiteBeadChoiceWrong.png","null"
"image-keyboard-response","98","312843","0.0-4.0-0.26","9","Low_HMMActual","145.93500003684312","","","","Images/NewTrialBC.png","37"
"image-keyboard-response","99","313095","0.0-4.0-1.26","9","Low_HMMActual","null","","","","Images/BlackBeadChoice.png","null"
"image-keyboard-response","100","313596","0.0-4.0-2.26","9","Low_HMMActual","null","","","","Images/BlackBeadChoiceWrong.png","null"
"image-keyboard-response","101","313644","0.0-4.0-0.27","9","Low_HMMActual","47.919999924488366","","","","Images/NewTrialWC.png","39"
"image-keyboard-response","102","313897","0.0-4.0-1.27","9","Low_HMMActual","null","","","","Images/WhiteBeadChoice.png","null"
"image-keyboard-response","103","314400","0.0-4.0-2.27","9","Low_HMMActual","null","","","","Images/WhiteBeadChoiceCorrect.png","null"
"image-keyboard-response","104","314429","0.0-4.0-0.28","9","Low_HMMActual","26.47500007878989","","","","Images/NewTrialWC.png","39"
"image-keyboard-response","105","314680","0.0-4.0-1.28","9","Low_HMMActual","null","","","","Images/WhiteBeadChoice.png","null"
"image-keyboard-response","106","315182","0.0-4.0-2.28","9","Low_HMMActual","434.34500007424504","","","","Images/WhiteBeadChoiceCorrect.png","39"
"image-keyboard-response","107","315444","0.0-4.0-0.29","9","Low_HMMActual","259.7700000042096","","","","Images/NewTrialWC.png","39"
"image-keyboard-response","108","315695","0.0-4.0-1.29","9","Low_HMMActual","null","","","","Images/WhiteBeadChoice.png","null"
"image-keyboard-response","109","316197","0.0-4.0-2.29","9","Low_HMMActual","null","","","","Images/WhiteBeadChoiceCorrect.png","null"
"image-keyboard-response","110","316357","0.0-4.0-0.30","9","Low_HMMActual","158.18999998737127","","","","Images/NewTrialWC.png","39"
"image-keyboard-response","111","316610","0.0-4.0-1.30","9","Low_HMMActual","null","","","","Images/WhiteBeadChoice.png","null"
"image-keyboard-response","112","317111","0.0-4.0-2.30","9","Low_HMMActual","419.7900000726804","","","","Images/WhiteBeadChoiceCorrect.png","39"
"image-keyboard-response","113","317468","0.0-4.0-0.31","9","Low_HMMActual","354.8399999272078","","","","Images/NewTrialWC.png","39"
"image-keyboard-response","114","317720","0.0-4.0-1.31","9","Low_HMMActual","null","","","","Images/WhiteBeadChoice.png","null"
"image-keyboard-response","115","318222","0.0-4.0-2.31","9","Low_HMMActual","null","","","","Images/WhiteBeadChoiceCorrect.png","null"
"image-keyboard-response","116","318461","0.0-4.0-0.32","9","Low_HMMActual","238.06999996304512","","","","Images/NewTrialWC.png","39"
"image-keyboard-response","117","318714","0.0-4.0-1.32","9","Low_HMMActual","null","","","","Images/WhiteBeadChoice.png","null"
"image-keyboard-response","118","319216","0.0-4.0-2.32","9","Low_HMMActual","null","","","","Images/WhiteBeadChoiceWrong.png","null"
"image-keyboard-response","119","319541","0.0-4.0-0.33","9","Low_HMMActual","324.19499999377877","","","","Images/NewTrialBC.png","37"
"image-keyboard-response","120","319793","0.0-4.0-1.33","9","Low_HMMActual","null","","","","Images/BlackBeadChoice.png","null"
"image-keyboard-response","121","320295","0.0-4.0-2.33","9","Low_HMMActual","null","","","","Images/BlackBeadChoiceWrong.png","null"
"image-keyboard-response","122","320414","0.0-4.0-0.34","9","Low_HMMActual","117.3899999121204","","","","Images/NewTrialWC.png","39"
"image-keyboard-response","123","320666","0.0-4.0-1.34","9","Low_HMMActual","null","","","","Images/WhiteBeadChoice.png","null"
"image-keyboard-response","124","321167","0.0-4.0-2.34","9","Low_HMMActual","null","","","","Images/WhiteBeadChoiceWrong.png","null"
"image-keyboard-response","125","321237","0.0-4.0-0.35","9","Low_HMMActual","68.92999995034188","","","","Images/NewTrialBC.png","37"
"image-keyboard-response","126","321489","0.0-4.0-1.35","9","Low_HMMActual","null","","","","Images/BlackBeadChoice.png","null"
"image-keyboard-response","127","321992","0.0-4.0-2.35","9","Low_HMMActual","354.01999996975064","","","","Images/BlackBeadChoiceCorrect.png","39"
"image-keyboard-response","128","323340","0.0-4.0-0.36","9","Low_HMMActual","1346.1649999953806","","","","Images/NewTrialBC.png","39"
"image-keyboard-response","129","323592","0.0-4.0-1.36","9","Low_HMMActual","null","","","","Images/WhiteBeadChoice.png","null"
"image-keyboard-response","130","324094","0.0-4.0-2.36","9","Low_HMMActual","484.01999997440726","","","","Images/WhiteBeadChoiceWrong.png","37"
"image-keyboard-response","131","324404","0.0-4.0-0.37","9","Low_HMMActual","308.019999996759","","","","Images/NewTrialBC.png","37"
"image-keyboard-response","132","324654","0.0-4.0-1.37","9","Low_HMMActual","null","","","","Images/BlackBeadChoice.png","null"
"image-keyboard-response","133","325157","0.0-4.0-2.37","9","Low_HMMActual","470.77999997418374","","","","Images/BlackBeadChoiceCorrect.png","37"
"image-keyboard-response","134","325428","0.0-4.0-0.38","9","Low_HMMActual","269.35499999672174","","","","Images/NewTrialBC.png","37"
"image-keyboard-response","135","325680","0.0-4.0-1.38","9","Low_HMMActual","null","","","","Images/BlackBeadChoice.png","null"
"image-keyboard-response","136","326183","0.0-4.0-2.38","9","Low_HMMActual","356.1900000786409","","","","Images/BlackBeadChoiceCorrect.png","37"
"image-keyboard-response","137","326253","0.0-4.0-0.39","9","Low_HMMActual","67.46500008739531","","","","Images/NewTrialBC.png","37"
"image-keyboard-response","138","326505","0.0-4.0-1.39","9","Low_HMMActual","null","","","","Images/BlackBeadChoice.png","null"
"image-keyboard-response","139","327006","0.0-4.0-2.39","9","Low_HMMActual","300.8099999278784","","","","Images/BlackBeadChoiceCorrect.png","37"
"image-keyboard-response","140","327086","0.0-4.0-0.40","9","Low_HMMActual","77.73000001907349","","","","Images/NewTrialBC.png","37"
"image-keyboard-response","141","327339","0.0-4.0-1.40","9","Low_HMMActual","null","","","","Images/BlackBeadChoice.png","null"
"image-keyboard-response","142","327842","0.0-4.0-2.40","9","Low_HMMActual","1.2499999720603228","","","","Images/BlackBeadChoiceCorrect.png","37"
"image-keyboard-response","143","328006","0.0-4.0-0.41","9","Low_HMMActual","161.83999995701015","","","","Images/NewTrialBC.png","37"
"image-keyboard-response","144","328258","0.0-4.0-1.41","9","Low_HMMActual","null","","","","Images/BlackBeadChoice.png","null"
"image-keyboard-response","145","328760","0.0-4.0-2.41","9","Low_HMMActual","352.625000057742","","","","Images/BlackBeadChoiceCorrect.png","37"
"image-keyboard-response","146","328838","0.0-4.0-0.42","9","Low_HMMActual","77.30999996419996","","","","Images/NewTrialBC.png","37"
"image-keyboard-response","147","329090","0.0-4.0-1.42","9","Low_HMMActual","null","","","","Images/BlackBeadChoice.png","null"
"image-keyboard-response","148","329593","0.0-4.0-2.42","9","Low_HMMActual","306.14000000059605","","","","Images/BlackBeadChoiceWrong.png","37"
"image-keyboard-response","149","329772","0.0-4.0-0.43","9","Low_HMMActual","178.48500004038215","","","","Images/NewTrialWC.png","39"
"image-keyboard-response","150","330023","0.0-4.0-1.43","9","Low_HMMActual","null","","","","Images/WhiteBeadChoice.png","null"
"image-keyboard-response","151","330527","0.0-4.0-2.43","9","Low_HMMActual","null","","","","Images/WhiteBeadChoiceWrong.png","null"
"image-keyboard-response","152","330660","0.0-4.0-0.44","9","Low_HMMActual","131.02500000968575","","","","Images/NewTrialBC.png","37"
"image-keyboard-response","153","330911","0.0-4.0-1.44","9","Low_HMMActual","null","","","","Images/BlackBeadChoice.png","null"
"image-keyboard-response","154","331413","0.0-4.0-2.44","9","Low_HMMActual","428.44499996863306","","","","Images/BlackBeadChoiceCorrect.png","37"
"image-keyboard-response","155","331780","0.0-4.0-0.45","9","Low_HMMActual","365.11500005144626","","","","Images/NewTrialBC.png","37"
"image-keyboard-response","156","332030","0.0-4.0-1.45","9","Low_HMMActual","null","","","","Images/BlackBeadChoice.png","null"
"image-keyboard-response","157","332533","0.0-4.0-2.45","9","Low_HMMActual","null","","","","Images/BlackBeadChoiceCorrect.png","null"
"image-keyboard-response","158","332989","0.0-4.0-0.46","9","Low_HMMActual","454.1700000409037","","","","Images/NewTrialBC.png","37"
"image-keyboard-response","159","333242","0.0-4.0-1.46","9","Low_HMMActual","null","","","","Images/BlackBeadChoice.png","null"
"image-keyboard-response","160","333744","0.0-4.0-2.46","9","Low_HMMActual","null","","","","Images/BlackBeadChoiceCorrect.png","null"
"image-keyboard-response","161","334413","0.0-4.0-0.47","9","Low_HMMActual","668.2299999520183","","","","Images/NewTrialBC.png","37"
"image-keyboard-response","162","334665","0.0-4.0-1.47","9","Low_HMMActual","null","","","","Images/BlackBeadChoice.png","null"
"image-keyboard-response","163","335167","0.0-4.0-2.47","9","Low_HMMActual","null","","","","Images/BlackBeadChoiceWrong.png","null"
"image-keyboard-response","164","335390","0.0-4.0-0.48","9","Low_HMMActual","220.5599999288097","","","","Images/NewTrialWC.png","39"
"image-keyboard-response","165","335642","0.0-4.0-1.48","9","Low_HMMActual","null","","","","Images/WhiteBeadChoice.png","null"
"image-keyboard-response","166","336144","0.0-4.0-2.48","9","Low_HMMActual","null","","","","Images/WhiteBeadChoiceCorrect.png","null"
"image-keyboard-response","167","338309","0.0-4.0-0.49","9","Low_HMMActual","2163.93500007689","","","","Images/NewTrialWC.png","39"
"image-keyboard-response","168","338561","0.0-4.0-1.49","9","Low_HMMActual","null","","","","Images/WhiteBeadChoice.png","null"
"image-keyboard-response","169","339062","0.0-4.0-2.49","9","Low_HMMActual","null","","","","Images/WhiteBeadChoiceCorrect.png","null"
"image-keyboard-response","170","340366","0.0-4.0-0.50","9","Low_HMMActual","1302.0049999468029","","","","Images/NewTrialWC.png","39"
"image-keyboard-response","171","340618","0.0-4.0-1.50","9","Low_HMMActual","null","","","","Images/WhiteBeadChoice.png","null"
"image-keyboard-response","172","341121","0.0-4.0-2.50","9","Low_HMMActual","null","","","","Images/WhiteBeadChoiceCorrect.png","null"
"image-keyboard-response","173","341430","0.0-4.0-0.51","9","Low_HMMActual","307.9950000392273","","","","Images/NewTrialWC.png","39"
"image-keyboard-response","174","341681","0.0-4.0-1.51","9","Low_HMMActual","null","","","","Images/WhiteBeadChoice.png","null"
"image-keyboard-response","175","342185","0.0-4.0-2.51","9","Low_HMMActual","null","","","","Images/WhiteBeadChoiceCorrect.png","null"
"image-keyboard-response","176","342470","0.0-4.0-0.52","9","Low_HMMActual","282.97000005841255","","","","Images/NewTrialWC.png","39"
"image-keyboard-response","177","342722","0.0-4.0-1.52","9","Low_HMMActual","null","","","","Images/WhiteBeadChoice.png","null"
"image-keyboard-response","178","343226","0.0-4.0-2.52","9","Low_HMMActual","null","","","","Images/WhiteBeadChoiceCorrect.png","null"
"image-keyboard-response","179","343814","0.0-4.0-0.53","9","Low_HMMActual","585.9600000549108","","","","Images/NewTrialWC.png","39"
"image-keyboard-response","180","344067","0.0-4.0-1.53","9","Low_HMMActual","null","","","","Images/WhiteBeadChoice.png","null"
"image-keyboard-response","181","344569","0.0-4.0-2.53","9","Low_HMMActual","null","","","","Images/WhiteBeadChoiceCorrect.png","null"
"image-keyboard-response","182","344901","0.0-4.0-0.54","9","Low_HMMActual","330.65999997779727","","","","Images/NewTrialWC.png","39"
"image-keyboard-response","183","345154","0.0-4.0-1.54","9","Low_HMMActual","null","","","","Images/WhiteBeadChoice.png","null"
"image-keyboard-response","184","345655","0.0-4.0-2.54","9","Low_HMMActual","null","","","","Images/WhiteBeadChoiceCorrect.png","null"
"image-keyboard-response","185","346758","0.0-4.0-0.55","9","Low_HMMActual","1101.6499999677762","","","","Images/NewTrialWC.png","39"
"image-keyboard-response","186","347010","0.0-4.0-1.55","9","Low_HMMActual","null","","","","Images/WhiteBeadChoice.png","null"
"image-keyboard-response","187","347511","0.0-4.0-2.55","9","Low_HMMActual","null","","","","Images/WhiteBeadChoiceWrong.png","null"
"image-keyboard-response","188","347661","0.0-4.0-0.56","9","Low_HMMActual","147.98000000882894","","","","Images/NewTrialBC.png","39"
"image-keyboard-response","189","347913","0.0-4.0-1.56","9","Low_HMMActual","null","","","","Images/WhiteBeadChoice.png","null"
"image-keyboard-response","190","348416","0.0-4.0-2.56","9","Low_HMMActual","null","","","","Images/WhiteBeadChoiceWrong.png","null"
"image-keyboard-response","191","348821","0.0-4.0-0.57","9","Low_HMMActual","403.51500001270324","","","","Images/NewTrialBC.png","37"
"image-keyboard-response","192","349073","0.0-4.0-1.57","9","Low_HMMActual","null","","","","Images/BlackBeadChoice.png","null"
"image-keyboard-response","193","349575","0.0-4.0-2.57","9","Low_HMMActual","null","","","","Images/BlackBeadChoiceCorrect.png","null"
"image-keyboard-response","194","349876","0.0-4.0-0.58","9","Low_HMMActual","298.95500000566244","","","","Images/NewTrialBC.png","37"
"image-keyboard-response","195","350127","0.0-4.0-1.58","9","Low_HMMActual","null","","","","Images/BlackBeadChoice.png","null"
"image-keyboard-response","196","350631","0.0-4.0-2.58","9","Low_HMMActual","null","","","","Images/BlackBeadChoiceCorrect.png","null"
"image-keyboard-response","197","350645","0.0-4.0-0.59","9","Low_HMMActual","12.250000028871","","","","Images/NewTrialBC.png","37"
"image-keyboard-response","198","350897","0.0-4.0-1.59","9","Low_HMMActual","null","","","","Images/BlackBeadChoice.png","null"
"image-keyboard-response","199","351399","0.0-4.0-2.59","9","Low_HMMActual","null","","","","Images/BlackBeadChoiceCorrect.png","null"
"image-keyboard-response","200","352037","0.0-4.0-0.60","9","Low_HMMActual","637.4099999666214","","","","Images/NewTrialBC.png","37"
"image-keyboard-response","201","352289","0.0-4.0-1.60","9","Low_HMMActual","null","","","","Images/BlackBeadChoice.png","null"
"image-keyboard-response","202","352792","0.0-4.0-2.60","9","Low_HMMActual","null","","","","Images/BlackBeadChoiceWrong.png","null"
"image-keyboard-response","203","354924","0.0-4.0-0.61","9","Low_HMMActual","2130.7449999731034","","","","Images/NewTrialWC.png","39"
"image-keyboard-response","204","355175","0.0-4.0-1.61","9","Low_HMMActual","null","","","","Images/WhiteBeadChoice.png","null"
"image-keyboard-response","205","355678","0.0-4.0-2.61","9","Low_HMMActual","428.92000009305775","","","","Images/WhiteBeadChoiceCorrect.png","37"
"image-keyboard-response","206","356733","0.0-4.0-0.62","9","Low_HMMActual","1053.139999974519","","","","Images/NewTrialWC.png","39"
"image-keyboard-response","207","356986","0.0-4.0-1.62","9","Low_HMMActual","null","","","","Images/WhiteBeadChoice.png","null"
"image-keyboard-response","208","357488","0.0-4.0-2.62","9","Low_HMMActual","null","","","","Images/WhiteBeadChoiceCorrect.png","null"
"image-keyboard-response","209","357572","0.0-4.0-0.63","9","Low_HMMActual","82.40999991539866","","","","Images/NewTrialWC.png","39"
"image-keyboard-response","210","357823","0.0-4.0-1.63","9","Low_HMMActual","null","","","","Images/WhiteBeadChoice.png","null"
"image-keyboard-response","211","358325","0.0-4.0-2.63","9","Low_HMMActual","null","","","","Images/WhiteBeadChoiceCorrect.png","null"
"image-keyboard-response","212","358517","0.0-4.0-0.64","9","Low_HMMActual","189.86500008031726","","","","Images/NewTrialWC.png","37"
"image-keyboard-response","213","358769","0.0-4.0-1.64","9","Low_HMMActual","null","","","","Images/BlackBeadChoice.png","null"
"image-keyboard-response","214","359271","0.0-4.0-2.64","9","Low_HMMActual","442.0149999205023","","","","Images/BlackBeadChoiceWrong.png","39"
"image-keyboard-response","215","359453","0.0-4.0-0.65","9","Low_HMMActual","180.10999995749444","","","","Images/NewTrialWC.png","39"
"image-keyboard-response","216","359706","0.0-4.0-1.65","9","Low_HMMActual","null","","","","Images/WhiteBeadChoice.png","null"
"image-keyboard-response","217","360208","0.0-4.0-2.65","9","Low_HMMActual","null","","","","Images/WhiteBeadChoiceCorrect.png","null"
"image-keyboard-response","218","369108","0.0-4.0-0.66","9","Low_HMMActual","8897.989999968559","","","","Images/NewTrialWC.png","39"
"image-keyboard-response","219","369360","0.0-4.0-1.66","9","Low_HMMActual","null","","","","Images/WhiteBeadChoice.png","null"
"image-keyboard-response","220","369862","0.0-4.0-2.66","9","Low_HMMActual","null","","","","Images/WhiteBeadChoiceCorrect.png","null"
"image-keyboard-response","221","370076","0.0-4.0-0.67","9","Low_HMMActual","211.84000000357628","","","","Images/NewTrialWC.png","39"
"image-keyboard-response","222","370327","0.0-4.0-1.67","9","Low_HMMActual","null","","","","Images/WhiteBeadChoice.png","null"
"image-keyboard-response","223","370829","0.0-4.0-2.67","9","Low_HMMActual","278.17000006325543","","","","Images/WhiteBeadChoiceCorrect.png","39"
"image-keyboard-response","224","370957","0.0-4.0-0.68","9","Low_HMMActual","126.58000004012138","","","","Images/NewTrialWC.png","39"
"image-keyboard-response","225","371209","0.0-4.0-1.68","9","Low_HMMActual","null","","","","Images/WhiteBeadChoice.png","null"
"image-keyboard-response","226","371711","0.0-4.0-2.68","9","Low_HMMActual","314.69999998807907","","","","Images/WhiteBeadChoiceCorrect.png","39"
"image-keyboard-response","227","371885","0.0-4.0-0.69","9","Low_HMMActual","172.40499996114522","","","","Images/NewTrialWC.png","39"
"image-keyboard-response","228","372138","0.0-4.0-1.69","9","Low_HMMActual","null","","","","Images/WhiteBeadChoice.png","null"
"image-keyboard-response","229","372640","0.0-4.0-2.69","9","Low_HMMActual","345.3849999932572","","","","Images/WhiteBeadChoiceCorrect.png","39"
"image-keyboard-response","230","372781","0.0-4.0-0.70","9","Low_HMMActual","138.8499999884516","","","","Images/NewTrialWC.png","39"
"image-keyboard-response","231","373033","0.0-4.0-1.70","9","Low_HMMActual","null","","","","Images/WhiteBeadChoice.png","null"
"image-keyboard-response","232","373535","0.0-4.0-2.70","9","Low_HMMActual","25.729999993927777","","","","Images/WhiteBeadChoiceCorrect.png","39"
"image-keyboard-response","233","375814","0.0-4.0-0.71","9","Low_HMMActual","2277.9849999351427","","","","Images/NewTrialWC.png","39"
"image-keyboard-response","234","376066","0.0-4.0-1.71","9","Low_HMMActual","null","","","","Images/WhiteBeadChoice.png","null"
"image-keyboard-response","235","376569","0.0-4.0-2.71","9","Low_HMMActual","null","","","","Images/WhiteBeadChoiceCorrect.png","null"
"image-keyboard-response","236","376692","0.0-4.0-0.72","9","Low_HMMActual","121.42500001937151","","","","Images/NewTrialWC.png","39"
"image-keyboard-response","237","376945","0.0-4.0-1.72","9","Low_HMMActual","null","","","","Images/WhiteBeadChoice.png","null"
"image-keyboard-response","238","377447","0.0-4.0-2.72","9","Low_HMMActual","null","","","","Images/WhiteBeadChoiceWrong.png","null"
"image-keyboard-response","239","377534","0.0-4.0-0.73","9","Low_HMMActual","85.81499999854714","","","","Images/NewTrialBC.png","37"
"image-keyboard-response","240","377786","0.0-4.0-1.73","9","Low_HMMActual","null","","","","Images/BlackBeadChoice.png","null"
"image-keyboard-response","241","378288","0.0-4.0-2.73","9","Low_HMMActual","439.39499999396503","","","","Images/BlackBeadChoiceWrong.png","39"
"image-keyboard-response","242","378475","0.0-4.0-0.74","9","Low_HMMActual","186.7700000293553","","","","Images/NewTrialWC.png","39"
"image-keyboard-response","243","378726","0.0-4.0-1.74","9","Low_HMMActual","null","","","","Images/WhiteBeadChoice.png","null"
"image-keyboard-response","244","379230","0.0-4.0-2.74","9","Low_HMMActual","435.5400000931695","","","","Images/WhiteBeadChoiceWrong.png","37"
"image-keyboard-response","245","379542","0.0-4.0-0.75","9","Low_HMMActual","310.1650000317022","","","","Images/NewTrialBC.png","37"
"image-keyboard-response","246","379794","0.0-4.0-1.75","9","Low_HMMActual","null","","","","Images/BlackBeadChoice.png","null"
"image-keyboard-response","247","380296","0.0-4.0-2.75","9","Low_HMMActual","457.71999994758517","","","","Images/BlackBeadChoiceWrong.png","39"
"image-keyboard-response","248","380469","0.0-4.0-0.76","9","Low_HMMActual","172.21500002779067","","","","Images/NewTrialWC.png","39"
"image-keyboard-response","249","380721","0.0-4.0-1.76","9","Low_HMMActual","197.82000000122935","","","","Images/WhiteBeadChoice.png","39"
"image-keyboard-response","250","381223","0.0-4.0-2.76","9","Low_HMMActual","498.40499996207654","","","","Images/WhiteBeadChoiceCorrect.png","39"
"image-keyboard-response","251","381371","0.0-4.0-0.77","9","Low_HMMActual","146.94500004407018","","","","Images/NewTrialWC.png","39"
"image-keyboard-response","252","381622","0.0-4.0-1.77","9","Low_HMMActual","159.8099999828264","","","","Images/WhiteBeadChoice.png","39"
"image-keyboard-response","253","382125","0.0-4.0-2.77","9","Low_HMMActual","340.4249999439344","","","","Images/WhiteBeadChoiceCorrect.png","39"
"image-keyboard-response","254","382261","0.0-4.0-0.78","9","Low_HMMActual","134.0850000269711","","","","Images/NewTrialWC.png","39"
"image-keyboard-response","255","382513","0.0-4.0-1.78","9","Low_HMMActual","null","","","","Images/WhiteBeadChoice.png","null"
"image-keyboard-response","256","383014","0.0-4.0-2.78","9","Low_HMMActual","395.11000004131347","","","","Images/WhiteBeadChoiceCorrect.png","39"
"image-keyboard-response","257","383070","0.0-4.0-0.79","9","Low_HMMActual","53.2899999525398","","","","Images/NewTrialWC.png","39"
"image-keyboard-response","258","383323","0.0-4.0-1.79","9","Low_HMMActual","132.37500004470348","","","","Images/WhiteBeadChoice.png","39"
"image-keyboard-response","259","383824","0.0-4.0-2.79","9","Low_HMMActual","303.965000086464","","","","Images/WhiteBeadChoiceCorrect.png","39"
"image-keyboard-response","260","383925","0.0-4.0-0.80","9","Low_HMMActual","99.94500002358109","","","","Images/NewTrialWC.png","39"
"image-keyboard-response","261","384177","0.0-4.0-1.80","9","Low_HMMActual","null","","","","Images/WhiteBeadChoice.png","null"
"image-keyboard-response","262","384678","0.0-4.0-2.80","9","Low_HMMActual","289.4300000043586","","","","Images/WhiteBeadChoiceCorrect.png","39"
"image-keyboard-response","263","384765","0.0-4.0-0.81","9","Low_HMMActual","86.25499997287989","","","","Images/NewTrialWC.png","39"
"image-keyboard-response","264","385017","0.0-4.0-1.81","9","Low_HMMActual","null","","","","Images/WhiteBeadChoice.png","null"
"image-keyboard-response","265","385519","0.0-4.0-2.81","9","Low_HMMActual","null","","","","Images/WhiteBeadChoiceWrong.png","null"
"image-keyboard-response","266","385629","0.0-4.0-0.82","9","Low_HMMActual","109.05500000808388","","","","Images/NewTrialBC.png","37"
"image-keyboard-response","267","385881","0.0-4.0-1.82","9","Low_HMMActual","null","","","","Images/BlackBeadChoice.png","null"
"image-keyboard-response","268","386384","0.0-4.0-2.82","9","Low_HMMActual","null","","","","Images/BlackBeadChoiceCorrect.png","null"
"image-keyboard-response","269","386398","0.0-4.0-0.83","9","Low_HMMActual","12.014999985694885","","","","Images/NewTrialBC.png","37"
"image-keyboard-response","270","386651","0.0-4.0-1.83","9","Low_HMMActual","null","","","","Images/BlackBeadChoice.png","null"
"image-keyboard-response","271","387154","0.0-4.0-2.83","9","Low_HMMActual","263.6499999789521","","","","Images/BlackBeadChoiceCorrect.png","37"
"image-keyboard-response","272","387219","0.0-4.0-0.84","9","Low_HMMActual","63.470000051893294","","","","Images/NewTrialBC.png","37"
"image-keyboard-response","273","387471","0.0-4.0-1.84","9","Low_HMMActual","null","","","","Images/BlackBeadChoice.png","null"
"image-keyboard-response","274","387974","0.0-4.0-2.84","9","Low_HMMActual","323.560000048019","","","","Images/BlackBeadChoiceCorrect.png","37"
"image-keyboard-response","275","388108","0.0-4.0-0.85","9","Low_HMMActual","132.06500001251698","","","","Images/NewTrialBC.png","37"
"image-keyboard-response","276","388361","0.0-4.0-1.85","9","Low_HMMActual","null","","","","Images/BlackBeadChoice.png","null"
"image-keyboard-response","277","388863","0.0-4.0-2.85","9","Low_HMMActual","272.95500005129725","","","","Images/BlackBeadChoiceCorrect.png","37"
"image-keyboard-response","278","389059","0.0-4.0-0.86","9","Low_HMMActual","194.40500007476658","","","","Images/NewTrialBC.png","37"
"image-keyboard-response","279","389311","0.0-4.0-1.86","9","Low_HMMActual","218.06500002276152","","","","Images/BlackBeadChoice.png","37"
"image-keyboard-response","280","389813","0.0-4.0-2.86","9","Low_HMMActual","172.81999997794628","","","","Images/BlackBeadChoiceWrong.png","37"
"image-keyboard-response","281","390068","0.0-4.0-0.87","9","Low_HMMActual","253.05000005755574","","","","Images/NewTrialWC.png","37"
"image-keyboard-response","282","390321","0.0-4.0-1.87","9","Low_HMMActual","null","","","","Images/BlackBeadChoice.png","null"
"image-keyboard-response","283","390823","0.0-4.0-2.87","9","Low_HMMActual","null","","","","Images/BlackBeadChoiceCorrect.png","null"
"image-keyboard-response","284","390941","0.0-4.0-0.88","9","Low_HMMActual","115.92000001110137","","","","Images/NewTrialBC.png","37"
"image-keyboard-response","285","391193","0.0-4.0-1.88","9","Low_HMMActual","null","","","","Images/BlackBeadChoice.png","null"
"image-keyboard-response","286","391696","0.0-4.0-2.88","9","Low_HMMActual","null","","","","Images/BlackBeadChoiceWrong.png","null"
"image-keyboard-response","287","391877","0.0-4.0-0.89","9","Low_HMMActual","178.68000001180917","","","","Images/NewTrialWC.png","37"
"image-keyboard-response","288","392129","0.0-4.0-1.89","9","Low_HMMActual","null","","","","Images/BlackBeadChoice.png","null"
"image-keyboard-response","289","392631","0.0-4.0-2.89","9","Low_HMMActual","null","","","","Images/BlackBeadChoiceWrong.png","null"
"image-keyboard-response","290","392653","0.0-4.0-0.90","9","Low_HMMActual","19.29500000551343","","","","Images/NewTrialWC.png","39"
"image-keyboard-response","291","392904","0.0-4.0-1.90","9","Low_HMMActual","null","","","","Images/WhiteBeadChoice.png","null"
"image-keyboard-response","292","393406","0.0-4.0-2.90","9","Low_HMMActual","null","","","","Images/WhiteBeadChoiceCorrect.png","null"
"image-keyboard-response","293","393452","0.0-4.0-0.91","9","Low_HMMActual","44.25000003539026","","","","Images/NewTrialWC.png","39"
"image-keyboard-response","294","393705","0.0-4.0-1.91","9","Low_HMMActual","null","","","","Images/WhiteBeadChoice.png","null"
"image-keyboard-response","295","394207","0.0-4.0-2.91","9","Low_HMMActual","null","","","","Images/WhiteBeadChoiceCorrect.png","null"
"image-keyboard-response","296","394227","0.0-4.0-0.92","9","Low_HMMActual","18.60000006854534","","","","Images/NewTrialWC.png","39"
"image-keyboard-response","297","394478","0.0-4.0-1.92","9","Low_HMMActual","null","","","","Images/WhiteBeadChoice.png","null"
"image-keyboard-response","298","394980","0.0-4.0-2.92","9","Low_HMMActual","null","","","","Images/WhiteBeadChoiceCorrect.png","null"
"image-keyboard-response","299","395693","0.0-4.0-0.93","9","Low_HMMActual","710.0399999180809","","","","Images/NewTrialWC.png","39"
"image-keyboard-response","300","395945","0.0-4.0-1.93","9","Low_HMMActual","null","","","","Images/WhiteBeadChoice.png","null"
"image-keyboard-response","301","396447","0.0-4.0-2.93","9","Low_HMMActual","null","","","","Images/WhiteBeadChoiceCorrect.png","null"
"image-keyboard-response","302","396663","0.0-4.0-0.94","9","Low_HMMActual","213.74499995727092","","","","Images/NewTrialWC.png","39"
"image-keyboard-response","303","396916","0.0-4.0-1.94","9","Low_HMMActual","null","","","","Images/WhiteBeadChoice.png","null"
"image-keyboard-response","304","397417","0.0-4.0-2.94","9","Low_HMMActual","null","","","","Images/WhiteBeadChoiceCorrect.png","null"
"image-keyboard-response","305","397501","0.0-4.0-0.95","9","Low_HMMActual","82.36499992199242","","","","Images/NewTrialWC.png","39"
"image-keyboard-response","306","397753","0.0-4.0-1.95","9","Low_HMMActual","null","","","","Images/WhiteBeadChoice.png","null"
"image-keyboard-response","307","398256","0.0-4.0-2.95","9","Low_HMMActual","null","","","","Images/WhiteBeadChoiceCorrect.png","null"
"image-keyboard-response","308","398308","0.0-4.0-0.96","9","Low_HMMActual","51.174999913200736","","","","Images/NewTrialWC.png","39"
"image-keyboard-response","309","398562","0.0-4.0-1.96","9","Low_HMMActual","null","","","","Images/WhiteBeadChoice.png","null"
"image-keyboard-response","310","399065","0.0-4.0-2.96","9","Low_HMMActual","432.19500000122935","","","","Images/WhiteBeadChoiceCorrect.png","39"
"image-keyboard-response","311","399581","0.0-4.0-0.97","9","Low_HMMActual","515.3899999568239","","","","Images/NewTrialWC.png","39"
"image-keyboard-response","312","399833","0.0-4.0-1.97","9","Low_HMMActual","null","","","","Images/WhiteBeadChoice.png","null"
"image-keyboard-response","313","400335","0.0-4.0-2.97","9","Low_HMMActual","null","","","","Images/WhiteBeadChoiceCorrect.png","null"
"image-keyboard-response","314","400597","0.0-4.0-0.98","9","Low_HMMActual","261.8149999761954","","","","Images/NewTrialWC.png","39"
"image-keyboard-response","315","400850","0.0-4.0-1.98","9","Low_HMMActual","null","","","","Images/WhiteBeadChoice.png","null"
"image-keyboard-response","316","401353","0.0-4.0-2.98","9","Low_HMMActual","null","","","","Images/WhiteBeadChoiceWrong.png","null"
"image-keyboard-response","317","401452","0.0-4.0-0.99","9","Low_HMMActual","98.8650000654161","","","","Images/NewTrialBC.png","37"
"image-keyboard-response","318","401705","0.0-4.0-1.99","9","Low_HMMActual","null","","","","Images/BlackBeadChoice.png","null"
"image-keyboard-response","319","402208","0.0-4.0-2.99","9","Low_HMMActual","null","","","","Images/BlackBeadChoiceCorrect.png","null"
"image-keyboard-response","320","402261","0.0-4.0-0.100","9","Low_HMMActual","52.58999997749925","","","","Images/NewTrialBC.png","37"
"image-keyboard-response","321","402513","0.0-4.0-1.100","9","Low_HMMActual","null","","","","Images/BlackBeadChoice.png","null"
"image-keyboard-response","322","403014","0.0-4.0-2.100","9","Low_HMMActual","null","","","","Images/BlackBeadChoiceCorrect.png","null"
"image-keyboard-response","323","403069","0.0-4.0-0.101","9","Low_HMMActual","53.53500007186085","","","","Images/NewTrialBC.png","37"
"image-keyboard-response","324","403322","0.0-4.0-1.101","9","Low_HMMActual","null","","","","Images/BlackBeadChoice.png","null"
"image-keyboard-response","325","403825","0.0-4.0-2.101","9","Low_HMMActual","null","","","","Images/BlackBeadChoiceWrong.png","null"
"image-keyboard-response","326","403981","0.0-4.0-0.102","9","Low_HMMActual","153.68500002659857","","","","Images/NewTrialWC.png","39"
"image-keyboard-response","327","404232","0.0-4.0-1.102","9","Low_HMMActual","null","","","","Images/WhiteBeadChoice.png","null"
"image-keyboard-response","328","404734","0.0-4.0-2.102","9","Low_HMMActual","null","","","","Images/WhiteBeadChoiceWrong.png","null"
"image-keyboard-response","329","405893","0.0-4.0-0.103","9","Low_HMMActual","1157.2699999669567","","","","Images/NewTrialBC.png","37"
"image-keyboard-response","330","406145","0.0-4.0-1.103","9","Low_HMMActual","null","","","","Images/BlackBeadChoice.png","null"
"image-keyboard-response","331","406648","0.0-4.0-2.103","9","Low_HMMActual","null","","","","Images/BlackBeadChoiceCorrect.png","null"
"image-keyboard-response","332","406702","0.0-4.0-0.104","9","Low_HMMActual","51.57999997027218","","","","Images/NewTrialBC.png","37"
"image-keyboard-response","333","406954","0.0-4.0-1.104","9","Low_HMMActual","null","","","","Images/BlackBeadChoice.png","null"
"image-keyboard-response","334","407458","0.0-4.0-2.104","9","Low_HMMActual","null","","","","Images/BlackBeadChoiceCorrect.png","null"
"image-keyboard-response","335","407515","0.0-4.0-0.105","9","Low_HMMActual","56.02499993983656","","","","Images/NewTrialBC.png","37"
"image-keyboard-response","336","407767","0.0-4.0-1.105","9","Low_HMMActual","null","","","","Images/BlackBeadChoice.png","null"
"image-keyboard-response","337","408270","0.0-4.0-2.105","9","Low_HMMActual","null","","","","Images/BlackBeadChoiceCorrect.png","null"
"image-keyboard-response","338","408828","0.0-4.0-0.106","9","Low_HMMActual","556.3349999720231","","","","Images/NewTrialBC.png","37"
"image-keyboard-response","339","409081","0.0-4.0-1.106","9","Low_HMMActual","null","","","","Images/BlackBeadChoice.png","null"
"image-keyboard-response","340","409582","0.0-4.0-2.106","9","Low_HMMActual","null","","","","Images/BlackBeadChoiceCorrect.png","null"
"image-keyboard-response","341","409893","0.0-4.0-0.107","9","Low_HMMActual","308.50000004284084","","","","Images/NewTrialBC.png","37"
"image-keyboard-response","342","410145","0.0-4.0-1.107","9","Low_HMMActual","null","","","","Images/BlackBeadChoice.png","null"
"image-keyboard-response","343","410647","0.0-4.0-2.107","9","Low_HMMActual","null","","","","Images/BlackBeadChoiceCorrect.png","null"
"image-keyboard-response","344","410653","0.0-4.0-0.108","9","Low_HMMActual","3.984999959357083","","","","Images/NewTrialBC.png","37"
"image-keyboard-response","345","410904","0.0-4.0-1.108","9","Low_HMMActual","null","","","","Images/BlackBeadChoice.png","null"
"image-keyboard-response","346","411407","0.0-4.0-2.108","9","Low_HMMActual","null","","","","Images/BlackBeadChoiceCorrect.png","null"
"image-keyboard-response","347","411555","0.0-4.0-0.109","9","Low_HMMActual","146.54999994672835","","","","Images/NewTrialBC.png","37"
"image-keyboard-response","348","411807","0.0-4.0-1.109","9","Low_HMMActual","null","","","","Images/BlackBeadChoice.png","null"
"image-keyboard-response","349","412310","0.0-4.0-2.109","9","Low_HMMActual","null","","","","Images/BlackBeadChoiceCorrect.png","null"
"image-keyboard-response","350","412757","0.0-4.0-0.110","9","Low_HMMActual","445.0449999421835","","","","Images/NewTrialBC.png","37"
"image-keyboard-response","351","413011","0.0-4.0-1.110","9","Low_HMMActual","null","","","","Images/BlackBeadChoice.png","null"
"image-keyboard-response","352","413514","0.0-4.0-2.110","9","Low_HMMActual","null","","","","Images/BlackBeadChoiceCorrect.png","null"
"image-keyboard-response","353","413781","0.0-4.0-0.111","9","Low_HMMActual","264.5799999590963","","","","Images/NewTrialBC.png","37"
"image-keyboard-response","354","414033","0.0-4.0-1.111","9","Low_HMMActual","null","","","","Images/BlackBeadChoice.png","null"
"image-keyboard-response","355","414536","0.0-4.0-2.111","9","Low_HMMActual","null","","","","Images/BlackBeadChoiceCorrect.png","null"
"image-keyboard-response","356","415565","0.0-4.0-0.112","9","Low_HMMActual","1026.854999945499","","","","Images/NewTrialBC.png","37"
"image-keyboard-response","357","415817","0.0-4.0-1.112","9","Low_HMMActual","null","","","","Images/BlackBeadChoice.png","null"
"image-keyboard-response","358","416319","0.0-4.0-2.112","9","Low_HMMActual","null","","","","Images/BlackBeadChoiceCorrect.png","null"
"image-keyboard-response","359","417093","0.0-4.0-0.113","9","Low_HMMActual","772.2450000001118","","","","Images/NewTrialBC.png","37"
"image-keyboard-response","360","417346","0.0-4.0-1.113","9","Low_HMMActual","null","","","","Images/BlackBeadChoice.png","null"
"image-keyboard-response","361","417849","0.0-4.0-2.113","9","Low_HMMActual","null","","","","Images/BlackBeadChoiceCorrect.png","null"
"image-keyboard-response","362","418094","0.0-4.0-0.114","9","Low_HMMActual","242.8999999538064","","","","Images/NewTrialBC.png","37"
"image-keyboard-response","363","418345","0.0-4.0-1.114","9","Low_HMMActual","null","","","","Images/BlackBeadChoice.png","null"
"image-keyboard-response","364","418849","0.0-4.0-2.114","9","Low_HMMActual","null","","","","Images/BlackBeadChoiceCorrect.png","null"
"image-keyboard-response","365","419197","0.0-4.0-0.115","9","Low_HMMActual","345.83000000566244","","","","Images/NewTrialBC.png","37"
"image-keyboard-response","366","419449","0.0-4.0-1.115","9","Low_HMMActual","null","","","","Images/BlackBeadChoice.png","null"
"image-keyboard-response","367","419952","0.0-4.0-2.115","9","Low_HMMActual","null","","","","Images/BlackBeadChoiceCorrect.png","null"
"image-keyboard-response","368","420309","0.0-4.0-0.116","9","Low_HMMActual","354.7549999784678","","","","Images/NewTrialBC.png","37"
"image-keyboard-response","369","420561","0.0-4.0-1.116","9","Low_HMMActual","null","","","","Images/BlackBeadChoice.png","null"
"image-keyboard-response","370","421064","0.0-4.0-2.116","9","Low_HMMActual","null","","","","Images/BlackBeadChoiceCorrect.png","null"
"image-keyboard-response","371","421285","0.0-4.0-0.117","9","Low_HMMActual","218.50499999709427","","","","Images/NewTrialBC.png","37"
"image-keyboard-response","372","421537","0.0-4.0-1.117","9","Low_HMMActual","null","","","","Images/BlackBeadChoice.png","null"
"image-keyboard-response","373","422039","0.0-4.0-2.117","9","Low_HMMActual","null","","","","Images/BlackBeadChoiceWrong.png","null"
"image-keyboard-response","374","422788","0.0-4.0-0.118","9","Low_HMMActual","747.6250000763685","","","","Images/NewTrialWC.png","39"
"image-keyboard-response","375","423041","0.0-4.0-1.118","9","Low_HMMActual","null","","","","Images/WhiteBeadChoice.png","null"
"image-keyboard-response","376","423543","0.0-4.0-2.118","9","Low_HMMActual","null","","","","Images/WhiteBeadChoiceWrong.png","null"
"image-keyboard-response","377","423555","0.0-4.0-0.119","9","Low_HMMActual","12.110000010579824","","","","Images/NewTrialBC.png","37"
"image-keyboard-response","378","423807","0.0-4.0-1.119","9","Low_HMMActual","null","","","","Images/BlackBeadChoice.png","null"
"image-keyboard-response","379","424310","0.0-4.0-2.119","9","Low_HMMActual","467.3500000499189","","","","Images/BlackBeadChoiceCorrect.png","37"
"image-keyboard-response","380","424797","0.0-4.0-0.120","9","Low_HMMActual","486.8450000649318","","","","Images/NewTrialBC.png","37"
"image-keyboard-response","381","425049","0.0-4.0-1.120","9","Low_HMMActual","null","","","","Images/BlackBeadChoice.png","null"
"image-keyboard-response","382","425550","0.0-4.0-2.120","9","Low_HMMActual","null","","","","Images/BlackBeadChoiceCorrect.png","null"
"image-keyboard-response","383","425733","0.0-4.0-0.121","9","Low_HMMActual","181.2200000276789","","","","Images/NewTrialBC.png","37"
"image-keyboard-response","384","425985","0.0-4.0-1.121","9","Low_HMMActual","null","","","","Images/BlackBeadChoice.png","null"
"image-keyboard-response","385","426487","0.0-4.0-2.121","9","Low_HMMActual","null","","","","Images/BlackBeadChoiceCorrect.png","null"
"image-keyboard-response","386","426685","0.0-4.0-0.122","9","Low_HMMActual","196.33500010240823","","","","Images/NewTrialBC.png","37"
"image-keyboard-response","387","426936","0.0-4.0-1.122","9","Low_HMMActual","null","","","","Images/BlackBeadChoice.png","null"
"image-keyboard-response","388","427439","0.0-4.0-2.122","9","Low_HMMActual","null","","","","Images/BlackBeadChoiceCorrect.png","null"
"image-keyboard-response","389","428174","0.0-4.0-0.123","9","Low_HMMActual","732.0900000631809","","","","Images/NewTrialBC.png","39"
"image-keyboard-response","390","428426","0.0-4.0-1.123","9","Low_HMMActual","null","","","","Images/WhiteBeadChoice.png","null"
"image-keyboard-response","391","428929","0.0-4.0-2.123","9","Low_HMMActual","null","","","","Images/WhiteBeadChoiceCorrect.png","null"
"image-keyboard-response","392","429045","0.0-4.0-0.124","9","Low_HMMActual","113.92500007059425","","","","Images/NewTrialWC.png","39"
"image-keyboard-response","393","429297","0.0-4.0-1.124","9","Low_HMMActual","null","","","","Images/WhiteBeadChoice.png","null"
"image-keyboard-response","394","429801","0.0-4.0-2.124","9","Low_HMMActual","424.54999999608845","","","","Images/WhiteBeadChoiceWrong.png","39"
"image-keyboard-response","395","430357","0.0-4.0-0.125","9","Low_HMMActual","553.6800000118092","","","","Images/NewTrialBC.png","37"
"image-keyboard-response","396","430609","0.0-4.0-1.125","9","Low_HMMActual","null","","","","Images/BlackBeadChoice.png","null"
"image-keyboard-response","397","431110","0.0-4.0-2.125","9","Low_HMMActual","null","","","","Images/BlackBeadChoiceWrong.png","null"
"image-keyboard-response","398","431126","0.0-4.0-0.126","9","Low_HMMActual","13.525000074878335","","","","Images/NewTrialWC.png","39"
"image-keyboard-response","399","431378","0.0-4.0-1.126","9","Low_HMMActual","null","","","","Images/WhiteBeadChoice.png","null"
"image-keyboard-response","400","431880","0.0-4.0-2.126","9","Low_HMMActual","480.4200000362471","","","","Images/WhiteBeadChoiceCorrect.png","39"
"image-keyboard-response","401","432244","0.0-4.0-0.127","9","Low_HMMActual","361.44500004593283","","","","Images/NewTrialWC.png","39"
"image-keyboard-response","402","432495","0.0-4.0-1.127","9","Low_HMMActual","null","","","","Images/WhiteBeadChoice.png","null"
"image-keyboard-response","403","432998","0.0-4.0-2.127","9","Low_HMMActual","292.3700000392273","","","","Images/WhiteBeadChoiceCorrect.png","39"
"image-keyboard-response","404","433118","0.0-4.0-0.128","9","Low_HMMActual","118.09000000357628","","","","Images/NewTrialWC.png","39"
"image-keyboard-response","405","433369","0.0-4.0-1.128","9","Low_HMMActual","189.1249999171123","","","","Images/WhiteBeadChoice.png","39"
"image-keyboard-response","406","433872","0.0-4.0-2.128","9","Low_HMMActual","297.03999997582287","","","","Images/WhiteBeadChoiceCorrect.png","39"
"image-keyboard-response","407","433997","0.0-4.0-0.129","9","Low_HMMActual","123.52499994449317","","","","Images/NewTrialWC.png","39"
"image-keyboard-response","408","434248","0.0-4.0-1.129","9","Low_HMMActual","null","","","","Images/WhiteBeadChoice.png","null"
"image-keyboard-response","409","434750","0.0-4.0-2.129","9","Low_HMMActual","275.64499992877245","","","","Images/WhiteBeadChoiceCorrect.png","39"
"image-keyboard-response","410","435124","0.0-4.0-0.130","9","Low_HMMActual","372.084999922663","","","","Images/NewTrialWC.png","39"
"image-keyboard-response","411","435376","0.0-4.0-1.130","9","Low_HMMActual","null","","","","Images/WhiteBeadChoice.png","null"
"image-keyboard-response","412","435878","0.0-4.0-2.130","9","Low_HMMActual","332.22499990370125","","","","Images/WhiteBeadChoiceCorrect.png","39"
"image-keyboard-response","413","435885","0.0-4.0-0.131","9","Low_HMMActual","4.734999965876341","","","","Images/NewTrialWC.png","39"
"image-keyboard-response","414","436138","0.0-4.0-1.131","9","Low_HMMActual","190.69499999750406","","","","Images/WhiteBeadChoice.png","39"
"image-keyboard-response","415","436640","0.0-4.0-2.131","9","Low_HMMActual","null","","","","Images/WhiteBeadChoiceCorrect.png","null"
"image-keyboard-response","416","436773","0.0-4.0-0.132","9","Low_HMMActual","130.63000002875924","","","","Images/NewTrialWC.png","39"
"image-keyboard-response","417","437025","0.0-4.0-1.132","9","Low_HMMActual","150.26999998372048","","","","Images/WhiteBeadChoice.png","39"
"image-keyboard-response","418","437528","0.0-4.0-2.132","9","Low_HMMActual","322.1899999771267","","","","Images/WhiteBeadChoiceCorrect.png","39"
"image-keyboard-response","419","437533","0.0-4.0-0.133","9","Low_HMMActual","3.370000049471855","","","","Images/NewTrialWC.png","39"
"image-keyboard-response","420","437784","0.0-4.0-1.133","9","Low_HMMActual","null","","","","Images/WhiteBeadChoice.png","null"
"image-keyboard-response","421","438286","0.0-4.0-2.133","9","Low_HMMActual","null","","","","Images/WhiteBeadChoiceWrong.png","null"
"image-keyboard-response","422","438398","0.0-4.0-0.134","9","Low_HMMActual","110.44999992009252","","","","Images/NewTrialBC.png","37"
"image-keyboard-response","423","438650","0.0-4.0-1.134","9","Low_HMMActual","165.76500004157424","","","","Images/BlackBeadChoice.png","37"
"image-keyboard-response","424","439153","0.0-4.0-2.134","9","Low_HMMActual","null","","","","Images/BlackBeadChoiceWrong.png","null"
"image-keyboard-response","425","439189","0.0-4.0-0.135","9","Low_HMMActual","33.939999993890524","","","","Images/NewTrialWC.png","39"
"image-keyboard-response","426","439441","0.0-4.0-1.135","9","Low_HMMActual","166.51000001002103","","","","Images/WhiteBeadChoice.png","39"
"image-keyboard-response","427","439943","0.0-4.0-2.135","9","Low_HMMActual","null","","","","Images/WhiteBeadChoiceCorrect.png","null"
"image-keyboard-response","428","439957","0.0-4.0-0.136","9","Low_HMMActual","12.639999971725047","","","","Images/NewTrialWC.png","39"
"image-keyboard-response","429","440209","0.0-4.0-1.136","9","Low_HMMActual","135.03500004298985","","","","Images/WhiteBeadChoice.png","39"
"image-keyboard-response","430","440711","0.0-4.0-2.136","9","Low_HMMActual","434.45500009693205","","","","Images/WhiteBeadChoiceWrong.png","37"
"image-keyboard-response","431","441125","0.0-4.0-0.137","9","Low_HMMActual","413.2400000235066","","","","Images/NewTrialBC.png","37"
"image-keyboard-response","432","441377","0.0-4.0-1.137","9","Low_HMMActual","174.3700000224635","","","","Images/BlackBeadChoice.png","37"
"image-keyboard-response","433","441881","0.0-4.0-2.137","9","Low_HMMActual","393.67000001948327","","","","Images/BlackBeadChoiceCorrect.png","37"
"image-keyboard-response","434","441949","0.0-4.0-0.138","9","Low_HMMActual","66.41500000841916","","","","Images/NewTrialBC.png","37"
"image-keyboard-response","435","442201","0.0-4.0-1.138","9","Low_HMMActual","null","","","","Images/BlackBeadChoice.png","null"
"image-keyboard-response","436","442703","0.0-4.0-2.138","9","Low_HMMActual","369.2400000290945","","","","Images/BlackBeadChoiceCorrect.png","37"
"image-keyboard-response","437","442805","0.0-4.0-0.139","9","Low_HMMActual","99.80500000528991","","","","Images/NewTrialBC.png","37"
"image-keyboard-response","438","443057","0.0-4.0-1.139","9","Low_HMMActual","null","","","","Images/BlackBeadChoice.png","null"
"image-keyboard-response","439","443559","0.0-4.0-2.139","9","Low_HMMActual","338.5499999858439","","","","Images/BlackBeadChoiceCorrect.png","37"
"image-keyboard-response","440","443974","0.0-4.0-0.140","9","Low_HMMActual","412.50000009313226","","","","Images/NewTrialBC.png","37"
"image-keyboard-response","441","444227","0.0-4.0-1.140","9","Low_HMMActual","null","","","","Images/BlackBeadChoice.png","null"
"image-keyboard-response","442","444729","0.0-4.0-2.140","9","Low_HMMActual","353.00000000279397","","","","Images/BlackBeadChoiceCorrect.png","37"
"image-keyboard-response","443","445109","0.0-4.0-0.141","9","Low_HMMActual","378.8499999791384","","","","Images/NewTrialBC.png","37"
"image-keyboard-response","444","445361","0.0-4.0-1.141","9","Low_HMMActual","null","","","","Images/BlackBeadChoice.png","null"
"image-keyboard-response","445","445864","0.0-4.0-2.141","9","Low_HMMActual","null","","","","Images/BlackBeadChoiceCorrect.png","null"
"image-keyboard-response","446","445901","0.0-4.0-0.142","9","Low_HMMActual","35.650000092573464","","","","Images/NewTrialBC.png","37"
"image-keyboard-response","447","446154","0.0-4.0-1.142","9","Low_HMMActual","null","","","","Images/BlackBeadChoice.png","null"
"image-keyboard-response","448","446657","0.0-4.0-2.142","9","Low_HMMActual","null","","","","Images/BlackBeadChoiceCorrect.png","null"
"image-keyboard-response","449","446662","0.0-4.0-0.143","9","Low_HMMActual","2.459999988786876","","","","Images/NewTrialBC.png","37"
"image-keyboard-response","450","446913","0.0-4.0-1.143","9","Low_HMMActual","null","","","","Images/BlackBeadChoice.png","null"
"image-keyboard-response","451","447415","0.0-4.0-2.143","9","Low_HMMActual","473.8999999826774","","","","Images/BlackBeadChoiceCorrect.png","37"
"image-keyboard-response","452","447893","0.0-4.0-0.144","9","Low_HMMActual","475.84500000812113","","","","Images/NewTrialBC.png","37"
"image-keyboard-response","453","448145","0.0-4.0-1.144","9","Low_HMMActual","null","","","","Images/BlackBeadChoice.png","null"
"image-keyboard-response","454","448648","0.0-4.0-2.144","9","Low_HMMActual","null","","","","Images/BlackBeadChoiceCorrect.png","null"
"image-keyboard-response","455","448686","0.0-4.0-0.145","9","Low_HMMActual","36.380000063218176","","","","Images/NewTrialBC.png","37"
"image-keyboard-response","456","448938","0.0-4.0-1.145","9","Low_HMMActual","null","","","","Images/BlackBeadChoice.png","null"
"image-keyboard-response","457","449441","0.0-4.0-2.145","9","Low_HMMActual","null","","","","Images/BlackBeadChoiceCorrect.png","null"
"image-keyboard-response","458","449622","0.0-4.0-0.146","9","Low_HMMActual","179.2849999619648","","","","Images/NewTrialBC.png","37"
"image-keyboard-response","459","449873","0.0-4.0-1.146","9","Low_HMMActual","null","","","","Images/BlackBeadChoice.png","null"
"image-keyboard-response","460","450374","0.0-4.0-2.146","9","Low_HMMActual","null","","","","Images/BlackBeadChoiceCorrect.png","null"
"image-keyboard-response","461","450405","0.0-4.0-0.147","9","Low_HMMActual","29.0899999672547","","","","Images/NewTrialBC.png","37"
"image-keyboard-response","462","450658","0.0-4.0-1.147","9","Low_HMMActual","null","","","","Images/BlackBeadChoice.png","null"
"image-keyboard-response","463","451161","0.0-4.0-2.147","9","Low_HMMActual","449.2900000186637","","","","Images/BlackBeadChoiceCorrect.png","37"
"image-keyboard-response","464","451510","0.0-4.0-0.148","9","Low_HMMActual","347.6250000530854","","","","Images/NewTrialBC.png","37"
"image-keyboard-response","465","451762","0.0-4.0-1.148","9","Low_HMMActual","null","","","","Images/BlackBeadChoice.png","null"
"image-keyboard-response","466","452264","0.0-4.0-2.148","9","Low_HMMActual","418.5249999864027","","","","Images/BlackBeadChoiceCorrect.png","37"
"image-keyboard-response","467","452844","0.0-4.0-0.149","9","Low_HMMActual","577.9150000307709","","","","Images/NewTrialBC.png","37"
"image-keyboard-response","468","453095","0.0-4.0-1.149","9","Low_HMMActual","null","","","","Images/BlackBeadChoice.png","null"
"image-keyboard-response","469","453598","0.0-4.0-2.149","9","Low_HMMActual","276.33000002242625","","","","Images/BlackBeadChoiceCorrect.png","37"
"image-keyboard-response","470","453836","0.0-4.0-0.150","9","Low_HMMActual","235.95500004012138","","","","Images/NewTrialBC.png","37"
"image-keyboard-response","471","454086","0.0-4.0-1.150","9","Low_HMMActual","null","","","","Images/BlackBeadChoice.png","null"
"image-keyboard-response","472","454590","0.0-4.0-2.150","9","Low_HMMActual","308.9249999029562","","","","Images/BlackBeadChoiceCorrect.png","37"
"image-keyboard-response","473","454949","0.0-4.0-0.151","9","Low_HMMActual","357.6850000536069","","","","Images/NewTrialBC.png","37"
"image-keyboard-response","474","455201","0.0-4.0-1.151","9","Low_HMMActual","null","","","","Images/BlackBeadChoice.png","null"
"image-keyboard-response","475","455703","0.0-4.0-2.151","9","Low_HMMActual","337.18000003136694","","","","Images/BlackBeadChoiceCorrect.png","37"
"image-keyboard-response","476","456068","0.0-4.0-0.152","9","Low_HMMActual","363.02000004798174","","","","Images/NewTrialBC.png","37"
"image-keyboard-response","477","456320","0.0-4.0-1.152","9","Low_HMMActual","null","","","","Images/BlackBeadChoice.png","null"
"image-keyboard-response","478","456822","0.0-4.0-2.152","9","Low_HMMActual","317.1149999834597","","","","Images/BlackBeadChoiceCorrect.png","37"
"image-keyboard-response","479","457156","0.0-4.0-0.153","9","Low_HMMActual","333.42999999877065","","","","Images/NewTrialBC.png","37"
"image-keyboard-response","480","457409","0.0-4.0-1.153","9","Low_HMMActual","null","","","","Images/BlackBeadChoice.png","null"
"image-keyboard-response","481","457912","0.0-4.0-2.153","9","Low_HMMActual","330.9450000524521","","","","Images/BlackBeadChoiceCorrect.png","37"
"image-keyboard-response","482","458286","0.0-4.0-0.154","9","Low_HMMActual","372.65999999362975","","","","Images/NewTrialBC.png","37"
"image-keyboard-response","483","458539","0.0-4.0-1.154","9","Low_HMMActual","null","","","","Images/BlackBeadChoice.png","null"
"image-keyboard-response","484","459042","0.0-4.0-2.154","9","Low_HMMActual","314.710000064224","","","","Images/BlackBeadChoiceCorrect.png","37"
"image-keyboard-response","485","459397","0.0-4.0-0.155","9","Low_HMMActual","353.1449999427423","","","","Images/NewTrialBC.png","37"
"image-keyboard-response","486","459649","0.0-4.0-1.155","9","Low_HMMActual","null","","","","Images/BlackBeadChoice.png","null"
"image-keyboard-response","487","460153","0.0-4.0-2.155","9","Low_HMMActual","315.9600000362843","","","","Images/BlackBeadChoiceCorrect.png","37"
"image-keyboard-response","488","460558","0.0-4.0-0.156","9","Low_HMMActual","404.0249999379739","","","","Images/NewTrialBC.png","37"
"image-keyboard-response","489","460810","0.0-4.0-1.156","9","Low_HMMActual","null","","","","Images/BlackBeadChoice.png","null"
"image-keyboard-response","490","461312","0.0-4.0-2.156","9","Low_HMMActual","306.1200000811368","","","","Images/BlackBeadChoiceCorrect.png","37"
"image-keyboard-response","491","461622","0.0-4.0-0.157","9","Low_HMMActual","307.3650000151247","","","","Images/NewTrialBC.png","37"
"image-keyboard-response","492","461874","0.0-4.0-1.157","9","Low_HMMActual","null","","","","Images/BlackBeadChoice.png","null"
"image-keyboard-response","493","462376","0.0-4.0-2.157","9","Low_HMMActual","290.4699998907745","","","","Images/BlackBeadChoiceCorrect.png","37"
"image-keyboard-response","494","462731","0.0-4.0-0.158","9","Low_HMMActual","353.1349999830127","","","","Images/NewTrialBC.png","37"
"image-keyboard-response","495","462983","0.0-4.0-1.158","9","Low_HMMActual","null","","","","Images/BlackBeadChoice.png","null"
"image-keyboard-response","496","463485","0.0-4.0-2.158","9","Low_HMMActual","308.1600000150502","","","","Images/BlackBeadChoiceCorrect.png","37"
"image-keyboard-response","497","463829","0.0-4.0-0.159","9","Low_HMMActual","342.33999997377396","","","","Images/NewTrialBC.png","37"
"image-keyboard-response","498","464081","0.0-4.0-1.159","9","Low_HMMActual","null","","","","Images/BlackBeadChoice.png","null"
"image-keyboard-response","499","464583","0.0-4.0-2.159","9","Low_HMMActual","281.650000018999","","","","Images/BlackBeadChoiceCorrect.png","37"
"image-keyboard-response","500","464894","0.0-4.0-0.160","9","Low_HMMActual","308.70000005234033","","","","Images/NewTrialBC.png","37"
"image-keyboard-response","501","465145","0.0-4.0-1.160","9","Low_HMMActual","null","","","","Images/BlackBeadChoice.png","null"
"image-keyboard-response","502","465647","0.0-4.0-2.160","9","Low_HMMActual","298.42999996617436","","","","Images/BlackBeadChoiceCorrect.png","37"
"image-keyboard-response","503","465948","0.0-4.0-0.161","9","Low_HMMActual","298.68000000715256","","","","Images/NewTrialBC.png","37"
"image-keyboard-response","504","466199","0.0-4.0-1.161","9","Low_HMMActual","null","","","","Images/BlackBeadChoice.png","null"
"image-keyboard-response","505","466701","0.0-4.0-2.161","9","Low_HMMActual","276.56500006560236","","","","Images/BlackBeadChoiceCorrect.png","37"
"image-keyboard-response","506","466996","0.0-4.0-0.162","9","Low_HMMActual","291.5400000056252","","","","Images/NewTrialBC.png","37"
"image-keyboard-response","507","467248","0.0-4.0-1.162","9","Low_HMMActual","null","","","","Images/BlackBeadChoice.png","null"
"image-keyboard-response","508","467751","0.0-4.0-2.162","9","Low_HMMActual","250.49999996554106","","","","Images/BlackBeadChoiceWrong.png","37"
"image-keyboard-response","509","467988","0.0-4.0-0.163","9","Low_HMMActual","236.16500000935048","","","","Images/NewTrialWC.png","39"
"image-keyboard-response","510","468239","0.0-4.0-1.163","9","Low_HMMActual","null","","","","Images/WhiteBeadChoice.png","null"
"image-keyboard-response","511","468741","0.0-4.0-2.163","9","Low_HMMActual","349.54000008292496","","","","Images/WhiteBeadChoiceWrong.png","39"
"image-keyboard-response","512","468996","0.0-4.0-0.164","9","Low_HMMActual","254.1200000559911","","","","Images/NewTrialBC.png","37"
"image-keyboard-response","513","469248","0.0-4.0-1.164","9","Low_HMMActual","null","","","","Images/BlackBeadChoice.png","null"
"image-keyboard-response","514","469751","0.0-4.0-2.164","9","Low_HMMActual","305.7199999457225","","","","Images/BlackBeadChoiceCorrect.png","37"
"image-keyboard-response","515","470061","0.0-4.0-0.165","9","Low_HMMActual","307.9450000077486","","","","Images/NewTrialBC.png","37"
"image-keyboard-response","516","470314","0.0-4.0-1.165","9","Low_HMMActual","null","","","","Images/BlackBeadChoice.png","null"
"image-keyboard-response","517","470815","0.0-4.0-2.165","9","Low_HMMActual","313.9249999076128","","","","Images/BlackBeadChoiceWrong.png","37"
"image-keyboard-response","518","470983","0.0-4.0-0.166","9","Low_HMMActual","166.4999999338761","","","","Images/NewTrialWC.png","39"
"image-keyboard-response","519","471234","0.0-4.0-1.166","9","Low_HMMActual","null","","","","Images/WhiteBeadChoice.png","null"
"image-keyboard-response","520","471737","0.0-4.0-2.166","9","Low_HMMActual","232.04000003170222","","","","Images/WhiteBeadChoiceWrong.png","39"
"image-keyboard-response","521","472157","0.0-4.0-0.167","9","Low_HMMActual","417.83499997109175","","","","Images/NewTrialBC.png","37"
"image-keyboard-response","522","472409","0.0-4.0-1.167","9","Low_HMMActual","null","","","","Images/BlackBeadChoice.png","null"
"image-keyboard-response","523","472911","0.0-4.0-2.167","9","Low_HMMActual","130.38500002585351","","","","Images/BlackBeadChoiceWrong.png","37"
"image-keyboard-response","524","473156","0.0-4.0-0.168","9","Low_HMMActual","242.9400000255555","","","","Images/NewTrialWC.png","39"
"image-keyboard-response","525","473407","0.0-4.0-1.168","9","Low_HMMActual","null","","","","Images/WhiteBeadChoice.png","null"
"image-keyboard-response","526","473909","0.0-4.0-2.168","9","Low_HMMActual","51.244999980553985","","","","Images/WhiteBeadChoiceCorrect.png","39"
"image-keyboard-response","527","473949","0.0-4.0-0.169","9","Low_HMMActual","38.09499996714294","","","","Images/NewTrialWC.png","39"
"image-keyboard-response","528","474202","0.0-4.0-1.169","9","Low_HMMActual","null","","","","Images/WhiteBeadChoice.png","null"
"image-keyboard-response","529","474705","0.0-4.0-2.169","9","Low_HMMActual","65.47999999020249","","","","Images/WhiteBeadChoiceCorrect.png","39"
"image-keyboard-response","530","474901","0.0-4.0-0.170","9","Low_HMMActual","195.64499997068197","","","","Images/NewTrialWC.png","39"
"image-keyboard-response","531","475153","0.0-4.0-1.170","9","Low_HMMActual","null","","","","Images/WhiteBeadChoice.png","null"
"image-keyboard-response","532","475655","0.0-4.0-2.170","9","Low_HMMActual","10.509999934583902","","","","Images/WhiteBeadChoiceCorrect.png","39"
"image-keyboard-response","533","475692","0.0-4.0-0.171","9","Low_HMMActual","34.61499989498407","","","","Images/NewTrialWC.png","39"
"image-keyboard-response","534","475944","0.0-4.0-1.171","9","Low_HMMActual","248.58999997377396","","","","Images/WhiteBeadChoice.png","39"
"image-keyboard-response","535","476447","0.0-4.0-2.171","9","Low_HMMActual","266.84499997645617","","","","Images/WhiteBeadChoiceCorrect.png","39"
"image-keyboard-response","536","476468","0.0-4.0-0.172","9","Low_HMMActual","19.03999992646277","","","","Images/NewTrialWC.png","39"
"image-keyboard-response","537","476719","0.0-4.0-1.172","9","Low_HMMActual","null","","","","Images/WhiteBeadChoice.png","null"
"image-keyboard-response","538","477222","0.0-4.0-2.172","9","Low_HMMActual","12.239999952726066","","","","Images/WhiteBeadChoiceCorrect.png","39"
"image-keyboard-response","539","477437","0.0-4.0-0.173","9","Low_HMMActual","213.27000006567687","","","","Images/NewTrialWC.png","39"
"image-keyboard-response","540","477689","0.0-4.0-1.173","9","Low_HMMActual","223.08499994687736","","","","Images/WhiteBeadChoice.png","39"
"image-keyboard-response","541","478191","0.0-4.0-2.173","9","Low_HMMActual","242.51500004902482","","","","Images/WhiteBeadChoiceCorrect.png","39"
"image-keyboard-response","542","478390","0.0-4.0-0.174","9","Low_HMMActual","196.41500001307577","","","","Images/NewTrialWC.png","39"
"image-keyboard-response","543","478641","0.0-4.0-1.174","9","Low_HMMActual","230.12500000186265","","","","Images/WhiteBeadChoice.png","39"
"image-keyboard-response","544","479144","0.0-4.0-2.174","9","Low_HMMActual","249.36000001616776","","","","Images/WhiteBeadChoiceWrong.png","39"
"image-keyboard-response","545","479150","0.0-4.0-0.175","9","Low_HMMActual","4.50999999884516","","","","Images/NewTrialBC.png","37"
"image-keyboard-response","546","479403","0.0-4.0-1.175","9","Low_HMMActual","214.6049999864772","","","","Images/BlackBeadChoice.png","37"
"image-keyboard-response","547","479906","0.0-4.0-2.175","9","Low_HMMActual","232.04999999143183","","","","Images/BlackBeadChoiceWrong.png","37"
"image-keyboard-response","548","480116","0.0-4.0-0.176","9","Low_HMMActual","208.9549999218434","","","","Images/NewTrialWC.png","39"
"image-keyboard-response","549","480368","0.0-4.0-1.176","9","Low_HMMActual","null","","","","Images/WhiteBeadChoice.png","null"
"image-keyboard-response","550","480871","0.0-4.0-2.176","9","Low_HMMActual","299.5999999111518","","","","Images/WhiteBeadChoiceWrong.png","37"
"image-keyboard-response","551","480892","0.0-4.0-0.177","9","Low_HMMActual","19.07999999821186","","","","Images/NewTrialBC.png","37"
"image-keyboard-response","552","481143","0.0-4.0-1.177","9","Low_HMMActual","215.7349999761209","","","","Images/BlackBeadChoice.png","37"
"image-keyboard-response","553","481644","0.0-4.0-2.177","9","Low_HMMActual","173.12499997206032","","","","Images/BlackBeadChoiceWrong.png","37"
"image-keyboard-response","554","481813","0.0-4.0-0.178","9","Low_HMMActual","168.36999997030944","","","","Images/NewTrialWC.png","39"
"image-keyboard-response","555","482065","0.0-4.0-1.178","9","Low_HMMActual","205.12000005692244","","","","Images/WhiteBeadChoice.png","39"
"image-keyboard-response","556","482567","0.0-4.0-2.178","9","Low_HMMActual","418.1650000391528","","","","Images/WhiteBeadChoiceCorrect.png","39"
"image-keyboard-response","557","482670","0.0-4.0-0.179","9","Low_HMMActual","101.16000007838011","","","","Images/NewTrialWC.png","39"
"image-keyboard-response","558","482922","0.0-4.0-1.179","9","Low_HMMActual","229.1900001000613","","","","Images/WhiteBeadChoice.png","39"
"image-keyboard-response","559","483425","0.0-4.0-2.179","9","Low_HMMActual","417.1850000275299","","","","Images/WhiteBeadChoiceCorrect.png","39"
"image-keyboard-response","560","483549","0.0-4.0-0.180","9","Low_HMMActual","122.21999990288168","","","","Images/NewTrialWC.png","39"
"image-keyboard-response","561","483801","0.0-4.0-1.180","9","Low_HMMActual","null","","","","Images/WhiteBeadChoice.png","null"
"image-keyboard-response","562","484304","0.0-4.0-2.180","9","Low_HMMActual","418.89999993145466","","","","Images/WhiteBeadChoiceCorrect.png","39"
"image-keyboard-response","563","484389","0.0-4.0-0.181","9","Low_HMMActual","84.2049999628216","","","","Images/NewTrialWC.png","39"
"image-keyboard-response","564","484641","0.0-4.0-1.181","9","Low_HMMActual","null","","","","Images/WhiteBeadChoice.png","null"
"image-keyboard-response","565","485143","0.0-4.0-2.181","9","Low_HMMActual","282.46000001672655","","","","Images/WhiteBeadChoiceCorrect.png","39"
"image-keyboard-response","566","485581","0.0-4.0-0.182","9","Low_HMMActual","437.28499999269843","","","","Images/NewTrialWC.png","39"
"image-keyboard-response","567","485834","0.0-4.0-1.182","9","Low_HMMActual","null","","","","Images/WhiteBeadChoice.png","null"
"image-keyboard-response","568","486336","0.0-4.0-2.182","9","Low_HMMActual","null","","","","Images/WhiteBeadChoiceWrong.png","null"
"image-keyboard-response","569","486350","0.0-4.0-0.183","9","Low_HMMActual","11.409999919123948","","","","Images/NewTrialBC.png","37"
"image-keyboard-response","570","486603","0.0-4.0-1.183","9","Low_HMMActual","null","","","","Images/BlackBeadChoice.png","null"
"image-keyboard-response","571","487105","0.0-4.0-2.183","9","Low_HMMActual","433.9250000193715","","","","Images/BlackBeadChoiceWrong.png","39"
"image-keyboard-response","572","487495","0.0-4.0-0.184","9","Low_HMMActual","387.6000000163913","","","","Images/NewTrialWC.png","39"
"image-keyboard-response","573","487747","0.0-4.0-1.184","9","Low_HMMActual","null","","","","Images/WhiteBeadChoice.png","null"
"image-keyboard-response","574","488249","0.0-4.0-2.184","9","Low_HMMActual","448.2950000092387","","","","Images/WhiteBeadChoiceCorrect.png","39"
"image-keyboard-response","575","488693","0.0-4.0-0.185","9","Low_HMMActual","443.39000002946705","","","","Images/NewTrialWC.png","39"
"image-keyboard-response","576","488946","0.0-4.0-1.185","9","Low_HMMActual","null","","","","Images/WhiteBeadChoice.png","null"
"image-keyboard-response","577","489449","0.0-4.0-2.185","9","Low_HMMActual","280.8749999385327","","","","Images/WhiteBeadChoiceCorrect.png","39"
"image-keyboard-response","578","489636","0.0-4.0-0.186","9","Low_HMMActual","184.8350000800565","","","","Images/NewTrialWC.png","39"
"image-keyboard-response","579","489887","0.0-4.0-1.186","9","Low_HMMActual","200.8899999782443","","","","Images/WhiteBeadChoice.png","39"
"image-keyboard-response","580","490389","0.0-4.0-2.186","9","Low_HMMActual","188.28499992378056","","","","Images/WhiteBeadChoiceWrong.png","39"
"image-keyboard-response","581","490567","0.0-4.0-0.187","9","Low_HMMActual","173.4400000423193","","","","Images/NewTrialBC.png","37"
"image-keyboard-response","582","490819","0.0-4.0-1.187","9","Low_HMMActual","212.9399999976158","","","","Images/BlackBeadChoice.png","37"
"image-keyboard-response","583","491322","0.0-4.0-2.187","9","Low_HMMActual","null","","","","Images/BlackBeadChoiceWrong.png","null"
"image-keyboard-response","584","491374","0.0-4.0-0.188","9","Low_HMMActual","51.13000003620982","","","","Images/NewTrialWC.png","39"
"image-keyboard-response","585","491625","0.0-4.0-1.188","9","Low_HMMActual","null","","","","Images/WhiteBeadChoice.png","null"
"image-keyboard-response","586","492127","0.0-4.0-2.188","9","Low_HMMActual","491.1250000586733","","","","Images/WhiteBeadChoiceCorrect.png","39"
"image-keyboard-response","587","492550","0.0-4.0-0.189","9","Low_HMMActual","421.57999996561557","","","","Images/NewTrialWC.png","39"
"image-keyboard-response","588","492803","0.0-4.0-1.189","9","Low_HMMActual","null","","","","Images/WhiteBeadChoice.png","null"
"image-keyboard-response","589","493305","0.0-4.0-2.189","9","Low_HMMActual","null","","","","Images/WhiteBeadChoiceCorrect.png","null"
"image-keyboard-response","590","493420","0.0-4.0-0.190","9","Low_HMMActual","113.76500001642853","","","","Images/NewTrialWC.png","39"
"image-keyboard-response","591","493671","0.0-4.0-1.190","9","Low_HMMActual","null","","","","Images/WhiteBeadChoice.png","null"
"image-keyboard-response","592","494174","0.0-4.0-2.190","9","Low_HMMActual","null","","","","Images/WhiteBeadChoiceCorrect.png","null"
"image-keyboard-response","593","501788","0.0-4.0-0.191","9","Low_HMMActual","7613.529999973252","","","","Images/NewTrialWC.png","39"
"image-keyboard-response","594","502040","0.0-4.0-1.191","9","Low_HMMActual","null","","","","Images/WhiteBeadChoice.png","null"
"image-keyboard-response","595","502542","0.0-4.0-2.191","9","Low_HMMActual","null","","","","Images/WhiteBeadChoiceCorrect.png","null"
"image-keyboard-response","596","502588","0.0-4.0-0.192","9","Low_HMMActual","44.80500007048249","","","","Images/NewTrialWC.png","39"
"image-keyboard-response","597","502840","0.0-4.0-1.192","9","Low_HMMActual","null","","","","Images/WhiteBeadChoice.png","null"
"image-keyboard-response","598","503342","0.0-4.0-2.192","9","Low_HMMActual","null","","","","Images/WhiteBeadChoiceCorrect.png","null"
"image-keyboard-response","599","503605","0.0-4.0-0.193","9","Low_HMMActual","261.9399999966845","","","","Images/NewTrialWC.png","39"
"image-keyboard-response","600","503857","0.0-4.0-1.193","9","Low_HMMActual","null","","","","Images/WhiteBeadChoice.png","null"
"image-keyboard-response","601","504360","0.0-4.0-2.193","9","Low_HMMActual","null","","","","Images/WhiteBeadChoiceCorrect.png","null"
"image-keyboard-response","602","504422","0.0-4.0-0.194","9","Low_HMMActual","60.12499995995313","","","","Images/NewTrialWC.png","39"
"image-keyboard-response","603","504673","0.0-4.0-1.194","9","Low_HMMActual","null","","","","Images/WhiteBeadChoice.png","null"
"image-keyboard-response","604","505174","0.0-4.0-2.194","9","Low_HMMActual","492.8099999669939","","","","Images/WhiteBeadChoiceCorrect.png","39"
"image-keyboard-response","605","505532","0.0-4.0-0.195","9","Low_HMMActual","356.4199999673292","","","","Images/NewTrialWC.png","39"
"image-keyboard-response","606","505785","0.0-4.0-1.195","9","Low_HMMActual","null","","","","Images/WhiteBeadChoice.png","null"
"image-keyboard-response","607","506288","0.0-4.0-2.195","9","Low_HMMActual","307.62999993748963","","","","Images/WhiteBeadChoiceCorrect.png","39"
"image-keyboard-response","608","506334","0.0-4.0-0.196","9","Low_HMMActual","43.85999997612089","","","","Images/NewTrialWC.png","39"
"image-keyboard-response","609","506586","0.0-4.0-1.196","9","Low_HMMActual","null","","","","Images/WhiteBeadChoice.png","null"
"image-keyboard-response","610","507088","0.0-4.0-2.196","9","Low_HMMActual","313.55999992229044","","","","Images/WhiteBeadChoiceCorrect.png","39"
"image-keyboard-response","611","507133","0.0-4.0-0.197","9","Low_HMMActual","42.97000006772578","","","","Images/NewTrialWC.png","39"
"image-keyboard-response","612","507386","0.0-4.0-1.197","9","Low_HMMActual","null","","","","Images/WhiteBeadChoice.png","null"
"image-keyboard-response","613","507889","0.0-4.0-2.197","9","Low_HMMActual","290.3350000269711","","","","Images/WhiteBeadChoiceCorrect.png","39"
"image-keyboard-response","614","508238","0.0-4.0-0.198","9","Low_HMMActual","348.12500001862645","","","","Images/NewTrialWC.png","39"
"image-keyboard-response","615","508490","0.0-4.0-1.198","9","Low_HMMActual","null","","","","Images/WhiteBeadChoice.png","null"
"image-keyboard-response","616","508992","0.0-4.0-2.198","9","Low_HMMActual","266.40999992378056","","","","Images/WhiteBeadChoiceCorrect.png","39"
"image-keyboard-response","617","509372","0.0-4.0-0.199","9","Low_HMMActual","378.59500001650304","","","","Images/NewTrialWC.png","39"
"image-keyboard-response","618","509623","0.0-4.0-1.199","9","Low_HMMActual","null","","","","Images/WhiteBeadChoice.png","null"
"image-keyboard-response","619","510125","0.0-4.0-2.199","9","Low_HMMActual","357.1499999379739","","","","Images/WhiteBeadChoiceCorrect.png","39"
"image-keyboard-response","620","510198","0.0-4.0-0.200","9","Low_HMMActual","70.97000000067055","","","","Images/NewTrialWC.png","39"
"image-keyboard-response","621","510451","0.0-4.0-1.200","9","Low_HMMActual","null","","","","Images/WhiteBeadChoice.png","null"
"image-keyboard-response","622","510954","0.0-4.0-2.200","9","Low_HMMActual","240.31500006094575","","","","Images/WhiteBeadChoiceCorrect.png","39"
"image-keyboard-response","623","511334","0.0-4.0-0.201","9","Low_HMMActual","377.3700000019744","","","","Images/NewTrialWC.png","39"
"image-keyboard-response","624","511585","0.0-4.0-1.201","9","Low_HMMActual","null","","","","Images/WhiteBeadChoice.png","null"
"image-keyboard-response","625","512088","0.0-4.0-2.201","9","Low_HMMActual","284.56000005826354","","","","Images/WhiteBeadChoiceCorrect.png","39"
"image-keyboard-response","626","512543","0.0-4.0-0.202","9","Low_HMMActual","454.44500003941357","","","","Images/NewTrialWC.png","39"
"image-keyboard-response","627","512795","0.0-4.0-1.202","9","Low_HMMActual","null","","","","Images/WhiteBeadChoice.png","null"
"image-keyboard-response","628","513297","0.0-4.0-2.202","9","Low_HMMActual","280.3549999371171","","","","Images/WhiteBeadChoiceCorrect.png","39"
"image-keyboard-response","629","513327","0.0-4.0-0.203","9","Low_HMMActual","28.030000044964254","","","","Images/NewTrialWC.png","39"
"image-keyboard-response","630","513579","0.0-4.0-1.203","9","Low_HMMActual","198.729999945499","","","","Images/WhiteBeadChoice.png","39"
"image-keyboard-response","631","514081","0.0-4.0-2.203","9","Low_HMMActual","402.4900000076741","","","","Images/WhiteBeadChoiceCorrect.png","39"
"image-keyboard-response","632","514165","0.0-4.0-0.204","9","Low_HMMActual","81.4249999821186","","","","Images/NewTrialWC.png","39"
"image-keyboard-response","633","514416","0.0-4.0-1.204","9","Low_HMMActual","null","","","","Images/WhiteBeadChoice.png","null"
"image-keyboard-response","634","514917","0.0-4.0-2.204","9","Low_HMMActual","276.09499997925013","","","","Images/WhiteBeadChoiceCorrect.png","39"
"image-keyboard-response","635","515326","0.0-4.0-0.205","9","Low_HMMActual","407.1949999779463","","","","Images/NewTrialWC.png","39"
"image-keyboard-response","636","515579","0.0-4.0-1.205","9","Low_HMMActual","null","","","","Images/WhiteBeadChoice.png","null"
"image-keyboard-response","637","516081","0.0-4.0-2.205","9","Low_HMMActual","297.1499999985099","","","","Images/WhiteBeadChoiceWrong.png","39"
"image-keyboard-response","638","516255","0.0-4.0-0.206","9","Low_HMMActual","172.03999997582287","","","","Images/NewTrialBC.png","37"
"image-keyboard-response","639","516507","0.0-4.0-1.206","9","Low_HMMActual","196.1749999318272","","","","Images/BlackBeadChoice.png","37"
"image-keyboard-response","640","517009","0.0-4.0-2.206","9","Low_HMMActual","null","","","","Images/BlackBeadChoiceWrong.png","null"
"image-keyboard-response","641","517165","0.0-4.0-0.207","9","Low_HMMActual","154.66500003822148","","","","Images/NewTrialWC.png","39"
"image-keyboard-response","642","517417","0.0-4.0-1.207","9","Low_HMMActual","181.6050000488758","","","","Images/WhiteBeadChoice.png","39"
"image-keyboard-response","643","517920","0.0-4.0-2.207","9","Low_HMMActual","null","","","","Images/WhiteBeadChoiceCorrect.png","null"
"image-keyboard-response","644","518020","0.0-4.0-0.208","9","Low_HMMActual","99.15500006172806","","","","Images/NewTrialWC.png","39"
"image-keyboard-response","645","518272","0.0-4.0-1.208","9","Low_HMMActual","200.07499994244426","","","","Images/WhiteBeadChoice.png","39"
"image-keyboard-response","646","518773","0.0-4.0-2.208","9","Low_HMMActual","468.9599999692291","","","","Images/WhiteBeadChoiceCorrect.png","39"
"image-keyboard-response","647","518950","0.0-4.0-0.209","9","Low_HMMActual","175.09499995503575","","","","Images/NewTrialWC.png","39"
"image-keyboard-response","648","519203","0.0-4.0-1.209","9","Low_HMMActual","206.79500000551343","","","","Images/WhiteBeadChoice.png","39"
"image-keyboard-response","649","519707","0.0-4.0-2.209","9","Low_HMMActual","448.39000003412366","","","","Images/WhiteBeadChoiceCorrect.png","39"
"image-keyboard-response","650","519854","0.0-4.0-0.210","9","Low_HMMActual","145.57000005152076","","","","Images/NewTrialWC.png","39"
"image-keyboard-response","651","520107","0.0-4.0-1.210","9","Low_HMMActual","null","","","","Images/WhiteBeadChoice.png","null"
"image-keyboard-response","652","520610","0.0-4.0-2.210","9","Low_HMMActual","343.98999996483326","","","","Images/WhiteBeadChoiceCorrect.png","39"
"image-keyboard-response","653","520629","0.0-4.0-0.211","9","Low_HMMActual","16.99999999254942","","","","Images/NewTrialWC.png","39"
"image-keyboard-response","654","520882","0.0-4.0-1.211","9","Low_HMMActual","null","","","","Images/WhiteBeadChoice.png","null"
"image-keyboard-response","655","521385","0.0-4.0-2.211","9","Low_HMMActual","314.6199999609962","","","","Images/WhiteBeadChoiceCorrect.png","39"
"image-keyboard-response","656","521734","0.0-4.0-0.212","9","Low_HMMActual","347.3750000121072","","","","Images/NewTrialWC.png","39"
"image-keyboard-response","657","521986","0.0-4.0-1.212","9","Low_HMMActual","null","","","","Images/WhiteBeadChoice.png","null"
"image-keyboard-response","658","522488","0.0-4.0-2.212","9","Low_HMMActual","288.96500007249415","","","","Images/WhiteBeadChoiceCorrect.png","39"
"image-keyboard-response","659","522492","0.0-4.0-0.213","9","Low_HMMActual","3.335000015795231","","","","Images/NewTrialWC.png","39"
"image-keyboard-response","660","522744","0.0-4.0-1.213","9","Low_HMMActual","201.28499995917082","","","","Images/WhiteBeadChoice.png","39"
"image-keyboard-response","661","523247","0.0-4.0-2.213","9","Low_HMMActual","null","","","","Images/WhiteBeadChoiceWrong.png","null"
"image-keyboard-response","662","523262","0.0-4.0-0.214","9","Low_HMMActual","12.649999931454659","","","","Images/NewTrialBC.png","37"
"image-keyboard-response","663","523513","0.0-4.0-1.214","9","Low_HMMActual","206.25000004656613","","","","Images/BlackBeadChoice.png","37"
"image-keyboard-response","664","524015","0.0-4.0-2.214","9","Low_HMMActual","243.2000000262633","","","","Images/BlackBeadChoiceCorrect.png","37"
"image-keyboard-response","665","524118","0.0-4.0-0.215","9","Low_HMMActual","100.90499999932945","","","","Images/NewTrialBC.png","37"
"image-keyboard-response","666","524369","0.0-4.0-1.215","9","Low_HMMActual","206.3749999506399","","","","Images/BlackBeadChoice.png","37"
"image-keyboard-response","667","524873","0.0-4.0-2.215","9","Low_HMMActual","153.2349999761209","","","","Images/BlackBeadChoiceCorrect.png","37"
"image-keyboard-response","668","524903","0.0-4.0-0.216","9","Low_HMMActual","28.25999993365258","","","","Images/NewTrialBC.png","37"
"image-keyboard-response","669","525155","0.0-4.0-1.216","9","Low_HMMActual","180.93999999109656","","","","Images/BlackBeadChoice.png","37"
"image-keyboard-response","670","525658","0.0-4.0-2.216","9","Low_HMMActual","129.83499991241843","","","","Images/BlackBeadChoiceCorrect.png","37"
"image-keyboard-response","671","525669","0.0-4.0-0.217","9","Low_HMMActual","9.2449999647215","","","","Images/NewTrialBC.png","37"
"image-keyboard-response","672","525920","0.0-4.0-1.217","9","Low_HMMActual","184.5350000075996","","","","Images/BlackBeadChoice.png","37"
"image-keyboard-response","673","526422","0.0-4.0-2.217","9","Low_HMMActual","149.74000002257526","","","","Images/BlackBeadChoiceCorrect.png","37"
"image-keyboard-response","674","526470","0.0-4.0-0.218","9","Low_HMMActual","45.75499997008592","","","","Images/NewTrialBC.png","37"
"image-keyboard-response","675","526722","0.0-4.0-1.218","9","Low_HMMActual","189.50500001665205","","","","Images/BlackBeadChoice.png","37"
"image-keyboard-response","676","527225","0.0-4.0-2.218","9","Low_HMMActual","122.1699999878183","","","","Images/BlackBeadChoiceCorrect.png","37"
"image-keyboard-response","677","527382","0.0-4.0-0.219","9","Low_HMMActual","155.28499998617917","","","","Images/NewTrialBC.png","37"
"image-keyboard-response","678","527635","0.0-4.0-1.219","9","Low_HMMActual","173.0200001038611","","","","Images/BlackBeadChoice.png","37"
"image-keyboard-response","679","528137","0.0-4.0-2.219","9","Low_HMMActual","112.04999999608845","","","","Images/BlackBeadChoiceCorrect.png","37"
"image-keyboard-response","680","528141","0.0-4.0-0.220","9","Low_HMMActual","2.364999963901937","","","","Images/NewTrialBC.png","37"
"image-keyboard-response","681","528394","0.0-4.0-1.220","9","Low_HMMActual","190.87000004947186","","","","Images/BlackBeadChoice.png","37"
"image-keyboard-response","682","528896","0.0-4.0-2.220","9","Low_HMMActual","114.09499996807426","","","","Images/BlackBeadChoiceCorrect.png","37"
"image-keyboard-response","683","529060","0.0-4.0-0.221","9","Low_HMMActual","161.83499991893768","","","","Images/NewTrialBC.png","37"
"image-keyboard-response","684","529311","0.0-4.0-1.221","9","Low_HMMActual","192.99000001046807","","","","Images/BlackBeadChoice.png","37"
"image-keyboard-response","685","529814","0.0-4.0-2.221","9","Low_HMMActual","140.22999990265816","","","","Images/BlackBeadChoiceCorrect.png","37"
"image-keyboard-response","686","529845","0.0-4.0-0.222","9","Low_HMMActual","30.84999998100102","","","","Images/NewTrialBC.png","37"
"image-keyboard-response","687","530097","0.0-4.0-1.222","9","Low_HMMActual","182.64000001363456","","","","Images/BlackBeadChoice.png","37"
"image-keyboard-response","688","530600","0.0-4.0-2.222","9","Low_HMMActual","114.79500005953014","","","","Images/BlackBeadChoiceCorrect.png","37"
"image-keyboard-response","689","530780","0.0-4.0-0.223","9","Low_HMMActual","179.2350000469014","","","","Images/NewTrialBC.png","37"
"image-keyboard-response","690","531031","0.0-4.0-1.223","9","Low_HMMActual","176.25500005669892","","","","Images/BlackBeadChoice.png","37"
"image-keyboard-response","691","531533","0.0-4.0-2.223","9","Low_HMMActual","108.01500000525266","","","","Images/BlackBeadChoiceWrong.png","37"
"image-keyboard-response","692","531725","0.0-4.0-0.224","9","Low_HMMActual","189.96500002685934","","","","Images/NewTrialWC.png","39"
"image-keyboard-response","693","531978","0.0-4.0-1.224","9","Low_HMMActual","null","","","","Images/WhiteBeadChoice.png","null"
"image-keyboard-response","694","532481","0.0-4.0-2.224","9","Low_HMMActual","316.12999993376434","","","","Images/WhiteBeadChoiceWrong.png","39"
"image-keyboard-response","695","532494","0.0-4.0-0.225","9","Low_HMMActual","10.545000084675848","","","","Images/NewTrialBC.png","39"
"image-keyboard-response","696","532746","0.0-4.0-1.225","9","Low_HMMActual","null","","","","Images/WhiteBeadChoice.png","null"
"image-keyboard-response","697","533249","0.0-4.0-2.225","9","Low_HMMActual","1.7849999712780118","","","","Images/WhiteBeadChoiceWrong.png","37"
"image-keyboard-response","698","533398","0.0-4.0-0.226","9","Low_HMMActual","148.66499998606741","","","","Images/NewTrialBC.png","37"
"image-keyboard-response","699","533650","0.0-4.0-1.226","9","Low_HMMActual","188.4450000943616","","","","Images/BlackBeadChoice.png","37"
"image-keyboard-response","700","534152","0.0-4.0-2.226","9","Low_HMMActual","169.63499994017184","","","","Images/BlackBeadChoiceCorrect.png","37"
"image-keyboard-response","701","534236","0.0-4.0-0.227","9","Low_HMMActual","81.83500007726252","","","","Images/NewTrialBC.png","37"
"image-keyboard-response","702","534487","0.0-4.0-1.227","9","Low_HMMActual","null","","","","Images/BlackBeadChoice.png","null"
"image-keyboard-response","703","534990","0.0-4.0-2.227","9","Low_HMMActual","null","","","","Images/BlackBeadChoiceWrong.png","null"
"image-keyboard-response","704","535166","0.0-4.0-0.228","9","Low_HMMActual","175.51500000990927","","","","Images/NewTrialWC.png","39"
"image-keyboard-response","705","535419","0.0-4.0-1.228","9","Low_HMMActual","null","","","","Images/WhiteBeadChoice.png","null"
"image-keyboard-response","706","535921","0.0-4.0-2.228","9","Low_HMMActual","null","","","","Images/WhiteBeadChoiceWrong.png","null"
"image-keyboard-response","707","702422","0.0-4.0-0.229","9","Low_HMMActual","166499.73000003956","","","","Images/NewTrialBC.png","39"
"image-keyboard-response","708","702674","0.0-4.0-1.229","9","Low_HMMActual","null","","","","Images/WhiteBeadChoice.png","null"
"image-keyboard-response","709","703176","0.0-4.0-2.229","9","Low_HMMActual","null","","","","Images/WhiteBeadChoiceCorrect.png","null"
"image-keyboard-response","710","704068","0.0-4.0-0.230","9","Low_HMMActual","891.0100000211969","","","","Images/NewTrialWC.png","39"
"image-keyboard-response","711","704319","0.0-4.0-1.230","9","Low_HMMActual","null","","","","Images/WhiteBeadChoice.png","null"
"image-keyboard-response","712","704821","0.0-4.0-2.230","9","Low_HMMActual","268.1049999082461","","","","Images/WhiteBeadChoiceWrong.png","39"
"image-keyboard-response","713","704910","0.0-4.0-0.231","9","Low_HMMActual","86.26999997068197","","","","Images/NewTrialBC.png","37"
"image-keyboard-response","714","705162","0.0-4.0-1.231","9","Low_HMMActual","null","","","","Images/BlackBeadChoice.png","null"
