"trial_type","trial_index","time_elapsed","internal_node_id","Script_Picker","rt","url","responses","question_order","stimulus","key_press"
"pavlovia","0","2","0.0-0.0","1","","","","","",""
"external-html","1","5683","0.0-1.0-0.0","1","5669.845000025816","consent.html","","","",""
"survey-multi-choice","2","10903","0.0-1.0-1.0","1","5217.369999969378","","{""Q0"":""Female"",""Q1"":""White""}","[0,1]","",""
"survey-text","3","14676","0.0-1.0-2.0","1","3767.595000041183","","{""Q0"":""37""}","","",""
"survey-text","4","17904","0.0-1.0-3.0","1","3119.4150000228547","","{""Q0"":""5e177578fd7db4082cf06d91""}","","",""
"html-keyboard-response","5","19310","0.0-2.0-0.0","1","1298.6750000272878","","","","<div class=""container"" style=""height:800px;width:800px;display:flex;flex-direction:column;justify-content:center;align-items:center;text-align:center;font-weight:normal;font-family:Arial;font-size:20px""><p>In this task you will see black or white beads being pulled from jars. <br><br>On each trial, a bead will be pulled from one of two jars. Once you see this bead, your goal is to predict the color of NEXT bead that will be pulled. <br> <br>Every time you correctly guess the color of the NEXT bead, you will get a point. The more points you get, the higher your win bonus at the end of the experiment <br><br>Press the SPACEBAR to continue.</p><div>","32"
"html-keyboard-response","6","20831","0.0-2.0-1.0","1","1520.4549999907613","","","","<div class=""container"" style=""height:800px;width:800px;display:flex;flex-direction:column;justify-content:center;align-items:center;text-align:center;font-weight:normal;font-family:Arial;font-size:20px""><p>There are two types of jars:<br><br>1) Jars filled with ONLY white or black beads<br><br>2) Jars filled with 90% white or black beads and 10% of the opposite color mixed in<br><br>Press the SPACEBAR to continue. </p><div>","32"
"image-keyboard-response","7","22263","0.0-2.0-2.0","1","1430.3649999783374","","","","resources/WhiteJar_MM.png","32"
"image-keyboard-response","8","26885","0.0-2.0-3.0","1","4620.21999998251","","","","resources/BlackJar_MM.png","32"
"image-keyboard-response","9","29234","0.0-2.0-4.0","1","2347.559999965597","","","","resources/WhiteJar_HMM.png","32"
"image-keyboard-response","10","30257","0.0-2.0-5.0","1","1021.5199999511242","","","","resources/BlackJar_HMM.png","32"
"html-keyboard-response","11","48489","0.0-2.0-6.0","1","18230.71999999229","","","","<div class=""container"" style=""height:800px;width:800px;display:flex;flex-direction:column;justify-content:center;align-items:center;text-align:center;font-weight:normal;font-family:Arial;font-size:20px""><p>There will be four blocks of trials. In each block, you will see the pair of jars that beads will be pulled from.<br><br>The pair of jars used in each block will ONLY ever be 100% white and black jars, or 90/10 mixed jars. <br><br>The pair of jars in each block will not change until the next block.<br><br>Here are examples of what you will see on each trial.<br><br>Press the SPACEBAR to continue. </p><div>","32"
"image-keyboard-response","12","53511","0.0-2.0-7.0","1","5020.969999954104","","","","Images/NoChoiceMM.png","32"
"image-keyboard-response","13","56664","0.0-2.0-8.0","1","3152.36999996705","","","","Images/NoChoice.png","32"
"html-keyboard-response","14","80175","0.0-2.0-9.0","1","23512.52500002738","","","","<div class=""container"" style=""height:800px;width:800px;display:flex;flex-direction:column;justify-content:center;align-items:center;text-align:center;font-weight:normal;font-family:Arial;font-size:20px""><p> The jar the beads are pulled from is NOT choosen at random on each trial.<br><br>After each prediction, there will be a chance that the jars will switch, and that the next bead will be pulled from the opposite jar as the previous trial.<br><br>In each block, the chance that a jar will switch will either be LOW (the jars will not switch very often), or HIGH (the jars will switch almost all the time).<br><br>At the start of each block, you will be told the probability that the jars will switch on each trial. This switch probability will stay constant throughout the block.<br><br>Press the SPACEBAR to continue. </p><div>","32"
"image-keyboard-response","15","89773","0.0-2.0-10.0","1","9596.26500000013","","","","Images/TutorialBlackJarDrawMM.png","32"
"image-keyboard-response","16","94706","0.0-2.0-11.0","1","4932.195000001229","","","","Images/TutorialWhiteJarDrawMM.png","32"
"html-keyboard-response","17","114200","0.0-2.0-12.0","1","19492.91499995161","","","","<div class=""container"" style=""height:800px;width:800px;display:flex;flex-direction:column;justify-content:center;align-items:center;text-align:center;font-weight:normal;font-family:Arial;font-size:20px""><p> When the jars are filled with only one color, each bead is guaranteed to have come from the same-colored jar. During these blocks, the best strategy is to use the jar switch probability to predict whether the next bead will be the same or different from the previous trial.<br><br> When the jars contain a mix of black and white beads, you will sometimes see black beads pulled from the mostly white jar, and white beads pulled from the mostly black jar. <br><br>Here is an example.<br><br>Press the SPACEBAR to continue.  </p><div>","32"
"image-keyboard-response","18","124561","0.0-2.0-13.0","1","10359.71500002779","","","","Images/TutorialWhiteJarDrawHMMC.png","32"
"image-keyboard-response","19","128160","0.0-2.0-14.0","1","3597.349999996368","","","","Images/TutorialBlackJarDrawHMMC.png","32"
"image-keyboard-response","20","132087","0.0-2.0-15.0","1","3925.6550000282004","","","","Images/TutorialBlackJarDrawHMMI.png","32"
"html-keyboard-response","21","146259","0.0-2.0-16.0","1","14171.265000011772","","","","<div class=""container"" style=""height:800px;width:800px;display:flex;flex-direction:column;justify-content:center;align-items:center;text-align:center;font-weight:normal;font-family:Arial;font-size:20px""><p> As you observed, a white bead was pulled from a 90% white jar, the jars switched and a black bead was pulled from the 90% black jar, but then low-probability white bead was pulled from the 90% black jar. <br><br>In these mixed-jar blocks, you will first have to figure out which jar the current bead was pulled from, then use the jar switch probability to predict the color of the next bead.<br><br>Press SPACEBAR to conitnue.</p><div>","32"
"html-keyboard-response","22","148433","0.0-2.0-17.0","1","2173.1649999856018","","","","<div class=""container"" style=""height:800px;width:800px;display:flex;flex-direction:column;justify-content:center;align-items:center;text-align:center;font-weight:normal;font-family:Arial;font-size:20px""><p> You will now be given a 3 question quiz to make sure you understand the fundamentals. </p><div>","32"
"image-keyboard-response","23","173687","0.0-2.0-18.0","1","25251.96500000311","","","","Images/TutorialQuestion1.png","39"
"image-keyboard-response","24","182282","0.0-2.0-19.0","1","6151.690000027884","","","","Images/TutorialQuestion2.png","38"
"html-keyboard-response","25","202338","0.0-3.0","1","18399.199999985285","","","","<div class=""container"" style=""height:800px;width:800px;display:flex;flex-direction:column;justify-content:center;align-items:center;text-align:center;font-weight:normal;font-family:Arial;font-size:20px""><p>Loading episode&hellip;</p><div>","32"
"image-keyboard-response","26","212193","0.0-4.0-0.0","1","9852.300000027753","","","","Images/NoChoice.png","37"
"image-keyboard-response","27","212449","0.0-4.0-1.0","1","null","","","","Images/BlackBeadChoice.png","null"
"image-keyboard-response","28","212952","0.0-4.0-2.0","1","null","","","","Images/BlackBeadChoiceCorrect.png","null"
"image-keyboard-response","29","217854","0.0-4.0-0.1","1","4900.439999997616","","","","Images/NewTrialBC.png","37"
"image-keyboard-response","30","218111","0.0-4.0-1.1","1","null","","","","Images/BlackBeadChoice.png","null"
"image-keyboard-response","31","218617","0.0-4.0-2.1","1","null","","","","Images/BlackBeadChoiceCorrect.png","null"
"image-keyboard-response","32","221089","0.0-4.0-0.2","1","2470.6899999873713","","","","Images/NewTrialBC.png","37"
"image-keyboard-response","33","221346","0.0-4.0-1.2","1","null","","","","Images/BlackBeadChoice.png","null"
"image-keyboard-response","34","221851","0.0-4.0-2.2","1","null","","","","Images/BlackBeadChoiceWrong.png","null"
"image-keyboard-response","35","227358","0.0-4.0-0.3","1","5505.844999977853","","","","Images/NewTrialWC.png","39"
"image-keyboard-response","36","227614","0.0-4.0-1.3","1","null","","","","Images/WhiteBeadChoice.png","null"
"image-keyboard-response","37","228119","0.0-4.0-2.3","1","null","","","","Images/WhiteBeadChoiceWrong.png","null"
"image-keyboard-response","38","231044","0.0-4.0-0.4","1","2923.1549999676645","","","","Images/NewTrialBC.png","37"
"image-keyboard-response","39","231300","0.0-4.0-1.4","1","null","","","","Images/BlackBeadChoice.png","null"
"image-keyboard-response","40","231806","0.0-4.0-2.4","1","null","","","","Images/BlackBeadChoiceWrong.png","null"
"image-keyboard-response","41","234760","0.0-4.0-0.5","1","2952.0799999590963","","","","Images/NewTrialWC.png","39"
"image-keyboard-response","42","235016","0.0-4.0-1.5","1","null","","","","Images/WhiteBeadChoice.png","null"
"image-keyboard-response","43","235525","0.0-4.0-2.5","1","null","","","","Images/WhiteBeadChoiceWrong.png","null"
"image-keyboard-response","44","238496","0.0-4.0-0.6","1","2969.7000000160187","","","","Images/NewTrialBC.png","37"
"image-keyboard-response","45","238753","0.0-4.0-1.6","1","null","","","","Images/BlackBeadChoice.png","null"
"image-keyboard-response","46","239259","0.0-4.0-2.6","1","null","","","","Images/BlackBeadChoiceWrong.png","null"
"image-keyboard-response","47","240492","0.0-4.0-0.7","1","1231.2650000094436","","","","Images/NewTrialWC.png","39"
"image-keyboard-response","48","240748","0.0-4.0-1.7","1","null","","","","Images/WhiteBeadChoice.png","null"
"image-keyboard-response","49","241255","0.0-4.0-2.7","1","null","","","","Images/WhiteBeadChoiceCorrect.png","null"
"image-keyboard-response","50","242337","0.0-4.0-0.8","1","1081.270000024233","","","","Images/NewTrialWC.png","39"
"image-keyboard-response","51","242594","0.0-4.0-1.8","1","null","","","","Images/WhiteBeadChoice.png","null"
"image-keyboard-response","52","243100","0.0-4.0-2.8","1","null","","","","Images/WhiteBeadChoiceCorrect.png","null"
"image-keyboard-response","53","244488","0.0-4.0-0.9","1","1386.2300000037067","","","","Images/NewTrialWC.png","39"
"image-keyboard-response","54","244740","0.0-4.0-1.9","1","null","","","","Images/WhiteBeadChoice.png","null"
"image-keyboard-response","55","245247","0.0-4.0-2.9","1","null","","","","Images/WhiteBeadChoiceCorrect.png","null"
"image-keyboard-response","56","246373","0.0-4.0-0.10","1","1124.759999976959","","","","Images/NewTrialWC.png","39"
"image-keyboard-response","57","246629","0.0-4.0-1.10","1","null","","","","Images/WhiteBeadChoice.png","null"
"image-keyboard-response","58","247135","0.0-4.0-2.10","1","null","","","","Images/WhiteBeadChoiceWrong.png","null"
"image-keyboard-response","59","249502","0.0-4.0-0.11","1","2365.1349999709055","","","","Images/NewTrialBC.png","37"
"image-keyboard-response","60","249754","0.0-4.0-1.11","1","null","","","","Images/BlackBeadChoice.png","null"
"image-keyboard-response","61","250260","0.0-4.0-2.11","1","null","","","","Images/BlackBeadChoiceCorrect.png","null"
"image-keyboard-response","62","251524","0.0-4.0-0.12","1","1262.6799999852665","","","","Images/NewTrialBC.png","37"
"image-keyboard-response","63","251778","0.0-4.0-1.12","1","null","","","","Images/BlackBeadChoice.png","null"
"image-keyboard-response","64","252283","0.0-4.0-2.12","1","null","","","","Images/BlackBeadChoiceCorrect.png","null"
"image-keyboard-response","65","253337","0.0-4.0-0.13","1","1052.5499999639578","","","","Images/NewTrialBC.png","37"
"image-keyboard-response","66","253591","0.0-4.0-1.13","1","null","","","","Images/BlackBeadChoice.png","null"
"image-keyboard-response","67","254094","0.0-4.0-2.13","1","null","","","","Images/BlackBeadChoiceCorrect.png","null"
"image-keyboard-response","68","255043","0.0-4.0-0.14","1","947.1149999881163","","","","Images/NewTrialBC.png","37"
"image-keyboard-response","69","255300","0.0-4.0-1.14","1","null","","","","Images/BlackBeadChoice.png","null"
"image-keyboard-response","70","255807","0.0-4.0-2.14","1","null","","","","Images/BlackBeadChoiceCorrect.png","null"
"image-keyboard-response","71","256624","0.0-4.0-0.15","1","815.3499999898486","","","","Images/NewTrialBC.png","37"
"image-keyboard-response","72","256880","0.0-4.0-1.15","1","null","","","","Images/BlackBeadChoice.png","null"
"image-keyboard-response","73","257387","0.0-4.0-2.15","1","null","","","","Images/BlackBeadChoiceWrong.png","null"
"image-keyboard-response","74","259064","0.0-4.0-0.16","1","1676.0900000226684","","","","Images/NewTrialWC.png","37"
"image-keyboard-response","75","259318","0.0-4.0-1.16","1","null","","","","Images/BlackBeadChoice.png","null"
"image-keyboard-response","76","259822","0.0-4.0-2.16","1","null","","","","Images/BlackBeadChoiceCorrect.png","null"
"image-keyboard-response","77","260581","0.0-4.0-0.17","1","757.4100000201724","","","","Images/NewTrialBC.png","37"
"image-keyboard-response","78","260837","0.0-4.0-1.17","1","null","","","","Images/BlackBeadChoice.png","null"
"image-keyboard-response","79","261340","0.0-4.0-2.17","1","null","","","","Images/BlackBeadChoiceWrong.png","null"
"image-keyboard-response","80","263259","0.0-4.0-0.18","1","1917.4000000348315","","","","Images/NewTrialWC.png","37"
"image-keyboard-response","81","263515","0.0-4.0-1.18","1","null","","","","Images/BlackBeadChoice.png","null"
"image-keyboard-response","82","264022","0.0-4.0-2.18","1","null","","","","Images/BlackBeadChoiceCorrect.png","null"
"image-keyboard-response","83","264957","0.0-4.0-0.19","1","934.2300000134856","","","","Images/NewTrialBC.png","37"
"image-keyboard-response","84","265210","0.0-4.0-1.19","1","null","","","","Images/BlackBeadChoice.png","null"
"image-keyboard-response","85","265711","0.0-4.0-2.19","1","null","","","","Images/BlackBeadChoiceCorrect.png","null"
"image-keyboard-response","86","266571","0.0-4.0-0.20","1","857.880000025034","","","","Images/NewTrialBC.png","37"
"image-keyboard-response","87","266825","0.0-4.0-1.20","1","null","","","","Images/BlackBeadChoice.png","null"
"image-keyboard-response","88","267330","0.0-4.0-2.20","1","null","","","","Images/BlackBeadChoiceWrong.png","null"
"image-keyboard-response","89","268095","0.0-4.0-0.21","1","763.474999985192","","","","Images/NewTrialWC.png","37"
"image-keyboard-response","90","268351","0.0-4.0-1.21","1","null","","","","Images/BlackBeadChoice.png","null"
"image-keyboard-response","91","268855","0.0-4.0-2.21","1","null","","","","Images/BlackBeadChoiceCorrect.png","null"
"image-keyboard-response","92","269764","0.0-4.0-0.22","1","907.1399999666028","","","","Images/NewTrialBC.png","37"
"image-keyboard-response","93","270020","0.0-4.0-1.22","1","null","","","","Images/BlackBeadChoice.png","null"
"image-keyboard-response","94","270525","0.0-4.0-2.22","1","null","","","","Images/BlackBeadChoiceCorrect.png","null"
"image-keyboard-response","95","271298","0.0-4.0-0.23","1","771.9899999792688","","","","Images/NewTrialBC.png","37"
"image-keyboard-response","96","271550","0.0-4.0-1.23","1","null","","","","Images/BlackBeadChoice.png","null"
"image-keyboard-response","97","272056","0.0-4.0-2.23","1","null","","","","Images/BlackBeadChoiceCorrect.png","null"
"image-keyboard-response","98","272674","0.0-4.0-0.24","1","615.6750000081956","","","","Images/NewTrialBC.png","37"
"image-keyboard-response","99","272929","0.0-4.0-1.24","1","null","","","","Images/BlackBeadChoice.png","null"
"image-keyboard-response","100","273434","0.0-4.0-2.24","1","null","","","","Images/BlackBeadChoiceCorrect.png","null"
"image-keyboard-response","101","274072","0.0-4.0-0.25","1","636.3799999817275","","","","Images/NewTrialBC.png","37"
"image-keyboard-response","102","274325","0.0-4.0-1.25","1","null","","","","Images/BlackBeadChoice.png","null"
"image-keyboard-response","103","274828","0.0-4.0-2.25","1","null","","","","Images/BlackBeadChoiceWrong.png","null"
"image-keyboard-response","104","275947","0.0-4.0-0.26","1","1118.094999983441","","","","Images/NewTrialWC.png","39"
"image-keyboard-response","105","276202","0.0-4.0-1.26","1","null","","","","Images/WhiteBeadChoice.png","null"
"image-keyboard-response","106","276707","0.0-4.0-2.26","1","null","","","","Images/WhiteBeadChoiceWrong.png","null"
"image-keyboard-response","107","277902","0.0-4.0-0.27","1","1193.169999984093","","","","Images/NewTrialBC.png","37"
"image-keyboard-response","108","278158","0.0-4.0-1.27","1","null","","","","Images/BlackBeadChoice.png","null"
"image-keyboard-response","109","278663","0.0-4.0-2.27","1","null","","","","Images/BlackBeadChoiceWrong.png","null"
"image-keyboard-response","110","279967","0.0-4.0-0.28","1","1302.6150000514463","","","","Images/NewTrialWC.png","37"
"image-keyboard-response","111","280221","0.0-4.0-1.28","1","null","","","","Images/BlackBeadChoice.png","null"
"image-keyboard-response","112","280723","0.0-4.0-2.28","1","null","","","","Images/BlackBeadChoiceCorrect.png","null"
"image-keyboard-response","113","281360","0.0-4.0-0.29","1","634.6550000016578","","","","Images/NewTrialBC.png","37"
"image-keyboard-response","114","281613","0.0-4.0-1.29","1","null","","","","Images/BlackBeadChoice.png","null"
"image-keyboard-response","115","282118","0.0-4.0-2.29","1","null","","","","Images/BlackBeadChoiceCorrect.png","null"
"image-keyboard-response","116","282840","0.0-4.0-0.30","1","720.229999977164","","","","Images/NewTrialBC.png","37"
"image-keyboard-response","117","283096","0.0-4.0-1.30","1","null","","","","Images/BlackBeadChoice.png","null"
"image-keyboard-response","118","283602","0.0-4.0-2.30","1","null","","","","Images/BlackBeadChoiceCorrect.png","null"
"image-keyboard-response","119","284401","0.0-4.0-0.31","1","796.764999977313","","","","Images/NewTrialBC.png","37"
"image-keyboard-response","120","284655","0.0-4.0-1.31","1","null","","","","Images/BlackBeadChoice.png","null"
"image-keyboard-response","121","285162","0.0-4.0-2.31","1","null","","","","Images/BlackBeadChoiceCorrect.png","null"
"image-keyboard-response","122","286990","0.0-4.0-0.32","1","1826.679999998305","","","","Images/NewTrialBC.png","37"
"image-keyboard-response","123","287245","0.0-4.0-1.32","1","null","","","","Images/BlackBeadChoice.png","null"
"image-keyboard-response","124","287747","0.0-4.0-2.32","1","null","","","","Images/BlackBeadChoiceCorrect.png","null"
"image-keyboard-response","125","290048","0.0-4.0-0.33","1","2300.1100000110455","","","","Images/NewTrialBC.png","37"
"image-keyboard-response","126","290305","0.0-4.0-1.33","1","null","","","","Images/BlackBeadChoice.png","null"
"image-keyboard-response","127","290811","0.0-4.0-2.33","1","null","","","","Images/BlackBeadChoiceCorrect.png","null"
"image-keyboard-response","128","292428","0.0-4.0-0.34","1","1615.6900000059977","","","","Images/NewTrialBC.png","37"
"image-keyboard-response","129","292685","0.0-4.0-1.34","1","null","","","","Images/BlackBeadChoice.png","null"
"image-keyboard-response","130","293191","0.0-4.0-2.34","1","null","","","","Images/BlackBeadChoiceWrong.png","null"
"image-keyboard-response","131","293789","0.0-4.0-0.35","1","596.5499999583699","","","","Images/NewTrialWC.png","37"
"image-keyboard-response","132","294042","0.0-4.0-1.35","1","null","","","","Images/BlackBeadChoice.png","null"
"image-keyboard-response","133","294549","0.0-4.0-2.35","1","null","","","","Images/BlackBeadChoiceWrong.png","null"
"image-keyboard-response","134","294936","0.0-4.0-0.36","1","385.89999999385327","","","","Images/NewTrialWC.png","39"
"image-keyboard-response","135","295191","0.0-4.0-1.36","1","null","","","","Images/WhiteBeadChoice.png","null"
"image-keyboard-response","136","295698","0.0-4.0-2.36","1","null","","","","Images/WhiteBeadChoiceCorrect.png","null"
"image-keyboard-response","137","296226","0.0-4.0-0.37","1","526.8449999857694","","","","Images/NewTrialWC.png","39"
"image-keyboard-response","138","296483","0.0-4.0-1.37","1","null","","","","Images/WhiteBeadChoice.png","null"
"image-keyboard-response","139","296989","0.0-4.0-2.37","1","null","","","","Images/WhiteBeadChoiceWrong.png","null"
"image-keyboard-response","140","297515","0.0-4.0-0.38","1","524.4299999903888","","","","Images/NewTrialBC.png","39"
"image-keyboard-response","141","297768","0.0-4.0-1.38","1","null","","","","Images/WhiteBeadChoice.png","null"
"image-keyboard-response","142","298274","0.0-4.0-2.38","1","null","","","","Images/WhiteBeadChoiceCorrect.png","null"
"image-keyboard-response","143","298924","0.0-4.0-0.39","1","648.5250000259839","","","","Images/NewTrialWC.png","39"
"image-keyboard-response","144","299177","0.0-4.0-1.39","1","null","","","","Images/WhiteBeadChoice.png","null"
"image-keyboard-response","145","299683","0.0-4.0-2.39","1","null","","","","Images/WhiteBeadChoiceWrong.png","null"
"image-keyboard-response","146","300394","0.0-4.0-0.40","1","709.4149999902584","","","","Images/NewTrialBC.png","39"
"image-keyboard-response","147","300647","0.0-4.0-1.40","1","null","","","","Images/WhiteBeadChoice.png","null"
"image-keyboard-response","148","301154","0.0-4.0-2.40","1","null","","","","Images/WhiteBeadChoiceCorrect.png","null"
"image-keyboard-response","149","301722","0.0-4.0-0.41","1","566.5349999908358","","","","Images/NewTrialWC.png","39"
"image-keyboard-response","150","301976","0.0-4.0-1.41","1","null","","","","Images/WhiteBeadChoice.png","null"
"image-keyboard-response","151","302480","0.0-4.0-2.41","1","null","","","","Images/WhiteBeadChoiceCorrect.png","null"
"image-keyboard-response","152","303289","0.0-4.0-0.42","1","807.9750000033528","","","","Images/NewTrialWC.png","39"
"image-keyboard-response","153","303545","0.0-4.0-1.42","1","null","","","","Images/WhiteBeadChoice.png","null"
"image-keyboard-response","154","304052","0.0-4.0-2.42","1","null","","","","Images/WhiteBeadChoiceCorrect.png","null"
"image-keyboard-response","155","304539","0.0-4.0-0.43","1","486.2100000027567","","","","Images/NewTrialWC.png","39"
"image-keyboard-response","156","304791","0.0-4.0-1.43","1","null","","","","Images/WhiteBeadChoice.png","null"
"image-keyboard-response","157","305298","0.0-4.0-2.43","1","null","","","","Images/WhiteBeadChoiceCorrect.png","null"
"image-keyboard-response","158","305893","0.0-4.0-0.44","1","593.3149999473244","","","","Images/NewTrialWC.png","39"
"image-keyboard-response","159","306149","0.0-4.0-1.44","1","null","","","","Images/WhiteBeadChoice.png","null"
"image-keyboard-response","160","306654","0.0-4.0-2.44","1","null","","","","Images/WhiteBeadChoiceCorrect.png","null"
"image-keyboard-response","161","307083","0.0-4.0-0.45","1","428.0500000459142","","","","Images/NewTrialWC.png","39"
"image-keyboard-response","162","307337","0.0-4.0-1.45","1","null","","","","Images/WhiteBeadChoice.png","null"
"image-keyboard-response","163","307842","0.0-4.0-2.45","1","null","","","","Images/WhiteBeadChoiceCorrect.png","null"
"image-keyboard-response","164","308429","0.0-4.0-0.46","1","585.7149999937974","","","","Images/NewTrialWC.png","39"
"image-keyboard-response","165","308686","0.0-4.0-1.46","1","null","","","","Images/WhiteBeadChoice.png","null"
"image-keyboard-response","166","309192","0.0-4.0-2.46","1","null","","","","Images/WhiteBeadChoiceWrong.png","null"
"image-keyboard-response","167","310468","0.0-4.0-0.47","1","1274.6650000335649","","","","Images/NewTrialBC.png","39"
"image-keyboard-response","168","310722","0.0-4.0-1.47","1","null","","","","Images/WhiteBeadChoice.png","null"
"image-keyboard-response","169","311229","0.0-4.0-2.47","1","null","","","","Images/WhiteBeadChoiceWrong.png","null"
"image-keyboard-response","170","311881","0.0-4.0-0.48","1","651.0000000125729","","","","Images/NewTrialBC.png","37"
"image-keyboard-response","171","312138","0.0-4.0-1.48","1","null","","","","Images/BlackBeadChoice.png","null"
"image-keyboard-response","172","312644","0.0-4.0-2.48","1","null","","","","Images/BlackBeadChoiceCorrect.png","null"
"image-keyboard-response","173","313201","0.0-4.0-0.49","1","555.0400000065565","","","","Images/NewTrialBC.png","37"
"image-keyboard-response","174","313457","0.0-4.0-1.49","1","null","","","","Images/BlackBeadChoice.png","null"
"image-keyboard-response","175","313963","0.0-4.0-2.49","1","null","","","","Images/BlackBeadChoiceCorrect.png","null"
"image-keyboard-response","176","314520","0.0-4.0-0.50","1","554.694999998901","","","","Images/NewTrialBC.png","37"
"image-keyboard-response","177","314774","0.0-4.0-1.50","1","null","","","","Images/BlackBeadChoice.png","null"
"image-keyboard-response","178","315280","0.0-4.0-2.50","1","null","","","","Images/BlackBeadChoiceCorrect.png","null"
"image-keyboard-response","179","315896","0.0-4.0-0.51","1","614.5550000364892","","","","Images/NewTrialBC.png","37"
"image-keyboard-response","180","316148","0.0-4.0-1.51","1","null","","","","Images/BlackBeadChoice.png","null"
"image-keyboard-response","181","316654","0.0-4.0-2.51","1","null","","","","Images/BlackBeadChoiceCorrect.png","null"
"image-keyboard-response","182","317304","0.0-4.0-0.52","1","647.57999998983","","","","Images/NewTrialBC.png","37"
"image-keyboard-response","183","317555","0.0-4.0-1.52","1","null","","","","Images/BlackBeadChoice.png","null"
"image-keyboard-response","184","318058","0.0-4.0-2.52","1","null","","","","Images/BlackBeadChoiceCorrect.png","null"
"image-keyboard-response","185","318507","0.0-4.0-0.53","1","447.2550000064075","","","","Images/NewTrialBC.png","37"
"image-keyboard-response","186","318760","0.0-4.0-1.53","1","null","","","","Images/BlackBeadChoice.png","null"
"image-keyboard-response","187","319264","0.0-4.0-2.53","1","null","","","","Images/BlackBeadChoiceCorrect.png","null"
"image-keyboard-response","188","319784","0.0-4.0-0.54","1","519.0699999802746","","","","Images/NewTrialBC.png","37"
"image-keyboard-response","189","320041","0.0-4.0-1.54","1","null","","","","Images/BlackBeadChoice.png","null"
"image-keyboard-response","190","320545","0.0-4.0-2.54","1","null","","","","Images/BlackBeadChoiceWrong.png","null"
"image-keyboard-response","191","321165","0.0-4.0-0.55","1","617.7599999937229","","","","Images/NewTrialWC.png","37"
"image-keyboard-response","192","321420","0.0-4.0-1.55","1","null","","","","Images/BlackBeadChoice.png","null"
"image-keyboard-response","193","321925","0.0-4.0-2.55","1","null","","","","Images/BlackBeadChoiceCorrect.png","null"
"image-keyboard-response","194","322559","0.0-4.0-0.56","1","633.0650000018068","","","","Images/NewTrialBC.png","37"
"image-keyboard-response","195","322816","0.0-4.0-1.56","1","null","","","","Images/BlackBeadChoice.png","null"
"image-keyboard-response","196","323322","0.0-4.0-2.56","1","null","","","","Images/BlackBeadChoiceWrong.png","null"
"image-keyboard-response","197","324457","0.0-4.0-0.57","1","1133.4050000295974","","","","Images/NewTrialWC.png","37"
"image-keyboard-response","198","324708","0.0-4.0-1.57","1","null","","","","Images/BlackBeadChoice.png","null"
"image-keyboard-response","199","325215","0.0-4.0-2.57","1","null","","","","Images/BlackBeadChoiceWrong.png","null"
"image-keyboard-response","200","326026","0.0-4.0-0.58","1","809.8950000130571","","","","Images/NewTrialWC.png","39"
"image-keyboard-response","201","326282","0.0-4.0-1.58","1","null","","","","Images/WhiteBeadChoice.png","null"
"image-keyboard-response","202","326787","0.0-4.0-2.58","1","null","","","","Images/WhiteBeadChoiceCorrect.png","null"
"image-keyboard-response","203","327512","0.0-4.0-0.59","1","724.2850000038743","","","","Images/NewTrialWC.png","39"
"image-keyboard-response","204","327766","0.0-4.0-1.59","1","null","","","","Images/WhiteBeadChoice.png","null"
"image-keyboard-response","205","328270","0.0-4.0-2.59","1","null","","","","Images/WhiteBeadChoiceCorrect.png","null"
"image-keyboard-response","206","329019","0.0-4.0-0.60","1","747.2299999790266","","","","Images/NewTrialWC.png","39"
"image-keyboard-response","207","329275","0.0-4.0-1.60","1","null","","","","Images/WhiteBeadChoice.png","null"
"image-keyboard-response","208","329782","0.0-4.0-2.60","1","null","","","","Images/WhiteBeadChoiceCorrect.png","null"
"image-keyboard-response","209","331822","0.0-4.0-0.61","1","2038.4099999791943","","","","Images/NewTrialWC.png","39"
"image-keyboard-response","210","332078","0.0-4.0-1.61","1","null","","","","Images/WhiteBeadChoice.png","null"
"image-keyboard-response","211","332582","0.0-4.0-2.61","1","null","","","","Images/WhiteBeadChoiceCorrect.png","null"
"image-keyboard-response","212","333331","0.0-4.0-0.62","1","747.3250000039116","","","","Images/NewTrialWC.png","39"
"image-keyboard-response","213","333583","0.0-4.0-1.62","1","null","","","","Images/WhiteBeadChoice.png","null"
"image-keyboard-response","214","334089","0.0-4.0-2.62","1","null","","","","Images/WhiteBeadChoiceCorrect.png","null"
"image-keyboard-response","215","337165","0.0-4.0-0.63","1","3074.7599999886006","","","","Images/NewTrialWC.png","39"
"image-keyboard-response","216","337421","0.0-4.0-1.63","1","null","","","","Images/WhiteBeadChoice.png","null"
"image-keyboard-response","217","337927","0.0-4.0-2.63","1","null","","","","Images/WhiteBeadChoiceCorrect.png","null"
"image-keyboard-response","218","340574","0.0-4.0-0.64","1","2645.215000025928","","","","Images/NewTrialWC.png","39"
"image-keyboard-response","219","340830","0.0-4.0-1.64","1","null","","","","Images/WhiteBeadChoice.png","null"
"image-keyboard-response","220","341337","0.0-4.0-2.64","1","null","","","","Images/WhiteBeadChoiceWrong.png","null"
"image-keyboard-response","221","369366","0.0-4.0-0.65","1","28027.000000001863","","","","Images/NewTrialBC.png","37"
"image-keyboard-response","222","369622","0.0-4.0-1.65","1","null","","","","Images/BlackBeadChoice.png","null"
"image-keyboard-response","223","370127","0.0-4.0-2.65","1","null","","","","Images/BlackBeadChoiceWrong.png","null"
"image-keyboard-response","224","370586","0.0-4.0-0.66","1","457.17000000877306","","","","Images/NewTrialWC.png","37"
"image-keyboard-response","225","370842","0.0-4.0-1.66","1","null","","","","Images/BlackBeadChoice.png","null"
"image-keyboard-response","226","371347","0.0-4.0-2.66","1","null","","","","Images/BlackBeadChoiceWrong.png","null"
"image-keyboard-response","227","371716","0.0-4.0-0.67","1","367.78500000946224","","","","Images/NewTrialWC.png","39"
"image-keyboard-response","228","371972","0.0-4.0-1.67","1","null","","","","Images/WhiteBeadChoice.png","null"
"image-keyboard-response","229","372474","0.0-4.0-2.67","1","null","","","","Images/WhiteBeadChoiceCorrect.png","null"
"image-keyboard-response","230","372812","0.0-4.0-0.68","1","336.379999993369","","","","Images/NewTrialWC.png","39"
"image-keyboard-response","231","373067","0.0-4.0-1.68","1","null","","","","Images/WhiteBeadChoice.png","null"
"image-keyboard-response","232","373570","0.0-4.0-2.68","1","null","","","","Images/WhiteBeadChoiceCorrect.png","null"
"image-keyboard-response","233","373972","0.0-4.0-0.69","1","400.67500004079193","","","","Images/NewTrialWC.png","39"
"image-keyboard-response","234","374228","0.0-4.0-1.69","1","null","","","","Images/WhiteBeadChoice.png","null"
"image-keyboard-response","235","374735","0.0-4.0-2.69","1","null","","","","Images/WhiteBeadChoiceCorrect.png","null"
"image-keyboard-response","236","375108","0.0-4.0-0.70","1","371.5199999860488","","","","Images/NewTrialWC.png","39"
"image-keyboard-response","237","375364","0.0-4.0-1.70","1","null","","","","Images/WhiteBeadChoice.png","null"
"image-keyboard-response","238","375871","0.0-4.0-2.70","1","null","","","","Images/WhiteBeadChoiceCorrect.png","null"
"image-keyboard-response","239","376226","0.0-4.0-0.71","1","353.415000019595","","","","Images/NewTrialWC.png","39"
"image-keyboard-response","240","376482","0.0-4.0-1.71","1","null","","","","Images/WhiteBeadChoice.png","null"
"image-keyboard-response","241","376987","0.0-4.0-2.71","1","null","","","","Images/WhiteBeadChoiceCorrect.png","null"
"image-keyboard-response","242","377343","0.0-4.0-0.72","1","354.04499998549","","","","Images/NewTrialWC.png","39"
"image-keyboard-response","243","377595","0.0-4.0-1.72","1","null","","","","Images/WhiteBeadChoice.png","null"
"image-keyboard-response","244","378102","0.0-4.0-2.72","1","null","","","","Images/WhiteBeadChoiceCorrect.png","null"
"image-keyboard-response","245","378502","0.0-4.0-0.73","1","398.4550000168383","","","","Images/NewTrialWC.png","39"
"image-keyboard-response","246","378758","0.0-4.0-1.73","1","null","","","","Images/WhiteBeadChoice.png","null"
"image-keyboard-response","247","379265","0.0-4.0-2.73","1","null","","","","Images/WhiteBeadChoiceCorrect.png","null"
"image-keyboard-response","248","379664","0.0-4.0-0.74","1","397.38500001840293","","","","Images/NewTrialWC.png","39"
"image-keyboard-response","249","379918","0.0-4.0-1.74","1","null","","","","Images/WhiteBeadChoice.png","null"
"image-keyboard-response","250","380424","0.0-4.0-2.74","1","null","","","","Images/WhiteBeadChoiceCorrect.png","null"
"image-keyboard-response","251","380767","0.0-4.0-0.75","1","340.9150000079535","","","","Images/NewTrialWC.png","39"
"image-keyboard-response","252","381023","0.0-4.0-1.75","1","null","","","","Images/WhiteBeadChoice.png","null"
"image-keyboard-response","253","381530","0.0-4.0-2.75","1","null","","","","Images/WhiteBeadChoiceWrong.png","null"
"image-keyboard-response","254","381967","0.0-4.0-0.76","1","435.8549999888055","","","","Images/NewTrialBC.png","39"
"image-keyboard-response","255","382220","0.0-4.0-1.76","1","null","","","","Images/WhiteBeadChoice.png","null"
"image-keyboard-response","256","382725","0.0-4.0-2.76","1","null","","","","Images/WhiteBeadChoiceCorrect.png","null"
"image-keyboard-response","257","383107","0.0-4.0-0.77","1","379.819999972824","","","","Images/NewTrialWC.png","39"
"image-keyboard-response","258","383361","0.0-4.0-1.77","1","null","","","","Images/WhiteBeadChoice.png","null"
"image-keyboard-response","259","383868","0.0-4.0-2.77","1","null","","","","Images/WhiteBeadChoiceCorrect.png","null"
"image-keyboard-response","260","384267","0.0-4.0-0.78","1","397.8149999747984","","","","Images/NewTrialWC.png","39"
"image-keyboard-response","261","384523","0.0-4.0-1.78","1","null","","","","Images/WhiteBeadChoice.png","null"
"image-keyboard-response","262","385030","0.0-4.0-2.78","1","null","","","","Images/WhiteBeadChoiceWrong.png","null"
"image-keyboard-response","263","385432","0.0-4.0-0.79","1","400.6449999869801","","","","Images/NewTrialBC.png","39"
"image-keyboard-response","264","385688","0.0-4.0-1.79","1","null","","","","Images/WhiteBeadChoice.png","null"
"image-keyboard-response","265","386195","0.0-4.0-2.79","1","null","","","","Images/WhiteBeadChoiceWrong.png","null"
"image-keyboard-response","266","386606","0.0-4.0-0.80","1","409.8750000121072","","","","Images/NewTrialBC.png","37"
"image-keyboard-response","267","386861","0.0-4.0-1.80","1","null","","","","Images/BlackBeadChoice.png","null"
"image-keyboard-response","268","387367","0.0-4.0-2.80","1","null","","","","Images/BlackBeadChoiceWrong.png","null"
"image-keyboard-response","269","388072","0.0-4.0-0.81","1","703.8600000087172","","","","Images/NewTrialWC.png","37"
"image-keyboard-response","270","388327","0.0-4.0-1.81","1","null","","","","Images/BlackBeadChoice.png","null"
"image-keyboard-response","271","388829","0.0-4.0-2.81","1","null","","","","Images/BlackBeadChoiceCorrect.png","null"
"image-keyboard-response","272","389265","0.0-4.0-0.82","1","434.77499997243285","","","","Images/NewTrialBC.png","37"
"image-keyboard-response","273","389517","0.0-4.0-1.82","1","null","","","","Images/BlackBeadChoice.png","null"
"image-keyboard-response","274","390023","0.0-4.0-2.82","1","null","","","","Images/BlackBeadChoiceWrong.png","null"
"image-keyboard-response","275","391024","0.0-4.0-0.83","1","999.0600000019185","","","","Images/NewTrialWC.png","37"
"image-keyboard-response","276","391280","0.0-4.0-1.83","1","null","","","","Images/BlackBeadChoice.png","null"
"image-keyboard-response","277","391787","0.0-4.0-2.83","1","null","","","","Images/BlackBeadChoiceCorrect.png","null"
"image-keyboard-response","278","392306","0.0-4.0-0.84","1","517.8149999701418","","","","Images/NewTrialBC.png","37"
"image-keyboard-response","279","392558","0.0-4.0-1.84","1","null","","","","Images/BlackBeadChoice.png","null"
"image-keyboard-response","280","393061","0.0-4.0-2.84","1","null","","","","Images/BlackBeadChoiceCorrect.png","null"
"image-keyboard-response","281","393483","0.0-4.0-0.85","1","419.8299999698065","","","","Images/NewTrialBC.png","37"
"image-keyboard-response","282","393739","0.0-4.0-1.85","1","null","","","","Images/BlackBeadChoice.png","null"
"image-keyboard-response","283","394245","0.0-4.0-2.85","1","null","","","","Images/BlackBeadChoiceCorrect.png","null"
"image-keyboard-response","284","394774","0.0-4.0-0.86","1","528.4049999900162","","","","Images/NewTrialBC.png","37"
"image-keyboard-response","285","395031","0.0-4.0-1.86","1","null","","","","Images/BlackBeadChoice.png","null"
"image-keyboard-response","286","395535","0.0-4.0-2.86","1","null","","","","Images/BlackBeadChoiceCorrect.png","null"
"image-keyboard-response","287","395958","0.0-4.0-0.87","1","420.77500000596046","","","","Images/NewTrialBC.png","37"
"image-keyboard-response","288","396214","0.0-4.0-1.87","1","null","","","","Images/BlackBeadChoice.png","null"
"image-keyboard-response","289","396720","0.0-4.0-2.87","1","null","","","","Images/BlackBeadChoiceCorrect.png","null"
"image-keyboard-response","290","397082","0.0-4.0-0.88","1","359.86999998567626","","","","Images/NewTrialBC.png","37"
"image-keyboard-response","291","397336","0.0-4.0-1.88","1","null","","","","Images/BlackBeadChoice.png","null"
"image-keyboard-response","292","397842","0.0-4.0-2.88","1","null","","","","Images/BlackBeadChoiceCorrect.png","null"
"image-keyboard-response","293","398151","0.0-4.0-0.89","1","306.73499999102205","","","","Images/NewTrialBC.png","37"
"image-keyboard-response","294","398407","0.0-4.0-1.89","1","null","","","","Images/BlackBeadChoice.png","null"
"image-keyboard-response","295","398913","0.0-4.0-2.89","1","null","","","","Images/BlackBeadChoiceWrong.png","null"
"image-keyboard-response","296","400037","0.0-4.0-0.90","1","1122.0049999537878","","","","Images/NewTrialWC.png","37"
"image-keyboard-response","297","400290","0.0-4.0-1.90","1","null","","","","Images/BlackBeadChoice.png","null"
"image-keyboard-response","298","400796","0.0-4.0-2.90","1","null","","","","Images/BlackBeadChoiceCorrect.png","null"
"image-keyboard-response","299","401225","0.0-4.0-0.91","1","427.3699999903329","","","","Images/NewTrialBC.png","37"
"image-keyboard-response","300","401478","0.0-4.0-1.91","1","null","","","","Images/BlackBeadChoice.png","null"
"image-keyboard-response","301","401983","0.0-4.0-2.91","1","null","","","","Images/BlackBeadChoiceCorrect.png","null"
"image-keyboard-response","302","402358","0.0-4.0-0.92","1","373.51000000489876","","","","Images/NewTrialBC.png","37"
"image-keyboard-response","303","402614","0.0-4.0-1.92","1","null","","","","Images/BlackBeadChoice.png","null"
"image-keyboard-response","304","403121","0.0-4.0-2.92","1","null","","","","Images/BlackBeadChoiceCorrect.png","null"
"image-keyboard-response","305","403489","0.0-4.0-0.93","1","366.82000005384907","","","","Images/NewTrialBC.png","37"
"image-keyboard-response","306","403745","0.0-4.0-1.93","1","null","","","","Images/BlackBeadChoice.png","null"
"image-keyboard-response","307","404252","0.0-4.0-2.93","1","null","","","","Images/BlackBeadChoiceWrong.png","null"
"image-keyboard-response","308","405049","0.0-4.0-0.94","1","795.6700000213459","","","","Images/NewTrialWC.png","39"
"image-keyboard-response","309","405307","0.0-4.0-1.94","1","null","","","","Images/WhiteBeadChoice.png","null"
"image-keyboard-response","310","405814","0.0-4.0-2.94","1","null","","","","Images/WhiteBeadChoiceWrong.png","null"
"image-keyboard-response","311","406240","0.0-4.0-0.95","1","424.39500003820285","","","","Images/NewTrialBC.png","37"
"image-keyboard-response","312","406493","0.0-4.0-1.95","1","null","","","","Images/BlackBeadChoice.png","null"
"image-keyboard-response","313","407000","0.0-4.0-2.95","1","null","","","","Images/BlackBeadChoiceCorrect.png","null"
"image-keyboard-response","314","407350","0.0-4.0-0.96","1","349.0650000167079","","","","Images/NewTrialBC.png","37"
"image-keyboard-response","315","407607","0.0-4.0-1.96","1","null","","","","Images/BlackBeadChoice.png","null"
"image-keyboard-response","316","408113","0.0-4.0-2.96","1","null","","","","Images/BlackBeadChoiceWrong.png","null"
"image-keyboard-response","317","408730","0.0-4.0-0.97","1","614.9399999994785","","","","Images/NewTrialWC.png","37"
"image-keyboard-response","318","408986","0.0-4.0-1.97","1","null","","","","Images/BlackBeadChoice.png","null"
"image-keyboard-response","319","409493","0.0-4.0-2.97","1","null","","","","Images/BlackBeadChoiceWrong.png","null"
"image-keyboard-response","320","409863","0.0-4.0-0.98","1","368.54500003391877","","","","Images/NewTrialWC.png","39"
"image-keyboard-response","321","410115","0.0-4.0-1.98","1","null","","","","Images/WhiteBeadChoice.png","null"
"image-keyboard-response","322","410618","0.0-4.0-2.98","1","null","","","","Images/WhiteBeadChoiceCorrect.png","null"
"image-keyboard-response","323","410989","0.0-4.0-0.99","1","368.990000046324","","","","Images/NewTrialWC.png","39"
"image-keyboard-response","324","411242","0.0-4.0-1.99","1","null","","","","Images/WhiteBeadChoice.png","null"
"image-keyboard-response","325","411749","0.0-4.0-2.99","1","null","","","","Images/WhiteBeadChoiceCorrect.png","null"
"image-keyboard-response","326","412086","0.0-4.0-0.100","1","335.9949999721721","","","","Images/NewTrialWC.png","39"
"image-keyboard-response","327","412340","0.0-4.0-1.100","1","null","","","","Images/WhiteBeadChoice.png","null"
"image-keyboard-response","328","412843","0.0-4.0-2.100","1","null","","","","Images/WhiteBeadChoiceCorrect.png","null"
"image-keyboard-response","329","413244","0.0-4.0-0.101","1","398.9850000361912","","","","Images/NewTrialWC.png","39"
"image-keyboard-response","330","413500","0.0-4.0-1.101","1","null","","","","Images/WhiteBeadChoice.png","null"
"image-keyboard-response","331","414006","0.0-4.0-2.101","1","null","","","","Images/WhiteBeadChoiceCorrect.png","null"
"image-keyboard-response","332","414370","0.0-4.0-0.102","1","362.6899999799207","","","","Images/NewTrialWC.png","39"
"image-keyboard-response","333","414627","0.0-4.0-1.102","1","null","","","","Images/WhiteBeadChoice.png","null"
"image-keyboard-response","334","415129","0.0-4.0-2.102","1","null","","","","Images/WhiteBeadChoiceWrong.png","null"
"image-keyboard-response","335","415921","0.0-4.0-0.103","1","790.1849999907427","","","","Images/NewTrialBC.png","39"
"image-keyboard-response","336","416177","0.0-4.0-1.103","1","null","","","","Images/WhiteBeadChoice.png","null"
"image-keyboard-response","337","416679","0.0-4.0-2.103","1","null","","","","Images/WhiteBeadChoiceWrong.png","null"
"image-keyboard-response","338","417981","0.0-4.0-0.104","1","1300.9599999641068","","","","Images/NewTrialBC.png","37"
"image-keyboard-response","339","418233","0.0-4.0-1.104","1","null","","","","Images/BlackBeadChoice.png","null"
"image-keyboard-response","340","418738","0.0-4.0-2.104","1","null","","","","Images/BlackBeadChoiceWrong.png","null"
"image-keyboard-response","341","419274","0.0-4.0-0.105","1","534.4149999436922","","","","Images/NewTrialWC.png","37"
"image-keyboard-response","342","419531","0.0-4.0-1.105","1","null","","","","Images/BlackBeadChoice.png","null"
"image-keyboard-response","343","420036","0.0-4.0-2.105","1","null","","","","Images/BlackBeadChoiceWrong.png","null"
"image-keyboard-response","344","420561","0.0-4.0-0.106","1","523.5099999699742","","","","Images/NewTrialWC.png","37"
"image-keyboard-response","345","420815","0.0-4.0-1.106","1","null","","","","Images/BlackBeadChoice.png","null"
"image-keyboard-response","346","421321","0.0-4.0-2.106","1","null","","","","Images/BlackBeadChoiceWrong.png","null"
"image-keyboard-response","347","421906","0.0-4.0-0.107","1","583.234999969136","","","","Images/NewTrialWC.png","39"
"image-keyboard-response","348","422159","0.0-4.0-1.107","1","null","","","","Images/WhiteBeadChoice.png","null"
"image-keyboard-response","349","422663","0.0-4.0-2.107","1","null","","","","Images/WhiteBeadChoiceCorrect.png","null"
"image-keyboard-response","350","423043","0.0-4.0-0.108","1","378.4400000004098","","","","Images/NewTrialWC.png","39"
"image-keyboard-response","351","423299","0.0-4.0-1.108","1","null","","","","Images/WhiteBeadChoice.png","null"
"image-keyboard-response","352","423806","0.0-4.0-2.108","1","null","","","","Images/WhiteBeadChoiceCorrect.png","null"
"image-keyboard-response","353","424212","0.0-4.0-0.109","1","404.0949999471195","","","","Images/NewTrialWC.png","39"
"image-keyboard-response","354","424469","0.0-4.0-1.109","1","null","","","","Images/WhiteBeadChoice.png","null"
"image-keyboard-response","355","424975","0.0-4.0-2.109","1","null","","","","Images/WhiteBeadChoiceCorrect.png","null"
"image-keyboard-response","356","425358","0.0-4.0-0.110","1","380.5999999749474","","","","Images/NewTrialWC.png","39"
"image-keyboard-response","357","425614","0.0-4.0-1.110","1","null","","","","Images/WhiteBeadChoice.png","null"
"image-keyboard-response","358","426120","0.0-4.0-2.110","1","null","","","","Images/WhiteBeadChoiceCorrect.png","null"
"image-keyboard-response","359","426583","0.0-4.0-0.111","1","460.72999999159947","","","","Images/NewTrialWC.png","39"
"image-keyboard-response","360","426839","0.0-4.0-1.111","1","null","","","","Images/WhiteBeadChoice.png","null"
"image-keyboard-response","361","427345","0.0-4.0-2.111","1","null","","","","Images/WhiteBeadChoiceCorrect.png","null"
"image-keyboard-response","362","427782","0.0-4.0-0.112","1","434.7750000306405","","","","Images/NewTrialWC.png","39"
"image-keyboard-response","363","428038","0.0-4.0-1.112","1","null","","","","Images/WhiteBeadChoice.png","null"
"image-keyboard-response","364","428545","0.0-4.0-2.112","1","null","","","","Images/WhiteBeadChoiceCorrect.png","null"
"image-keyboard-response","365","428989","0.0-4.0-0.113","1","442.8450000123121","","","","Images/NewTrialWC.png","39"
"image-keyboard-response","366","429245","0.0-4.0-1.113","1","null","","","","Images/WhiteBeadChoice.png","null"
"image-keyboard-response","367","429752","0.0-4.0-2.113","1","null","","","","Images/WhiteBeadChoiceCorrect.png","null"
"image-keyboard-response","368","430135","0.0-4.0-0.114","1","381.5349999931641","","","","Images/NewTrialWC.png","39"
"image-keyboard-response","369","430387","0.0-4.0-1.114","1","null","","","","Images/WhiteBeadChoice.png","null"
"image-keyboard-response","370","430890","0.0-4.0-2.114","1","null","","","","Images/WhiteBeadChoiceWrong.png","null"
"image-keyboard-response","371","431854","0.0-4.0-0.115","1","962.7949999994598","","","","Images/NewTrialBC.png","37"
"image-keyboard-response","372","432110","0.0-4.0-1.115","1","null","","","","Images/BlackBeadChoice.png","null"
"image-keyboard-response","373","432617","0.0-4.0-2.115","1","null","","","","Images/BlackBeadChoiceWrong.png","null"
"image-keyboard-response","374","434298","0.0-4.0-0.116","1","1679.885000048671","","","","Images/NewTrialWC.png","39"
"image-keyboard-response","375","434554","0.0-4.0-1.116","1","null","","","","Images/WhiteBeadChoice.png","null"
"image-keyboard-response","376","435058","0.0-4.0-2.116","1","null","","","","Images/WhiteBeadChoiceCorrect.png","null"
"image-keyboard-response","377","435376","0.0-4.0-0.117","1","316.48000003769994","","","","Images/NewTrialWC.png","39"
"image-keyboard-response","378","435630","0.0-4.0-1.117","1","null","","","","Images/WhiteBeadChoice.png","null"
"image-keyboard-response","379","436136","0.0-4.0-2.117","1","null","","","","Images/WhiteBeadChoiceCorrect.png","null"
"image-keyboard-response","380","436505","0.0-4.0-0.118","1","366.51500000152737","","","","Images/NewTrialWC.png","39"
"image-keyboard-response","381","436760","0.0-4.0-1.118","1","null","","","","Images/WhiteBeadChoice.png","null"
"image-keyboard-response","382","437267","0.0-4.0-2.118","1","null","","","","Images/WhiteBeadChoiceWrong.png","null"
"image-keyboard-response","383","438175","0.0-4.0-0.119","1","906.3249999890104","","","","Images/NewTrialBC.png","37"
"image-keyboard-response","384","438431","0.0-4.0-1.119","1","null","","","","Images/BlackBeadChoice.png","null"
"image-keyboard-response","385","438933","0.0-4.0-2.119","1","null","","","","Images/BlackBeadChoiceWrong.png","null"
"image-keyboard-response","386","439524","0.0-4.0-0.120","1","588.9899999601766","","","","Images/NewTrialWC.png","37"
"image-keyboard-response","387","439776","0.0-4.0-1.120","1","null","","","","Images/BlackBeadChoice.png","null"
"image-keyboard-response","388","440283","0.0-4.0-2.120","1","null","","","","Images/BlackBeadChoiceCorrect.png","null"
"image-keyboard-response","389","440550","0.0-4.0-0.121","1","265.59500000439584","","","","Images/NewTrialBC.png","37"
"image-keyboard-response","390","440802","0.0-4.0-1.121","1","null","","","","Images/BlackBeadChoice.png","null"
"image-keyboard-response","391","441309","0.0-4.0-2.121","1","null","","","","Images/BlackBeadChoiceCorrect.png","null"
"image-keyboard-response","392","441700","0.0-4.0-0.122","1","389.3699999898672","","","","Images/NewTrialBC.png","37"
"image-keyboard-response","393","441954","0.0-4.0-1.122","1","null","","","","Images/BlackBeadChoice.png","null"
"image-keyboard-response","394","442461","0.0-4.0-2.122","1","null","","","","Images/BlackBeadChoiceCorrect.png","null"
"image-keyboard-response","395","442916","0.0-4.0-0.123","1","454.3249999987893","","","","Images/NewTrialBC.png","37"
"image-keyboard-response","396","443172","0.0-4.0-1.123","1","null","","","","Images/BlackBeadChoice.png","null"
"image-keyboard-response","397","443678","0.0-4.0-2.123","1","null","","","","Images/BlackBeadChoiceCorrect.png","null"
"image-keyboard-response","398","444012","0.0-4.0-0.124","1","331.89000003039837","","","","Images/NewTrialBC.png","37"
"image-keyboard-response","399","444268","0.0-4.0-1.124","1","null","","","","Images/BlackBeadChoice.png","null"
"image-keyboard-response","400","444771","0.0-4.0-2.124","1","null","","","","Images/BlackBeadChoiceCorrect.png","null"
"image-keyboard-response","401","445028","0.0-4.0-0.125","1","255.23000000976026","","","","Images/NewTrialBC.png","37"
"image-keyboard-response","402","445285","0.0-4.0-1.125","1","null","","","","Images/BlackBeadChoice.png","null"
"image-keyboard-response","403","445791","0.0-4.0-2.125","1","null","","","","Images/BlackBeadChoiceCorrect.png","null"
"image-keyboard-response","404","446196","0.0-4.0-0.126","1","402.8650000109337","","","","Images/NewTrialBC.png","37"
"image-keyboard-response","405","446450","0.0-4.0-1.126","1","null","","","","Images/BlackBeadChoice.png","null"
"image-keyboard-response","406","446953","0.0-4.0-2.126","1","null","","","","Images/BlackBeadChoiceCorrect.png","null"
"image-keyboard-response","407","447442","0.0-4.0-0.127","1","486.9850000250153","","","","Images/NewTrialBC.png","37"
"image-keyboard-response","408","447698","0.0-4.0-1.127","1","null","","","","Images/BlackBeadChoice.png","null"
"image-keyboard-response","409","448204","0.0-4.0-2.127","1","null","","","","Images/BlackBeadChoiceCorrect.png","null"
"image-keyboard-response","410","448629","0.0-4.0-0.128","1","423.43999998411164","","","","Images/NewTrialBC.png","37"
"image-keyboard-response","411","448886","0.0-4.0-1.128","1","null","","","","Images/BlackBeadChoice.png","null"
"image-keyboard-response","412","449392","0.0-4.0-2.128","1","null","","","","Images/BlackBeadChoiceCorrect.png","null"
"image-keyboard-response","413","449760","0.0-4.0-0.129","1","366.6300000040792","","","","Images/NewTrialBC.png","37"
"image-keyboard-response","414","450017","0.0-4.0-1.129","1","null","","","","Images/BlackBeadChoice.png","null"
"image-keyboard-response","415","450524","0.0-4.0-2.129","1","null","","","","Images/BlackBeadChoiceCorrect.png","null"
"image-keyboard-response","416","450875","0.0-4.0-0.130","1","350.3500000224449","","","","Images/NewTrialBC.png","37"
"image-keyboard-response","417","451132","0.0-4.0-1.130","1","null","","","","Images/BlackBeadChoice.png","null"
"image-keyboard-response","418","451638","0.0-4.0-2.130","1","null","","","","Images/BlackBeadChoiceCorrect.png","null"
"image-keyboard-response","419","452077","0.0-4.0-0.131","1","436.7150000180118","","","","Images/NewTrialBC.png","37"
"image-keyboard-response","420","452328","0.0-4.0-1.131","1","null","","","","Images/BlackBeadChoice.png","null"
"image-keyboard-response","421","452833","0.0-4.0-2.131","1","null","","","","Images/BlackBeadChoiceCorrect.png","null"
"image-keyboard-response","422","453209","0.0-4.0-0.132","1","375.41999999666587","","","","Images/NewTrialBC.png","37"
"image-keyboard-response","423","453466","0.0-4.0-1.132","1","null","","","","Images/BlackBeadChoice.png","null"
"image-keyboard-response","424","453972","0.0-4.0-2.132","1","null","","","","Images/BlackBeadChoiceCorrect.png","null"
"image-keyboard-response","425","454313","0.0-4.0-0.133","1","339.3900000373833","","","","Images/NewTrialBC.png","37"
"image-keyboard-response","426","454570","0.0-4.0-1.133","1","null","","","","Images/BlackBeadChoice.png","null"
"image-keyboard-response","427","455076","0.0-4.0-2.133","1","null","","","","Images/BlackBeadChoiceCorrect.png","null"
"image-keyboard-response","428","455438","0.0-4.0-0.134","1","360.04500003764406","","","","Images/NewTrialBC.png","37"
"image-keyboard-response","429","455692","0.0-4.0-1.134","1","null","","","","Images/BlackBeadChoice.png","null"
"image-keyboard-response","430","456198","0.0-4.0-2.134","1","null","","","","Images/BlackBeadChoiceWrong.png","null"
"image-keyboard-response","431","456589","0.0-4.0-0.135","1","389.45500005502254","","","","Images/NewTrialWC.png","37"
"image-keyboard-response","432","456846","0.0-4.0-1.135","1","null","","","","Images/BlackBeadChoice.png","null"
"image-keyboard-response","433","457352","0.0-4.0-2.135","1","null","","","","Images/BlackBeadChoiceWrong.png","null"
"image-keyboard-response","434","457709","0.0-4.0-0.136","1","355.77500000363216","","","","Images/NewTrialWC.png","39"
"image-keyboard-response","435","457961","0.0-4.0-1.136","1","null","","","","Images/WhiteBeadChoice.png","null"
"image-keyboard-response","436","458465","0.0-4.0-2.136","1","null","","","","Images/WhiteBeadChoiceCorrect.png","null"
"image-keyboard-response","437","458919","0.0-4.0-0.137","1","451.9900000304915","","","","Images/NewTrialWC.png","39"
"image-keyboard-response","438","459175","0.0-4.0-1.137","1","null","","","","Images/WhiteBeadChoice.png","null"
"image-keyboard-response","439","459682","0.0-4.0-2.137","1","null","","","","Images/WhiteBeadChoiceCorrect.png","null"
"image-keyboard-response","440","460107","0.0-4.0-0.138","1","423.49499999545515","","","","Images/NewTrialWC.png","39"
"image-keyboard-response","441","460363","0.0-4.0-1.138","1","null","","","","Images/WhiteBeadChoice.png","null"
"image-keyboard-response","442","460869","0.0-4.0-2.138","1","null","","","","Images/WhiteBeadChoiceCorrect.png","null"
"image-keyboard-response","443","461222","0.0-4.0-0.139","1","351.8099999637343","","","","Images/NewTrialWC.png","39"
"image-keyboard-response","444","461479","0.0-4.0-1.139","1","null","","","","Images/WhiteBeadChoice.png","null"
"image-keyboard-response","445","461985","0.0-4.0-2.139","1","null","","","","Images/WhiteBeadChoiceCorrect.png","null"
"image-keyboard-response","446","462320","0.0-4.0-0.140","1","333.4500000346452","","","","Images/NewTrialWC.png","39"
"image-keyboard-response","447","462576","0.0-4.0-1.140","1","null","","","","Images/WhiteBeadChoice.png","null"
"image-keyboard-response","448","463083","0.0-4.0-2.140","1","null","","","","Images/WhiteBeadChoiceCorrect.png","null"
"image-keyboard-response","449","463534","0.0-4.0-0.141","1","449.91500000469387","","","","Images/NewTrialWC.png","39"
"image-keyboard-response","450","463789","0.0-4.0-1.141","1","null","","","","Images/WhiteBeadChoice.png","null"
"image-keyboard-response","451","464293","0.0-4.0-2.141","1","null","","","","Images/WhiteBeadChoiceCorrect.png","null"
"image-keyboard-response","452","464719","0.0-4.0-0.142","1","425.4450000007637","","","","Images/NewTrialWC.png","39"
"image-keyboard-response","453","464973","0.0-4.0-1.142","1","null","","","","Images/WhiteBeadChoice.png","null"
"image-keyboard-response","454","465480","0.0-4.0-2.142","1","null","","","","Images/WhiteBeadChoiceCorrect.png","null"
"image-keyboard-response","455","465846","0.0-4.0-0.143","1","364.6599999628961","","","","Images/NewTrialWC.png","39"
"image-keyboard-response","456","466102","0.0-4.0-1.143","1","null","","","","Images/WhiteBeadChoice.png","null"
"image-keyboard-response","457","466609","0.0-4.0-2.143","1","null","","","","Images/WhiteBeadChoiceCorrect.png","null"
"image-keyboard-response","458","466967","0.0-4.0-0.144","1","356.38499999186024","","","","Images/NewTrialWC.png","39"
"image-keyboard-response","459","467223","0.0-4.0-1.144","1","null","","","","Images/WhiteBeadChoice.png","null"
"image-keyboard-response","460","467725","0.0-4.0-2.144","1","null","","","","Images/WhiteBeadChoiceCorrect.png","null"
"image-keyboard-response","461","468107","0.0-4.0-0.145","1","380.8500000159256","","","","Images/NewTrialWC.png","39"
"image-keyboard-response","462","468364","0.0-4.0-1.145","1","null","","","","Images/WhiteBeadChoice.png","null"
"image-keyboard-response","463","468870","0.0-4.0-2.145","1","null","","","","Images/WhiteBeadChoiceCorrect.png","null"
"image-keyboard-response","464","469300","0.0-4.0-0.146","1","428.56999998912215","","","","Images/NewTrialWC.png","39"
"image-keyboard-response","465","469552","0.0-4.0-1.146","1","null","","","","Images/WhiteBeadChoice.png","null"
"image-keyboard-response","466","470058","0.0-4.0-2.146","1","null","","","","Images/WhiteBeadChoiceCorrect.png","null"
"image-keyboard-response","467","470416","0.0-4.0-0.147","1","356.3900000299327","","","","Images/NewTrialWC.png","39"
"image-keyboard-response","468","470672","0.0-4.0-1.147","1","null","","","","Images/WhiteBeadChoice.png","null"
"image-keyboard-response","469","471178","0.0-4.0-2.147","1","null","","","","Images/WhiteBeadChoiceCorrect.png","null"
"image-keyboard-response","470","471593","0.0-4.0-0.148","1","413.4900000062771","","","","Images/NewTrialWC.png","39"
"image-keyboard-response","471","471849","0.0-4.0-1.148","1","null","","","","Images/WhiteBeadChoice.png","null"
"image-keyboard-response","472","472356","0.0-4.0-2.148","1","null","","","","Images/WhiteBeadChoiceWrong.png","null"
"image-keyboard-response","473","472979","0.0-4.0-0.149","1","621.4650000329129","","","","Images/NewTrialBC.png","39"
"image-keyboard-response","474","473235","0.0-4.0-1.149","1","null","","","","Images/WhiteBeadChoice.png","null"
"image-keyboard-response","475","473741","0.0-4.0-2.149","1","null","","","","Images/WhiteBeadChoiceWrong.png","null"
"image-keyboard-response","476","474210","0.0-4.0-0.150","1","468.2100000209175","","","","Images/NewTrialBC.png","37"
"image-keyboard-response","477","474466","0.0-4.0-1.150","1","null","","","","Images/BlackBeadChoice.png","null"
"image-keyboard-response","478","474972","0.0-4.0-2.150","1","null","","","","Images/BlackBeadChoiceWrong.png","null"
"image-keyboard-response","479","475467","0.0-4.0-0.151","1","493.7349999672733","","","","Images/NewTrialWC.png","37"
"image-keyboard-response","480","475721","0.0-4.0-1.151","1","null","","","","Images/BlackBeadChoice.png","null"
"image-keyboard-response","481","476228","0.0-4.0-2.151","1","null","","","","Images/BlackBeadChoiceWrong.png","null"
"image-keyboard-response","482","476731","0.0-4.0-0.152","1","501.9800000009127","","","","Images/NewTrialWC.png","37"
"image-keyboard-response","483","476987","0.0-4.0-1.152","1","null","","","","Images/BlackBeadChoice.png","null"
"image-keyboard-response","484","477493","0.0-4.0-2.152","1","null","","","","Images/BlackBeadChoiceCorrect.png","null"
"image-keyboard-response","485","477887","0.0-4.0-0.153","1","392.50999997602776","","","","Images/NewTrialBC.png","37"
"image-keyboard-response","486","478143","0.0-4.0-1.153","1","null","","","","Images/BlackBeadChoice.png","null"
"image-keyboard-response","487","478648","0.0-4.0-2.153","1","null","","","","Images/BlackBeadChoiceWrong.png","null"
"image-keyboard-response","488","479293","0.0-4.0-0.154","1","643.8949999865144","","","","Images/NewTrialWC.png","39"
"image-keyboard-response","489","479550","0.0-4.0-1.154","1","null","","","","Images/WhiteBeadChoice.png","null"
"image-keyboard-response","490","480056","0.0-4.0-2.154","1","null","","","","Images/WhiteBeadChoiceCorrect.png","null"
"image-keyboard-response","491","480386","0.0-4.0-0.155","1","328.5150000010617","","","","Images/NewTrialWC.png","39"
"image-keyboard-response","492","480643","0.0-4.0-1.155","1","null","","","","Images/WhiteBeadChoice.png","null"
"image-keyboard-response","493","481149","0.0-4.0-2.155","1","null","","","","Images/WhiteBeadChoiceCorrect.png","null"
"image-keyboard-response","494","481504","0.0-4.0-0.156","1","353.52500004228204","","","","Images/NewTrialWC.png","39"
"image-keyboard-response","495","481756","0.0-4.0-1.156","1","null","","","","Images/WhiteBeadChoice.png","null"
"image-keyboard-response","496","482260","0.0-4.0-2.156","1","null","","","","Images/WhiteBeadChoiceCorrect.png","null"
"image-keyboard-response","497","482624","0.0-4.0-0.157","1","362.810000020545","","","","Images/NewTrialWC.png","39"
"image-keyboard-response","498","482881","0.0-4.0-1.157","1","null","","","","Images/WhiteBeadChoice.png","null"
"image-keyboard-response","499","483387","0.0-4.0-2.157","1","null","","","","Images/WhiteBeadChoiceCorrect.png","null"
"image-keyboard-response","500","483847","0.0-4.0-0.158","1","458.0100000021048","","","","Images/NewTrialWC.png","39"
"image-keyboard-response","501","484102","0.0-4.0-1.158","1","null","","","","Images/WhiteBeadChoice.png","null"
"image-keyboard-response","502","484609","0.0-4.0-2.158","1","null","","","","Images/WhiteBeadChoiceCorrect.png","null"
"image-keyboard-response","503","484927","0.0-4.0-0.159","1","316.5700000245124","","","","Images/NewTrialWC.png","39"
"image-keyboard-response","504","485184","0.0-4.0-1.159","1","null","","","","Images/WhiteBeadChoice.png","null"
"image-keyboard-response","505","485690","0.0-4.0-2.159","1","null","","","","Images/WhiteBeadChoiceCorrect.png","null"
"image-keyboard-response","506","486070","0.0-4.0-0.160","1","378.8200000417419","","","","Images/NewTrialWC.png","39"
"image-keyboard-response","507","486327","0.0-4.0-1.160","1","null","","","","Images/WhiteBeadChoice.png","null"
"image-keyboard-response","508","486834","0.0-4.0-2.160","1","null","","","","Images/WhiteBeadChoiceWrong.png","null"
"image-keyboard-response","509","487268","0.0-4.0-0.161","1","432.32000002171844","","","","Images/NewTrialBC.png","39"
"image-keyboard-response","510","487523","0.0-4.0-1.161","1","null","","","","Images/WhiteBeadChoice.png","null"
"image-keyboard-response","511","488027","0.0-4.0-2.161","1","null","","","","Images/WhiteBeadChoiceCorrect.png","null"
"image-keyboard-response","512","488362","0.0-4.0-0.162","1","333.4749999921769","","","","Images/NewTrialWC.png","39"
"image-keyboard-response","513","488619","0.0-4.0-1.162","1","null","","","","Images/WhiteBeadChoice.png","null"
"image-keyboard-response","514","489123","0.0-4.0-2.162","1","null","","","","Images/WhiteBeadChoiceCorrect.png","null"
"image-keyboard-response","515","489415","0.0-4.0-0.163","1","291.0649999976158","","","","Images/NewTrialWC.png","39"
"image-keyboard-response","516","489668","0.0-4.0-1.163","1","null","","","","Images/WhiteBeadChoice.png","null"
"image-keyboard-response","517","490174","0.0-4.0-2.163","1","null","","","","Images/WhiteBeadChoiceCorrect.png","null"
"image-keyboard-response","518","490537","0.0-4.0-0.164","1","361.39999999431893","","","","Images/NewTrialWC.png","39"
"image-keyboard-response","519","490793","0.0-4.0-1.164","1","null","","","","Images/WhiteBeadChoice.png","null"
"image-keyboard-response","520","491300","0.0-4.0-2.164","1","null","","","","Images/WhiteBeadChoiceCorrect.png","null"
"image-keyboard-response","521","491605","0.0-4.0-0.165","1","304.38499996671453","","","","Images/NewTrialWC.png","39"
"image-keyboard-response","522","491860","0.0-4.0-1.165","1","null","","","","Images/WhiteBeadChoice.png","null"
"image-keyboard-response","523","492364","0.0-4.0-2.165","1","null","","","","Images/WhiteBeadChoiceCorrect.png","null"
"image-keyboard-response","524","492722","0.0-4.0-0.166","1","356.9400000269525","","","","Images/NewTrialWC.png","39"
"image-keyboard-response","525","492975","0.0-4.0-1.166","1","null","","","","Images/WhiteBeadChoice.png","null"
"image-keyboard-response","526","493481","0.0-4.0-2.166","1","null","","","","Images/WhiteBeadChoiceCorrect.png","null"
"image-keyboard-response","527","493880","0.0-4.0-0.167","1","397.8050000150688","","","","Images/NewTrialWC.png","39"
"image-keyboard-response","528","494137","0.0-4.0-1.167","1","null","","","","Images/WhiteBeadChoice.png","null"
"image-keyboard-response","529","494639","0.0-4.0-2.167","1","null","","","","Images/WhiteBeadChoiceCorrect.png","null"
"image-keyboard-response","530","495032","0.0-4.0-0.168","1","392.214999999851","","","","Images/NewTrialWC.png","39"
"image-keyboard-response","531","495285","0.0-4.0-1.168","1","null","","","","Images/WhiteBeadChoice.png","null"
"image-keyboard-response","532","495791","0.0-4.0-2.168","1","null","","","","Images/WhiteBeadChoiceWrong.png","null"
"image-keyboard-response","533","497171","0.0-4.0-0.169","1","1377.875000005588","","","","Images/NewTrialBC.png","37"
"image-keyboard-response","534","497427","0.0-4.0-1.169","1","null","","","","Images/BlackBeadChoice.png","null"
"image-keyboard-response","535","497934","0.0-4.0-2.169","1","null","","","","Images/BlackBeadChoiceWrong.png","null"
"image-keyboard-response","536","498290","0.0-4.0-0.170","1","354.784999974072","","","","Images/NewTrialWC.png","37"
"image-keyboard-response","537","498543","0.0-4.0-1.170","1","null","","","","Images/BlackBeadChoice.png","null"
"image-keyboard-response","538","499048","0.0-4.0-2.170","1","null","","","","Images/BlackBeadChoiceWrong.png","null"
"image-keyboard-response","539","499385","0.0-4.0-0.171","1","335.55999997770414","","","","Images/NewTrialWC.png","39"
"image-keyboard-response","540","499642","0.0-4.0-1.171","1","null","","","","Images/WhiteBeadChoice.png","null"
"image-keyboard-response","541","500148","0.0-4.0-2.171","1","null","","","","Images/WhiteBeadChoiceCorrect.png","null"
"image-keyboard-response","542","500522","0.0-4.0-0.172","1","372.6949999690987","","","","Images/NewTrialWC.png","39"
"image-keyboard-response","543","500779","0.0-4.0-1.172","1","null","","","","Images/WhiteBeadChoice.png","null"
"image-keyboard-response","544","501285","0.0-4.0-2.172","1","null","","","","Images/WhiteBeadChoiceCorrect.png","null"
"image-keyboard-response","545","501661","0.0-4.0-0.173","1","374.5900000212714","","","","Images/NewTrialWC.png","39"
"image-keyboard-response","546","501918","0.0-4.0-1.173","1","null","","","","Images/WhiteBeadChoice.png","null"
"image-keyboard-response","547","502424","0.0-4.0-2.173","1","null","","","","Images/WhiteBeadChoiceCorrect.png","null"
"image-keyboard-response","548","502779","0.0-4.0-0.174","1","353.6300000268966","","","","Images/NewTrialWC.png","39"
"image-keyboard-response","549","503032","0.0-4.0-1.174","1","null","","","","Images/WhiteBeadChoice.png","null"
"image-keyboard-response","550","503538","0.0-4.0-2.174","1","null","","","","Images/WhiteBeadChoiceCorrect.png","null"
"image-keyboard-response","551","503897","0.0-4.0-0.175","1","357.3800000012852","","","","Images/NewTrialWC.png","39"
"image-keyboard-response","552","504153","0.0-4.0-1.175","1","null","","","","Images/WhiteBeadChoice.png","null"
"image-keyboard-response","553","504659","0.0-4.0-2.175","1","null","","","","Images/WhiteBeadChoiceWrong.png","null"
"image-keyboard-response","554","505125","0.0-4.0-0.176","1","464.2500000190921","","","","Images/NewTrialBC.png","37"
"image-keyboard-response","555","505381","0.0-4.0-1.176","1","null","","","","Images/BlackBeadChoice.png","null"
"image-keyboard-response","556","505888","0.0-4.0-2.176","1","null","","","","Images/BlackBeadChoiceCorrect.png","null"
"image-keyboard-response","557","506261","0.0-4.0-0.177","1","371.08000001171604","","","","Images/NewTrialBC.png","37"
"image-keyboard-response","558","506512","0.0-4.0-1.177","1","null","","","","Images/BlackBeadChoice.png","null"
"image-keyboard-response","559","507019","0.0-4.0-2.177","1","null","","","","Images/BlackBeadChoiceWrong.png","null"
"image-keyboard-response","560","507535","0.0-4.0-0.178","1","514.400000043679","","","","Images/NewTrialWC.png","37"
"image-keyboard-response","561","507791","0.0-4.0-1.178","1","null","","","","Images/BlackBeadChoice.png","null"
"image-keyboard-response","562","508298","0.0-4.0-2.178","1","null","","","","Images/BlackBeadChoiceCorrect.png","null"
"image-keyboard-response","563","508459","0.0-4.0-0.179","1","159.18000001693144","","","","Images/NewTrialBC.png","37"
"image-keyboard-response","564","508715","0.0-4.0-1.179","1","null","","","","Images/BlackBeadChoice.png","null"
"image-keyboard-response","565","509217","0.0-4.0-2.179","1","null","","","","Images/BlackBeadChoiceCorrect.png","null"
"image-keyboard-response","566","509524","0.0-4.0-0.180","1","305.08999997982755","","","","Images/NewTrialBC.png","37"
"image-keyboard-response","567","509780","0.0-4.0-1.180","1","null","","","","Images/BlackBeadChoice.png","null"
"image-keyboard-response","568","510287","0.0-4.0-2.180","1","null","","","","Images/BlackBeadChoiceCorrect.png","null"
"image-keyboard-response","569","510669","0.0-4.0-0.181","1","380.91000000713393","","","","Images/NewTrialBC.png","37"
"image-keyboard-response","570","510926","0.0-4.0-1.181","1","null","","","","Images/BlackBeadChoice.png","null"
"image-keyboard-response","571","511430","0.0-4.0-2.181","1","null","","","","Images/BlackBeadChoiceCorrect.png","null"
"image-keyboard-response","572","511808","0.0-4.0-0.182","1","376.89499999396503","","","","Images/NewTrialBC.png","37"
"image-keyboard-response","573","512064","0.0-4.0-1.182","1","null","","","","Images/BlackBeadChoice.png","null"
"image-keyboard-response","574","512571","0.0-4.0-2.182","1","null","","","","Images/BlackBeadChoiceCorrect.png","null"
"image-keyboard-response","575","513018","0.0-4.0-0.183","1","445.8849999937229","","","","Images/NewTrialBC.png","37"
"image-keyboard-response","576","513275","0.0-4.0-1.183","1","null","","","","Images/BlackBeadChoice.png","null"
"image-keyboard-response","577","513781","0.0-4.0-2.183","1","null","","","","Images/BlackBeadChoiceWrong.png","null"
"image-keyboard-response","578","514844","0.0-4.0-0.184","1","1062.175000028219","","","","Images/NewTrialWC.png","39"
"image-keyboard-response","579","515101","0.0-4.0-1.184","1","null","","","","Images/WhiteBeadChoice.png","null"
"image-keyboard-response","580","515605","0.0-4.0-2.184","1","null","","","","Images/WhiteBeadChoiceCorrect.png","null"
"image-keyboard-response","581","516024","0.0-4.0-0.185","1","417.5249999971129","","","","Images/NewTrialWC.png","39"
"image-keyboard-response","582","516277","0.0-4.0-1.185","1","null","","","","Images/WhiteBeadChoice.png","null"
"image-keyboard-response","583","516783","0.0-4.0-2.185","1","null","","","","Images/WhiteBeadChoiceCorrect.png","null"
"image-keyboard-response","584","517256","0.0-4.0-0.186","1","470.64499999396503","","","","Images/NewTrialWC.png","39"
"image-keyboard-response","585","517508","0.0-4.0-1.186","1","null","","","","Images/WhiteBeadChoice.png","null"
"image-keyboard-response","586","518014","0.0-4.0-2.186","1","null","","","","Images/WhiteBeadChoiceWrong.png","null"
"image-keyboard-response","587","519124","0.0-4.0-0.187","1","1108.4699999773875","","","","Images/NewTrialBC.png","37"
"image-keyboard-response","588","519380","0.0-4.0-1.187","1","null","","","","Images/BlackBeadChoice.png","null"
"image-keyboard-response","589","519882","0.0-4.0-2.187","1","null","","","","Images/BlackBeadChoiceCorrect.png","null"
"image-keyboard-response","590","520305","0.0-4.0-0.188","1","420.86000001290813","","","","Images/NewTrialBC.png","37"
"image-keyboard-response","591","520560","0.0-4.0-1.188","1","null","","","","Images/BlackBeadChoice.png","null"
"image-keyboard-response","592","521064","0.0-4.0-2.188","1","null","","","","Images/BlackBeadChoiceWrong.png","null"
"image-keyboard-response","593","521476","0.0-4.0-0.189","1","410.42500000912696","","","","Images/NewTrialWC.png","37"
"image-keyboard-response","594","521732","0.0-4.0-1.189","1","null","","","","Images/BlackBeadChoice.png","null"
"image-keyboard-response","595","522239","0.0-4.0-2.189","1","null","","","","Images/BlackBeadChoiceWrong.png","null"
"image-keyboard-response","596","522512","0.0-4.0-0.190","1","272.04499999061227","","","","Images/NewTrialWC.png","39"
"image-keyboard-response","597","522767","0.0-4.0-1.190","1","null","","","","Images/WhiteBeadChoice.png","null"
"image-keyboard-response","598","523271","0.0-4.0-2.190","1","null","","","","Images/WhiteBeadChoiceCorrect.png","null"
"image-keyboard-response","599","523713","0.0-4.0-0.191","1","440.89000002713874","","","","Images/NewTrialWC.png","39"
"image-keyboard-response","600","523965","0.0-4.0-1.191","1","null","","","","Images/WhiteBeadChoice.png","null"
"image-keyboard-response","601","524472","0.0-4.0-2.191","1","null","","","","Images/WhiteBeadChoiceCorrect.png","null"
"image-keyboard-response","602","524884","0.0-4.0-0.192","1","410.65499995602295","","","","Images/NewTrialWC.png","39"
"image-keyboard-response","603","525140","0.0-4.0-1.192","1","null","","","","Images/WhiteBeadChoice.png","null"
"image-keyboard-response","604","525645","0.0-4.0-2.192","1","null","","","","Images/WhiteBeadChoiceCorrect.png","null"
"image-keyboard-response","605","526202","0.0-4.0-0.193","1","555.8500000042841","","","","Images/NewTrialWC.png","39"
"image-keyboard-response","606","526458","0.0-4.0-1.193","1","null","","","","Images/WhiteBeadChoice.png","null"
"image-keyboard-response","607","526965","0.0-4.0-2.193","1","null","","","","Images/WhiteBeadChoiceWrong.png","null"
"image-keyboard-response","608","527779","0.0-4.0-0.194","1","811.8549999780953","","","","Images/NewTrialBC.png","37"
"image-keyboard-response","609","528030","0.0-4.0-1.194","1","null","","","","Images/BlackBeadChoice.png","null"
"image-keyboard-response","610","528535","0.0-4.0-2.194","1","null","","","","Images/BlackBeadChoiceCorrect.png","null"
"image-keyboard-response","611","530214","0.0-4.0-0.195","1","1677.5400000042282","","","","Images/NewTrialBC.png","37"
"image-keyboard-response","612","530467","0.0-4.0-1.195","1","null","","","","Images/BlackBeadChoice.png","null"
"image-keyboard-response","613","530972","0.0-4.0-2.195","1","null","","","","Images/BlackBeadChoiceCorrect.png","null"
"image-keyboard-response","614","531514","0.0-4.0-0.196","1","540.9949999884702","","","","Images/NewTrialBC.png","37"
"image-keyboard-response","615","531771","0.0-4.0-1.196","1","null","","","","Images/BlackBeadChoice.png","null"
"image-keyboard-response","616","532277","0.0-4.0-2.196","1","null","","","","Images/BlackBeadChoiceCorrect.png","null"
"image-keyboard-response","617","532876","0.0-4.0-0.197","1","597.4150000256486","","","","Images/NewTrialBC.png","37"
"image-keyboard-response","618","533132","0.0-4.0-1.197","1","null","","","","Images/BlackBeadChoice.png","null"
"image-keyboard-response","619","533638","0.0-4.0-2.197","1","null","","","","Images/BlackBeadChoiceCorrect.png","null"
"image-keyboard-response","620","534162","0.0-4.0-0.198","1","522.594999987632","","","","Images/NewTrialBC.png","37"
"image-keyboard-response","621","534419","0.0-4.0-1.198","1","null","","","","Images/BlackBeadChoice.png","null"
"image-keyboard-response","622","534925","0.0-4.0-2.198","1","null","","","","Images/BlackBeadChoiceCorrect.png","null"
"image-keyboard-response","623","535519","0.0-4.0-0.199","1","592.3649999895133","","","","Images/NewTrialBC.png","37"
"image-keyboard-response","624","535775","0.0-4.0-1.199","1","null","","","","Images/BlackBeadChoice.png","null"
"image-keyboard-response","625","536282","0.0-4.0-2.199","1","null","","","","Images/BlackBeadChoiceWrong.png","null"
"html-keyboard-response","626","539586","0.0-5.0","1","3302.9550000210293","","","","","32"
"html-keyboard-response","627","548975","0.0-6.0","1","9386.579999991227","","","","<div class=""container"" style=""height:800px;width:800px;display:flex;flex-direction:column;justify-content:center;align-items:center;text-align:center;font-weight:normal;font-family:Arial;font-size:20px""><p>Loading episode&hellip;</p><div>","32"
"image-keyboard-response","628","552339","0.0-7.0-0.0","1","3362.269999983255","","","","Images/NoChoiceMM.png","37"
"image-keyboard-response","629","552594","0.0-7.0-1.0","1","null","","","","Images/BlackBeadChoiceMM.png","null"
"image-keyboard-response","630","553100","0.0-7.0-2.0","1","null","","","","Images/BlackBeadChoiceWrongMM.png","null"
"image-keyboard-response","631","554424","0.0-7.0-0.1","1","1321.9350000144914","","","","Images/NewTrialWCMM.png","39"
"image-keyboard-response","632","554675","0.0-7.0-1.1","1","null","","","","Images/WhiteBeadChoiceMM.png","null"
"image-keyboard-response","633","555177","0.0-7.0-2.1","1","null","","","","Images/WhiteBeadChoiceWrongMM.png","null"
"image-keyboard-response","634","558129","0.0-7.0-0.2","1","2950.2949999878183","","","","Images/NewTrialBCMM.png","37"
"image-keyboard-response","635","558382","0.0-7.0-1.2","1","null","","","","Images/BlackBeadChoiceMM.png","null"
"image-keyboard-response","636","558889","0.0-7.0-2.2","1","null","","","","Images/BlackBeadChoiceWrongMM.png","null"
"image-keyboard-response","637","560769","0.0-7.0-0.3","1","1879.320000007283","","","","Images/NewTrialWCMM.png","39"
"image-keyboard-response","638","561026","0.0-7.0-1.3","1","null","","","","Images/WhiteBeadChoiceMM.png","null"
"image-keyboard-response","639","561530","0.0-7.0-2.3","1","null","","","","Images/WhiteBeadChoiceCorrectMM.png","null"
"image-keyboard-response","640","562160","0.0-7.0-0.4","1","627.6649999781512","","","","Images/NewTrialWCMM.png","39"
"image-keyboard-response","641","562416","0.0-7.0-1.4","1","null","","","","Images/WhiteBeadChoiceMM.png","null"
"image-keyboard-response","642","562922","0.0-7.0-2.4","1","null","","","","Images/WhiteBeadChoiceCorrectMM.png","null"
"image-keyboard-response","643","563521","0.0-7.0-0.5","1","596.64000000339","","","","Images/NewTrialWCMM.png","39"
"image-keyboard-response","644","563775","0.0-7.0-1.5","1","null","","","","Images/WhiteBeadChoiceMM.png","null"
"image-keyboard-response","645","564281","0.0-7.0-2.5","1","null","","","","Images/WhiteBeadChoiceCorrectMM.png","null"
"image-keyboard-response","646","564800","0.0-7.0-0.6","1","517.020000028424","","","","Images/NewTrialWCMM.png","39"
"image-keyboard-response","647","565055","0.0-7.0-1.6","1","null","","","","Images/WhiteBeadChoiceMM.png","null"
"image-keyboard-response","648","565559","0.0-7.0-2.6","1","null","","","","Images/WhiteBeadChoiceCorrectMM.png","null"
"image-keyboard-response","649","566199","0.0-7.0-0.7","1","638.3050000295043","","","","Images/NewTrialWCMM.png","39"
"image-keyboard-response","650","566455","0.0-7.0-1.7","1","null","","","","Images/WhiteBeadChoiceMM.png","null"
"image-keyboard-response","651","566961","0.0-7.0-2.7","1","null","","","","Images/WhiteBeadChoiceCorrectMM.png","null"
"image-keyboard-response","652","567445","0.0-7.0-0.8","1","482.7999999979511","","","","Images/NewTrialWCMM.png","39"
"image-keyboard-response","653","567697","0.0-7.0-1.8","1","null","","","","Images/WhiteBeadChoiceMM.png","null"
"image-keyboard-response","654","568200","0.0-7.0-2.8","1","null","","","","Images/WhiteBeadChoiceCorrectMM.png","null"
"image-keyboard-response","655","568601","0.0-7.0-0.9","1","399.55999999074265","","","","Images/NewTrialWCMM.png","39"
"image-keyboard-response","656","568858","0.0-7.0-1.9","1","null","","","","Images/WhiteBeadChoiceMM.png","null"
"image-keyboard-response","657","569362","0.0-7.0-2.9","1","null","","","","Images/WhiteBeadChoiceWrongMM.png","null"
"image-keyboard-response","658","570654","0.0-7.0-0.10","1","1290.225000004284","","","","Images/NewTrialBCMM.png","37"
"image-keyboard-response","659","570910","0.0-7.0-1.10","1","null","","","","Images/BlackBeadChoiceMM.png","null"
"image-keyboard-response","660","571413","0.0-7.0-2.10","1","null","","","","Images/BlackBeadChoiceCorrectMM.png","null"
"image-keyboard-response","661","571881","0.0-7.0-0.11","1","466.9099999591708","","","","Images/NewTrialBCMM.png","37"
"image-keyboard-response","662","572134","0.0-7.0-1.11","1","null","","","","Images/BlackBeadChoiceMM.png","null"
"image-keyboard-response","663","572639","0.0-7.0-2.11","1","null","","","","Images/BlackBeadChoiceWrongMM.png","null"
"image-keyboard-response","664","573609","0.0-7.0-0.12","1","968.4300000080839","","","","Images/NewTrialWCMM.png","39"
"image-keyboard-response","665","573865","0.0-7.0-1.12","1","null","","","","Images/WhiteBeadChoiceMM.png","null"
"image-keyboard-response","666","574371","0.0-7.0-2.12","1","null","","","","Images/WhiteBeadChoiceCorrectMM.png","null"
"image-keyboard-response","667","574818","0.0-7.0-0.13","1","445.8199999644421","","","","Images/NewTrialWCMM.png","39"
"image-keyboard-response","668","575070","0.0-7.0-1.13","1","null","","","","Images/WhiteBeadChoiceMM.png","null"
"image-keyboard-response","669","575573","0.0-7.0-2.13","1","null","","","","Images/WhiteBeadChoiceCorrectMM.png","null"
"image-keyboard-response","670","576524","0.0-7.0-0.14","1","948.6850000103004","","","","Images/NewTrialWCMM.png","39"
"image-keyboard-response","671","576776","0.0-7.0-1.14","1","null","","","","Images/WhiteBeadChoiceMM.png","null"
"image-keyboard-response","672","577281","0.0-7.0-2.14","1","null","","","","Images/WhiteBeadChoiceCorrectMM.png","null"
"image-keyboard-response","673","577898","0.0-7.0-0.15","1","615.6400000327267","","","","Images/NewTrialWCMM.png","39"
"image-keyboard-response","674","578152","0.0-7.0-1.15","1","null","","","","Images/WhiteBeadChoiceMM.png","null"
"image-keyboard-response","675","578659","0.0-7.0-2.15","1","null","","","","Images/WhiteBeadChoiceCorrectMM.png","null"
"image-keyboard-response","676","579191","0.0-7.0-0.16","1","531.044999952428","","","","Images/NewTrialWCMM.png","39"
"image-keyboard-response","677","579448","0.0-7.0-1.16","1","null","","","","Images/WhiteBeadChoiceMM.png","null"
"image-keyboard-response","678","579954","0.0-7.0-2.16","1","null","","","","Images/WhiteBeadChoiceCorrectMM.png","null"
"image-keyboard-response","679","580430","0.0-7.0-0.17","1","473.85999996913597","","","","Images/NewTrialWCMM.png","39"
"image-keyboard-response","680","580686","0.0-7.0-1.17","1","null","","","","Images/WhiteBeadChoiceMM.png","null"
"image-keyboard-response","681","581192","0.0-7.0-2.17","1","null","","","","Images/WhiteBeadChoiceCorrectMM.png","null"
"image-keyboard-response","682","582201","0.0-7.0-0.18","1","1006.5900000045076","","","","Images/NewTrialWCMM.png","39"
"image-keyboard-response","683","582457","0.0-7.0-1.18","1","null","","","","Images/WhiteBeadChoiceMM.png","null"
"image-keyboard-response","684","582962","0.0-7.0-2.18","1","null","","","","Images/WhiteBeadChoiceCorrectMM.png","null"
"image-keyboard-response","685","583551","0.0-7.0-0.19","1","586.8199999677017","","","","Images/NewTrialWCMM.png","39"
"image-keyboard-response","686","583807","0.0-7.0-1.19","1","null","","","","Images/WhiteBeadChoiceMM.png","null"
"image-keyboard-response","687","584313","0.0-7.0-2.19","1","null","","","","Images/WhiteBeadChoiceCorrectMM.png","null"
"image-keyboard-response","688","584970","0.0-7.0-0.20","1","654.8349999939092","","","","Images/NewTrialWCMM.png","39"
"image-keyboard-response","689","585226","0.0-7.0-1.20","1","null","","","","Images/WhiteBeadChoiceMM.png","null"
"image-keyboard-response","690","585732","0.0-7.0-2.20","1","null","","","","Images/WhiteBeadChoiceCorrectMM.png","null"
"image-keyboard-response","691","586194","0.0-7.0-0.21","1","459.68999998876825","","","","Images/NewTrialWCMM.png","39"
"image-keyboard-response","692","586450","0.0-7.0-1.21","1","null","","","","Images/WhiteBeadChoiceMM.png","null"
"image-keyboard-response","693","586953","0.0-7.0-2.21","1","null","","","","Images/WhiteBeadChoiceCorrectMM.png","null"
"image-keyboard-response","694","587584","0.0-7.0-0.22","1","629.369999980554","","","","Images/NewTrialWCMM.png","39"
"image-keyboard-response","695","587840","0.0-7.0-1.22","1","null","","","","Images/WhiteBeadChoiceMM.png","null"
"image-keyboard-response","696","588343","0.0-7.0-2.22","1","null","","","","Images/WhiteBeadChoiceWrongMM.png","null"
"image-keyboard-response","697","588925","0.0-7.0-0.23","1","580.6850000517443","","","","Images/NewTrialBCMM.png","37"
"image-keyboard-response","698","589183","0.0-7.0-1.23","1","null","","","","Images/BlackBeadChoiceMM.png","null"
"image-keyboard-response","699","589686","0.0-7.0-2.23","1","null","","","","Images/BlackBeadChoiceCorrectMM.png","null"
"image-keyboard-response","700","590341","0.0-7.0-0.24","1","652.7950000017881","","","","Images/NewTrialBCMM.png","37"
"image-keyboard-response","701","590597","0.0-7.0-1.24","1","null","","","","Images/BlackBeadChoiceMM.png","null"
"image-keyboard-response","702","591103","0.0-7.0-2.24","1","null","","","","Images/BlackBeadChoiceCorrectMM.png","null"
"image-keyboard-response","703","591482","0.0-7.0-0.25","1","377.23499996354803","","","","Images/NewTrialBCMM.png","37"
"image-keyboard-response","704","591739","0.0-7.0-1.25","1","null","","","","Images/BlackBeadChoiceMM.png","null"
"image-keyboard-response","705","592245","0.0-7.0-2.25","1","null","","","","Images/BlackBeadChoiceWrongMM.png","null"
"image-keyboard-response","706","592685","0.0-7.0-0.26","1","438.12499998603016","","","","Images/NewTrialWCMM.png","39"
"image-keyboard-response","707","592941","0.0-7.0-1.26","1","null","","","","Images/WhiteBeadChoiceMM.png","null"
"image-keyboard-response","708","593446","0.0-7.0-2.26","1","null","","","","Images/WhiteBeadChoiceWrongMM.png","null"
"image-keyboard-response","709","594537","0.0-7.0-0.27","1","1089.209999947343","","","","Images/NewTrialBCMM.png","37"
"image-keyboard-response","710","594793","0.0-7.0-1.27","1","null","","","","Images/BlackBeadChoiceMM.png","null"
"image-keyboard-response","711","595300","0.0-7.0-2.27","1","null","","","","Images/BlackBeadChoiceCorrectMM.png","null"
"image-keyboard-response","712","595954","0.0-7.0-0.28","1","652.475000009872","","","","Images/NewTrialBCMM.png","37"
"image-keyboard-response","713","596210","0.0-7.0-1.28","1","null","","","","Images/BlackBeadChoiceMM.png","null"
"image-keyboard-response","714","596716","0.0-7.0-2.28","1","null","","","","Images/BlackBeadChoiceCorrectMM.png","null"
"image-keyboard-response","715","597250","0.0-7.0-0.29","1","532.1850000182167","","","","Images/NewTrialBCMM.png","37"
"image-keyboard-response","716","597503","0.0-7.0-1.29","1","null","","","","Images/BlackBeadChoiceMM.png","null"
"image-keyboard-response","717","598010","0.0-7.0-2.29","1","null","","","","Images/BlackBeadChoiceCorrectMM.png","null"
"image-keyboard-response","718","598408","0.0-7.0-0.30","1","397.1550000132993","","","","Images/NewTrialBCMM.png","37"
"image-keyboard-response","719","598664","0.0-7.0-1.30","1","null","","","","Images/BlackBeadChoiceMM.png","null"
"image-keyboard-response","720","599171","0.0-7.0-2.30","1","null","","","","Images/BlackBeadChoiceCorrectMM.png","null"
"image-keyboard-response","721","599795","0.0-7.0-0.31","1","623.3650000067428","","","","Images/NewTrialBCMM.png","37"
"image-keyboard-response","722","600052","0.0-7.0-1.31","1","null","","","","Images/BlackBeadChoiceMM.png","null"
"image-keyboard-response","723","600558","0.0-7.0-2.31","1","null","","","","Images/BlackBeadChoiceCorrectMM.png","null"
"image-keyboard-response","724","600932","0.0-7.0-0.32","1","372.46500002220273","","","","Images/NewTrialBCMM.png","37"
"image-keyboard-response","725","601184","0.0-7.0-1.32","1","null","","","","Images/BlackBeadChoiceMM.png","null"
"image-keyboard-response","726","601691","0.0-7.0-2.32","1","null","","","","Images/BlackBeadChoiceCorrectMM.png","null"
"image-keyboard-response","727","602049","0.0-7.0-0.33","1","357.1499999961816","","","","Images/NewTrialBCMM.png","37"
"image-keyboard-response","728","602306","0.0-7.0-1.33","1","null","","","","Images/BlackBeadChoiceMM.png","null"
"image-keyboard-response","729","602808","0.0-7.0-2.33","1","null","","","","Images/BlackBeadChoiceCorrectMM.png","null"
"image-keyboard-response","730","603184","0.0-7.0-0.34","1","374.1450000088662","","","","Images/NewTrialBCMM.png","37"
"image-keyboard-response","731","603436","0.0-7.0-1.34","1","null","","","","Images/BlackBeadChoiceMM.png","null"
"image-keyboard-response","732","603942","0.0-7.0-2.34","1","null","","","","Images/BlackBeadChoiceCorrectMM.png","null"
"image-keyboard-response","733","604360","0.0-7.0-0.35","1","416.3950000074692","","","","Images/NewTrialBCMM.png","37"
"image-keyboard-response","734","604612","0.0-7.0-1.35","1","null","","","","Images/BlackBeadChoiceMM.png","null"
"image-keyboard-response","735","605119","0.0-7.0-2.35","1","null","","","","Images/BlackBeadChoiceCorrectMM.png","null"
"image-keyboard-response","736","605506","0.0-7.0-0.36","1","386.1250000190921","","","","Images/NewTrialBCMM.png","37"
"image-keyboard-response","737","605763","0.0-7.0-1.36","1","null","","","","Images/BlackBeadChoiceMM.png","null"
"image-keyboard-response","738","606269","0.0-7.0-2.36","1","null","","","","Images/BlackBeadChoiceCorrectMM.png","null"
"image-keyboard-response","739","606693","0.0-7.0-0.37","1","422.469999990426","","","","Images/NewTrialBCMM.png","37"
"image-keyboard-response","740","606949","0.0-7.0-1.37","1","null","","","","Images/BlackBeadChoiceMM.png","null"
"image-keyboard-response","741","607456","0.0-7.0-2.37","1","null","","","","Images/BlackBeadChoiceCorrectMM.png","null"
"image-keyboard-response","742","608151","0.0-7.0-0.38","1","693.8799999770708","","","","Images/NewTrialBCMM.png","37"
"image-keyboard-response","743","608407","0.0-7.0-1.38","1","null","","","","Images/BlackBeadChoiceMM.png","null"
"image-keyboard-response","744","608914","0.0-7.0-2.38","1","null","","","","Images/BlackBeadChoiceCorrectMM.png","null"
"image-keyboard-response","745","609417","0.0-7.0-0.39","1","501.7050000024028","","","","Images/NewTrialBCMM.png","37"
"image-keyboard-response","746","609673","0.0-7.0-1.39","1","null","","","","Images/BlackBeadChoiceMM.png","null"
"image-keyboard-response","747","610177","0.0-7.0-2.39","1","null","","","","Images/BlackBeadChoiceCorrectMM.png","null"
"image-keyboard-response","748","610558","0.0-7.0-0.40","1","378.72999999672174","","","","Images/NewTrialBCMM.png","37"
"image-keyboard-response","749","610814","0.0-7.0-1.40","1","null","","","","Images/BlackBeadChoiceMM.png","null"
"image-keyboard-response","750","611321","0.0-7.0-2.40","1","null","","","","Images/BlackBeadChoiceCorrectMM.png","null"
"image-keyboard-response","751","611749","0.0-7.0-0.41","1","427.0299999625422","","","","Images/NewTrialBCMM.png","37"
"image-keyboard-response","752","612001","0.0-7.0-1.41","1","null","","","","Images/BlackBeadChoiceMM.png","null"
"image-keyboard-response","753","612508","0.0-7.0-2.41","1","null","","","","Images/BlackBeadChoiceCorrectMM.png","null"
"image-keyboard-response","754","612944","0.0-7.0-0.42","1","434.4799999962561","","","","Images/NewTrialBCMM.png","37"
"image-keyboard-response","755","613200","0.0-7.0-1.42","1","null","","","","Images/BlackBeadChoiceMM.png","null"
"image-keyboard-response","756","613707","0.0-7.0-2.42","1","null","","","","Images/BlackBeadChoiceCorrectMM.png","null"
"image-keyboard-response","757","614352","0.0-7.0-0.43","1","643.5449999989942","","","","Images/NewTrialBCMM.png","37"
"image-keyboard-response","758","614608","0.0-7.0-1.43","1","null","","","","Images/BlackBeadChoiceMM.png","null"
"image-keyboard-response","759","615115","0.0-7.0-2.43","1","null","","","","Images/BlackBeadChoiceCorrectMM.png","null"
"image-keyboard-response","760","615540","0.0-7.0-0.44","1","423.75499999616295","","","","Images/NewTrialBCMM.png","37"
"image-keyboard-response","761","615796","0.0-7.0-1.44","1","null","","","","Images/BlackBeadChoiceMM.png","null"
"image-keyboard-response","762","616302","0.0-7.0-2.44","1","null","","","","Images/BlackBeadChoiceCorrectMM.png","null"
"image-keyboard-response","763","616743","0.0-7.0-0.45","1","439.6199999609962","","","","Images/NewTrialBCMM.png","37"
"image-keyboard-response","764","616997","0.0-7.0-1.45","1","null","","","","Images/BlackBeadChoiceMM.png","null"
"image-keyboard-response","765","617499","0.0-7.0-2.45","1","null","","","","Images/BlackBeadChoiceCorrectMM.png","null"
"image-keyboard-response","766","617950","0.0-7.0-0.46","1","450.0199999893084","","","","Images/NewTrialBCMM.png","37"
"image-keyboard-response","767","618207","0.0-7.0-1.46","1","null","","","","Images/BlackBeadChoiceMM.png","null"
"image-keyboard-response","768","618711","0.0-7.0-2.46","1","null","","","","Images/BlackBeadChoiceCorrectMM.png","null"
"image-keyboard-response","769","619191","0.0-7.0-0.47","1","477.9899999848567","","","","Images/NewTrialBCMM.png","37"
"image-keyboard-response","770","619444","0.0-7.0-1.47","1","null","","","","Images/BlackBeadChoiceMM.png","null"
"image-keyboard-response","771","619951","0.0-7.0-2.47","1","null","","","","Images/BlackBeadChoiceCorrectMM.png","null"
"image-keyboard-response","772","620489","0.0-7.0-0.48","1","537.1099999756552","","","","Images/NewTrialBCMM.png","37"
"image-keyboard-response","773","620742","0.0-7.0-1.48","1","null","","","","Images/BlackBeadChoiceMM.png","null"
"image-keyboard-response","774","621248","0.0-7.0-2.48","1","null","","","","Images/BlackBeadChoiceCorrectMM.png","null"
"image-keyboard-response","775","621835","0.0-7.0-0.49","1","586.2799999886192","","","","Images/NewTrialBCMM.png","37"
"image-keyboard-response","776","622092","0.0-7.0-1.49","1","null","","","","Images/BlackBeadChoiceMM.png","null"
"image-keyboard-response","777","622598","0.0-7.0-2.49","1","null","","","","Images/BlackBeadChoiceCorrectMM.png","null"
"image-keyboard-response","778","623027","0.0-7.0-0.50","1","427.56999999983236","","","","Images/NewTrialBCMM.png","37"
"image-keyboard-response","779","623280","0.0-7.0-1.50","1","null","","","","Images/BlackBeadChoiceMM.png","null"
"image-keyboard-response","780","623786","0.0-7.0-2.50","1","null","","","","Images/BlackBeadChoiceCorrectMM.png","null"
"image-keyboard-response","781","624136","0.0-7.0-0.51","1","348.12999999849126","","","","Images/NewTrialBCMM.png","37"
"image-keyboard-response","782","624390","0.0-7.0-1.51","1","null","","","","Images/BlackBeadChoiceMM.png","null"
"image-keyboard-response","783","624896","0.0-7.0-2.51","1","null","","","","Images/BlackBeadChoiceCorrectMM.png","null"
"image-keyboard-response","784","625392","0.0-7.0-0.52","1","493.5700000496581","","","","Images/NewTrialBCMM.png","37"
"image-keyboard-response","785","625648","0.0-7.0-1.52","1","null","","","","Images/BlackBeadChoiceMM.png","null"
"image-keyboard-response","786","626152","0.0-7.0-2.52","1","null","","","","Images/BlackBeadChoiceWrongMM.png","null"
"image-keyboard-response","787","626542","0.0-7.0-0.53","1","388.72500002617016","","","","Images/NewTrialWCMM.png","39"
"image-keyboard-response","788","626799","0.0-7.0-1.53","1","null","","","","Images/WhiteBeadChoiceMM.png","null"
"image-keyboard-response","789","627304","0.0-7.0-2.53","1","null","","","","Images/WhiteBeadChoiceCorrectMM.png","null"
"image-keyboard-response","790","627797","0.0-7.0-0.54","1","491.06000002939254","","","","Images/NewTrialWCMM.png","39"
"image-keyboard-response","791","628053","0.0-7.0-1.54","1","null","","","","Images/WhiteBeadChoiceMM.png","null"
"image-keyboard-response","792","628560","0.0-7.0-2.54","1","null","","","","Images/WhiteBeadChoiceCorrectMM.png","null"
"image-keyboard-response","793","629121","0.0-7.0-0.55","1","559.0650000376627","","","","Images/NewTrialWCMM.png","39"
"image-keyboard-response","794","629377","0.0-7.0-1.55","1","null","","","","Images/WhiteBeadChoiceMM.png","null"
"image-keyboard-response","795","629879","0.0-7.0-2.55","1","null","","","","Images/WhiteBeadChoiceCorrectMM.png","null"
"image-keyboard-response","796","630202","0.0-7.0-0.56","1","321.9899999676272","","","","Images/NewTrialWCMM.png","39"
"image-keyboard-response","797","630458","0.0-7.0-1.56","1","null","","","","Images/WhiteBeadChoiceMM.png","null"
"image-keyboard-response","798","630963","0.0-7.0-2.56","1","null","","","","Images/WhiteBeadChoiceCorrectMM.png","null"
"image-keyboard-response","799","631331","0.0-7.0-0.57","1","366.5749999927357","","","","Images/NewTrialWCMM.png","39"
"image-keyboard-response","800","631587","0.0-7.0-1.57","1","null","","","","Images/WhiteBeadChoiceMM.png","null"
"image-keyboard-response","801","632092","0.0-7.0-2.57","1","null","","","","Images/WhiteBeadChoiceCorrectMM.png","null"
"image-keyboard-response","802","632469","0.0-7.0-0.58","1","375.55500003509223","","","","Images/NewTrialWCMM.png","39"
"image-keyboard-response","803","632724","0.0-7.0-1.58","1","null","","","","Images/WhiteBeadChoiceMM.png","null"
"image-keyboard-response","804","633231","0.0-7.0-2.58","1","null","","","","Images/WhiteBeadChoiceCorrectMM.png","null"
"image-keyboard-response","805","633503","0.0-7.0-0.59","1","270.444999972824","","","","Images/NewTrialWCMM.png","39"
"image-keyboard-response","806","633759","0.0-7.0-1.59","1","null","","","","Images/WhiteBeadChoiceMM.png","null"
"image-keyboard-response","807","634266","0.0-7.0-2.59","1","null","","","","Images/WhiteBeadChoiceCorrectMM.png","null"
"image-keyboard-response","808","634789","0.0-7.0-0.60","1","521.695000003092","","","","Images/NewTrialWCMM.png","39"
"image-keyboard-response","809","635045","0.0-7.0-1.60","1","null","","","","Images/WhiteBeadChoiceMM.png","null"
"image-keyboard-response","810","635549","0.0-7.0-2.60","1","null","","","","Images/WhiteBeadChoiceCorrectMM.png","null"
"image-keyboard-response","811","635965","0.0-7.0-0.61","1","414.05999998096377","","","","Images/NewTrialWCMM.png","39"
"image-keyboard-response","812","636221","0.0-7.0-1.61","1","null","","","","Images/WhiteBeadChoiceMM.png","null"
"image-keyboard-response","813","636728","0.0-7.0-2.61","1","null","","","","Images/WhiteBeadChoiceWrongMM.png","null"
"image-keyboard-response","814","637388","0.0-7.0-0.62","1","658.8850000407547","","","","Images/NewTrialBCMM.png","37"
"image-keyboard-response","815","637643","0.0-7.0-1.62","1","null","","","","Images/BlackBeadChoiceMM.png","null"
