"trial_type","trial_index","time_elapsed","internal_node_id","Script_Picker","rt","url","responses","question_order","stimulus","key_press"
"pavlovia","0","3","0.0-0.0","12","","","","","",""
"external-html","1","379038","0.0-1.0-0.0","12","378943","consent.html","","","",""
"survey-multi-choice","2","387481","0.0-1.0-1.0","12","8440","","{""Q0"":""Male"",""Q1"":""White""}","[0,1]","",""
"survey-text","3","390181","0.0-1.0-2.0","12","2697","","{""Q0"":""22""}","","",""
"survey-text","4","396017","0.0-1.0-3.0","12","5734","","{""Q0"":""5e18bdb1e80b8e18dc8209ac""}","","",""
"html-keyboard-response","5","417910","0.0-2.0-0.0","12","21792","","","","<div class=""container"" style=""height:800px;width:800px;display:flex;flex-direction:column;justify-content:center;align-items:center;text-align:center;font-weight:normal;font-family:Arial;font-size:20px""><p>In this task you will see black or white beads being pulled from jars. <br><br>On each trial, a bead will be pulled from one of two jars. Once you see this bead, your goal is to predict the color of NEXT bead that will be pulled. <br> <br>Every time you correctly guess the color of the NEXT bead, you will get a point. The more points you get, the higher your win bonus at the end of the experiment <br><br>Press the SPACEBAR to continue.</p><div>","32"
"html-keyboard-response","6","427007","0.0-2.0-1.0","12","9097","","","","<div class=""container"" style=""height:800px;width:800px;display:flex;flex-direction:column;justify-content:center;align-items:center;text-align:center;font-weight:normal;font-family:Arial;font-size:20px""><p>There are two types of jars:<br><br>1) Jars filled with ONLY white or black beads<br><br>2) Jars filled with 90% white or black beads and 10% of the opposite color mixed in<br><br>Press the SPACEBAR to continue. </p><div>","32"
"image-keyboard-response","7","435064","0.0-2.0-2.0","12","8056","","","","resources/WhiteJar_MM.png","32"
"image-keyboard-response","8","436439","0.0-2.0-3.0","12","1373","","","","resources/BlackJar_MM.png","32"
"image-keyboard-response","9","438672","0.0-2.0-4.0","12","2232","","","","resources/WhiteJar_HMM.png","32"
"image-keyboard-response","10","439652","0.0-2.0-5.0","12","979","","","","resources/BlackJar_HMM.png","32"
"html-keyboard-response","11","464018","0.0-2.0-6.0","12","24365","","","","<div class=""container"" style=""height:800px;width:800px;display:flex;flex-direction:column;justify-content:center;align-items:center;text-align:center;font-weight:normal;font-family:Arial;font-size:20px""><p>There will be four blocks of trials. In each block, you will see the pair of jars that beads will be pulled from.<br><br>The pair of jars used in each block will ONLY ever be 100% white and black jars, or 90/10 mixed jars. <br><br>The pair of jars in each block will not change until the next block.<br><br>Here are examples of what you will see on each trial.<br><br>Press the SPACEBAR to continue. </p><div>","32"
"image-keyboard-response","12","469241","0.0-2.0-7.0","12","5222","","","","Images/NoChoiceMM.png","32"
"image-keyboard-response","13","473167","0.0-2.0-8.0","12","3925","","","","Images/NoChoice.png","32"
"html-keyboard-response","14","517798","0.0-2.0-9.0","12","44631","","","","<div class=""container"" style=""height:800px;width:800px;display:flex;flex-direction:column;justify-content:center;align-items:center;text-align:center;font-weight:normal;font-family:Arial;font-size:20px""><p> The jar the beads are pulled from is NOT choosen at random on each trial.<br><br>After each prediction, there will be a chance that the jars will switch, and that the next bead will be pulled from the opposite jar as the previous trial.<br><br>In each block, the chance that a jar will switch will either be LOW (the jars will not switch very often), or HIGH (the jars will switch almost all the time).<br><br>At the start of each block, you will be told the probability that the jars will switch on each trial. This switch probability will stay constant throughout the block.<br><br>Press the SPACEBAR to continue. </p><div>","32"
"image-keyboard-response","15","527314","0.0-2.0-10.0","12","9516","","","","Images/TutorialBlackJarDrawMM.png","32"
"image-keyboard-response","16","530082","0.0-2.0-11.0","12","2766","","","","Images/TutorialWhiteJarDrawMM.png","32"
"html-keyboard-response","17","548148","0.0-2.0-12.0","12","18066","","","","<div class=""container"" style=""height:800px;width:800px;display:flex;flex-direction:column;justify-content:center;align-items:center;text-align:center;font-weight:normal;font-family:Arial;font-size:20px""><p> When the jars are filled with only one color, each bead is guaranteed to have come from the same-colored jar. During these blocks, the best strategy is to use the jar switch probability to predict whether the next bead will be the same or different from the previous trial.<br><br> When the jars contain a mix of black and white beads, you will sometimes see black beads pulled from the mostly white jar, and white beads pulled from the mostly black jar. <br><br>Here is an example.<br><br>Press the SPACEBAR to continue.  </p><div>","32"
"image-keyboard-response","18","551158","0.0-2.0-13.0","12","3009","","","","Images/TutorialWhiteJarDrawHMMC.png","32"
"image-keyboard-response","19","553117","0.0-2.0-14.0","12","1958","","","","Images/TutorialBlackJarDrawHMMC.png","32"
"image-keyboard-response","20","554730","0.0-2.0-15.0","12","1611","","","","Images/TutorialBlackJarDrawHMMI.png","32"
"html-keyboard-response","21","566011","0.0-2.0-16.0","12","11281","","","","<div class=""container"" style=""height:800px;width:800px;display:flex;flex-direction:column;justify-content:center;align-items:center;text-align:center;font-weight:normal;font-family:Arial;font-size:20px""><p> As you observed, a white bead was pulled from a 90% white jar, the jars switched and a black bead was pulled from the 90% black jar, but then low-probability white bead was pulled from the 90% black jar. <br><br>In these mixed-jar blocks, you will first have to figure out which jar the current bead was pulled from, then use the jar switch probability to predict the color of the next bead.<br><br>Press SPACEBAR to conitnue.</p><div>","32"
"html-keyboard-response","22","568675","0.0-2.0-17.0","12","2663","","","","<div class=""container"" style=""height:800px;width:800px;display:flex;flex-direction:column;justify-content:center;align-items:center;text-align:center;font-weight:normal;font-family:Arial;font-size:20px""><p> You will now be given a 3 question quiz to make sure you understand the fundamentals. </p><div>","32"
"image-keyboard-response","23","583136","0.0-2.0-18.0","12","14461","","","","Images/TutorialQuestion1.png","39"
"image-keyboard-response","24","596809","0.0-2.0-19.0","12","11927","","","","Images/TutorialQuestion2.png","38"
"html-keyboard-response","25","614546","0.0-3.0","12","16188","","","","<div class=""container"" style=""height:800px;width:800px;display:flex;flex-direction:column;justify-content:center;align-items:center;text-align:center;font-weight:normal;font-family:Arial;font-size:20px""><p>Loading episode&hellip;</p><div>","32"
"image-keyboard-response","26","632089","0.0-4.0-0.0","12","17542","","","","Images/NoChoice.png","37"
"image-keyboard-response","27","632341","0.0-4.0-1.0","12","null","","","","Images/BlackBeadChoice.png","null"
"image-keyboard-response","28","632842","0.0-4.0-2.0","12","null","","","","Images/BlackBeadChoiceWrong.png","null"
"image-keyboard-response","29","640755","0.0-4.0-0.1","12","7911","","","","Images/NewTrialWC.png","39"
"image-keyboard-response","30","641007","0.0-4.0-1.1","12","null","","","","Images/WhiteBeadChoice.png","null"
"image-keyboard-response","31","641508","0.0-4.0-2.1","12","null","","","","Images/WhiteBeadChoiceWrong.png","null"
"image-keyboard-response","32","647445","0.0-4.0-0.2","12","5936","","","","Images/NewTrialBC.png","37"
"image-keyboard-response","33","647695","0.0-4.0-1.2","12","null","","","","Images/BlackBeadChoice.png","null"
"image-keyboard-response","34","648196","0.0-4.0-2.2","12","null","","","","Images/BlackBeadChoiceCorrect.png","null"
"image-keyboard-response","35","650249","0.0-4.0-0.3","12","2053","","","","Images/NewTrialBC.png","37"
"image-keyboard-response","36","650499","0.0-4.0-1.3","12","null","","","","Images/BlackBeadChoice.png","null"
"image-keyboard-response","37","651000","0.0-4.0-2.3","12","null","","","","Images/BlackBeadChoiceWrong.png","null"
"image-keyboard-response","38","652415","0.0-4.0-0.4","12","1414","","","","Images/NewTrialWC.png","39"
"image-keyboard-response","39","652666","0.0-4.0-1.4","12","null","","","","Images/WhiteBeadChoice.png","null"
"image-keyboard-response","40","653167","0.0-4.0-2.4","12","null","","","","Images/WhiteBeadChoiceWrong.png","null"
"image-keyboard-response","41","653810","0.0-4.0-0.5","12","643","","","","Images/NewTrialBC.png","37"
"image-keyboard-response","42","654062","0.0-4.0-1.5","12","null","","","","Images/BlackBeadChoice.png","null"
"image-keyboard-response","43","654562","0.0-4.0-2.5","12","null","","","","Images/BlackBeadChoiceCorrect.png","null"
"image-keyboard-response","44","655118","0.0-4.0-0.6","12","555","","","","Images/NewTrialBC.png","37"
"image-keyboard-response","45","655368","0.0-4.0-1.6","12","null","","","","Images/BlackBeadChoice.png","null"
"image-keyboard-response","46","655871","0.0-4.0-2.6","12","null","","","","Images/BlackBeadChoiceCorrect.png","null"
"image-keyboard-response","47","656507","0.0-4.0-0.7","12","636","","","","Images/NewTrialBC.png","37"
"image-keyboard-response","48","656757","0.0-4.0-1.7","12","null","","","","Images/BlackBeadChoice.png","null"
"image-keyboard-response","49","657258","0.0-4.0-2.7","12","null","","","","Images/BlackBeadChoiceCorrect.png","null"
"image-keyboard-response","50","662223","0.0-4.0-0.8","12","4965","","","","Images/NewTrialBC.png","37"
"image-keyboard-response","51","662474","0.0-4.0-1.8","12","null","","","","Images/BlackBeadChoice.png","null"
"image-keyboard-response","52","662975","0.0-4.0-2.8","12","null","","","","Images/BlackBeadChoiceWrong.png","null"
"image-keyboard-response","53","664131","0.0-4.0-0.9","12","1156","","","","Images/NewTrialWC.png","39"
"image-keyboard-response","54","664382","0.0-4.0-1.9","12","null","","","","Images/WhiteBeadChoice.png","null"
"image-keyboard-response","55","664883","0.0-4.0-2.9","12","null","","","","Images/WhiteBeadChoiceCorrect.png","null"
"image-keyboard-response","56","665441","0.0-4.0-0.10","12","557","","","","Images/NewTrialWC.png","39"
"image-keyboard-response","57","665692","0.0-4.0-1.10","12","null","","","","Images/WhiteBeadChoice.png","null"
"image-keyboard-response","58","666194","0.0-4.0-2.10","12","null","","","","Images/WhiteBeadChoiceCorrect.png","null"
"image-keyboard-response","59","666656","0.0-4.0-0.11","12","461","","","","Images/NewTrialWC.png","39"
"image-keyboard-response","60","666907","0.0-4.0-1.11","12","null","","","","Images/WhiteBeadChoice.png","null"
"image-keyboard-response","61","667408","0.0-4.0-2.11","12","null","","","","Images/WhiteBeadChoiceCorrect.png","null"
"image-keyboard-response","62","667920","0.0-4.0-0.12","12","513","","","","Images/NewTrialWC.png","39"
"image-keyboard-response","63","668172","0.0-4.0-1.12","12","null","","","","Images/WhiteBeadChoice.png","null"
"image-keyboard-response","64","668673","0.0-4.0-2.12","12","null","","","","Images/WhiteBeadChoiceCorrect.png","null"
"image-keyboard-response","65","669184","0.0-4.0-0.13","12","511","","","","Images/NewTrialWC.png","39"
"image-keyboard-response","66","669436","0.0-4.0-1.13","12","null","","","","Images/WhiteBeadChoice.png","null"
"image-keyboard-response","67","669936","0.0-4.0-2.13","12","null","","","","Images/WhiteBeadChoiceWrong.png","null"
"image-keyboard-response","68","670448","0.0-4.0-0.14","12","510","","","","Images/NewTrialBC.png","37"
"image-keyboard-response","69","670698","0.0-4.0-1.14","12","null","","","","Images/BlackBeadChoice.png","null"
"image-keyboard-response","70","671200","0.0-4.0-2.14","12","null","","","","Images/BlackBeadChoiceWrong.png","null"
"image-keyboard-response","71","671640","0.0-4.0-0.15","12","440","","","","Images/NewTrialWC.png","39"
"image-keyboard-response","72","671891","0.0-4.0-1.15","12","null","","","","Images/WhiteBeadChoice.png","null"
"image-keyboard-response","73","672392","0.0-4.0-2.15","12","null","","","","Images/WhiteBeadChoiceCorrect.png","null"
"image-keyboard-response","74","672889","0.0-4.0-0.16","12","496","","","","Images/NewTrialWC.png","39"
"image-keyboard-response","75","673140","0.0-4.0-1.16","12","null","","","","Images/WhiteBeadChoice.png","null"
"image-keyboard-response","76","673641","0.0-4.0-2.16","12","null","","","","Images/WhiteBeadChoiceCorrect.png","null"
"image-keyboard-response","77","674369","0.0-4.0-0.17","12","728","","","","Images/NewTrialWC.png","39"
"image-keyboard-response","78","674620","0.0-4.0-1.17","12","null","","","","Images/WhiteBeadChoice.png","null"
"image-keyboard-response","79","675122","0.0-4.0-2.17","12","null","","","","Images/WhiteBeadChoiceWrong.png","null"
"image-keyboard-response","80","675517","0.0-4.0-0.18","12","396","","","","Images/NewTrialBC.png","37"
"image-keyboard-response","81","675767","0.0-4.0-1.18","12","null","","","","Images/BlackBeadChoice.png","null"
"image-keyboard-response","82","676269","0.0-4.0-2.18","12","null","","","","Images/BlackBeadChoiceWrong.png","null"
"image-keyboard-response","83","676646","0.0-4.0-0.19","12","377","","","","Images/NewTrialWC.png","39"
"image-keyboard-response","84","676897","0.0-4.0-1.19","12","null","","","","Images/WhiteBeadChoice.png","null"
"image-keyboard-response","85","677398","0.0-4.0-2.19","12","null","","","","Images/WhiteBeadChoiceCorrect.png","null"
"image-keyboard-response","86","677879","0.0-4.0-0.20","12","480","","","","Images/NewTrialWC.png","39"
"image-keyboard-response","87","678130","0.0-4.0-1.20","12","null","","","","Images/WhiteBeadChoice.png","null"
"image-keyboard-response","88","678630","0.0-4.0-2.20","12","null","","","","Images/WhiteBeadChoiceCorrect.png","null"
"image-keyboard-response","89","679094","0.0-4.0-0.21","12","463","","","","Images/NewTrialWC.png","39"
"image-keyboard-response","90","679344","0.0-4.0-1.21","12","null","","","","Images/WhiteBeadChoice.png","null"
"image-keyboard-response","91","679846","0.0-4.0-2.21","12","null","","","","Images/WhiteBeadChoiceCorrect.png","null"
"image-keyboard-response","92","680256","0.0-4.0-0.22","12","410","","","","Images/NewTrialWC.png","39"
"image-keyboard-response","93","680506","0.0-4.0-1.22","12","null","","","","Images/WhiteBeadChoice.png","null"
"image-keyboard-response","94","681008","0.0-4.0-2.22","12","null","","","","Images/WhiteBeadChoiceCorrect.png","null"
"image-keyboard-response","95","681478","0.0-4.0-0.23","12","470","","","","Images/NewTrialWC.png","39"
"image-keyboard-response","96","681729","0.0-4.0-1.23","12","null","","","","Images/WhiteBeadChoice.png","null"
"image-keyboard-response","97","682229","0.0-4.0-2.23","12","null","","","","Images/WhiteBeadChoiceWrong.png","null"
"image-keyboard-response","98","682546","0.0-4.0-0.24","12","316","","","","Images/NewTrialBC.png","37"
"image-keyboard-response","99","682797","0.0-4.0-1.24","12","null","","","","Images/BlackBeadChoice.png","null"
"image-keyboard-response","100","683298","0.0-4.0-2.24","12","null","","","","Images/BlackBeadChoiceCorrect.png","null"
"image-keyboard-response","101","683664","0.0-4.0-0.25","12","366","","","","Images/NewTrialBC.png","37"
"image-keyboard-response","102","683915","0.0-4.0-1.25","12","null","","","","Images/BlackBeadChoice.png","null"
"image-keyboard-response","103","684415","0.0-4.0-2.25","12","null","","","","Images/BlackBeadChoiceCorrect.png","null"
"image-keyboard-response","104","685661","0.0-4.0-0.26","12","1245","","","","Images/NewTrialBC.png","37"
"image-keyboard-response","105","685912","0.0-4.0-1.26","12","null","","","","Images/BlackBeadChoice.png","null"
"image-keyboard-response","106","686413","0.0-4.0-2.26","12","null","","","","Images/BlackBeadChoiceCorrect.png","null"
"image-keyboard-response","107","687076","0.0-4.0-0.27","12","663","","","","Images/NewTrialBC.png","37"
"image-keyboard-response","108","687327","0.0-4.0-1.27","12","null","","","","Images/BlackBeadChoice.png","null"
"image-keyboard-response","109","687829","0.0-4.0-2.27","12","null","","","","Images/BlackBeadChoiceCorrect.png","null"
"image-keyboard-response","110","688432","0.0-4.0-0.28","12","604","","","","Images/NewTrialBC.png","37"
"image-keyboard-response","111","688683","0.0-4.0-1.28","12","null","","","","Images/BlackBeadChoice.png","null"
"image-keyboard-response","112","689184","0.0-4.0-2.28","12","null","","","","Images/BlackBeadChoiceCorrect.png","null"
"image-keyboard-response","113","689624","0.0-4.0-0.29","12","440","","","","Images/NewTrialBC.png","37"
"image-keyboard-response","114","689875","0.0-4.0-1.29","12","null","","","","Images/BlackBeadChoice.png","null"
"image-keyboard-response","115","690376","0.0-4.0-2.29","12","null","","","","Images/BlackBeadChoiceWrong.png","null"
"image-keyboard-response","116","690672","0.0-4.0-0.30","12","297","","","","Images/NewTrialWC.png","39"
"image-keyboard-response","117","690923","0.0-4.0-1.30","12","null","","","","Images/WhiteBeadChoice.png","null"
"image-keyboard-response","118","691425","0.0-4.0-2.30","12","null","","","","Images/WhiteBeadChoiceWrong.png","null"
"image-keyboard-response","119","693986","0.0-4.0-0.31","12","2561","","","","Images/NewTrialBC.png","37"
"image-keyboard-response","120","694237","0.0-4.0-1.31","12","null","","","","Images/BlackBeadChoice.png","null"
"image-keyboard-response","121","694738","0.0-4.0-2.31","12","null","","","","Images/BlackBeadChoiceCorrect.png","null"
"image-keyboard-response","122","695318","0.0-4.0-0.32","12","580","","","","Images/NewTrialBC.png","37"
"image-keyboard-response","123","695569","0.0-4.0-1.32","12","null","","","","Images/BlackBeadChoice.png","null"
"image-keyboard-response","124","696069","0.0-4.0-2.32","12","null","","","","Images/BlackBeadChoiceWrong.png","null"
"image-keyboard-response","125","696491","0.0-4.0-0.33","12","421","","","","Images/NewTrialWC.png","39"
"image-keyboard-response","126","696742","0.0-4.0-1.33","12","null","","","","Images/WhiteBeadChoice.png","null"
"image-keyboard-response","127","697242","0.0-4.0-2.33","12","null","","","","Images/WhiteBeadChoiceCorrect.png","null"
"image-keyboard-response","128","697663","0.0-4.0-0.34","12","420","","","","Images/NewTrialWC.png","39"
"image-keyboard-response","129","697913","0.0-4.0-1.34","12","null","","","","Images/WhiteBeadChoice.png","null"
"image-keyboard-response","130","698415","0.0-4.0-2.34","12","null","","","","Images/WhiteBeadChoiceCorrect.png","null"
"image-keyboard-response","131","698721","0.0-4.0-0.35","12","307","","","","Images/NewTrialWC.png","39"
"image-keyboard-response","132","698971","0.0-4.0-1.35","12","null","","","","Images/WhiteBeadChoice.png","null"
"image-keyboard-response","133","699473","0.0-4.0-2.35","12","null","","","","Images/WhiteBeadChoiceCorrect.png","null"
"image-keyboard-response","134","699849","0.0-4.0-0.36","12","377","","","","Images/NewTrialWC.png","39"
"image-keyboard-response","135","700101","0.0-4.0-1.36","12","null","","","","Images/WhiteBeadChoice.png","null"
"image-keyboard-response","136","700602","0.0-4.0-2.36","12","null","","","","Images/WhiteBeadChoiceCorrect.png","null"
"image-keyboard-response","137","700949","0.0-4.0-0.37","12","348","","","","Images/NewTrialWC.png","39"
"image-keyboard-response","138","701200","0.0-4.0-1.37","12","null","","","","Images/WhiteBeadChoice.png","null"
"image-keyboard-response","139","701700","0.0-4.0-2.37","12","null","","","","Images/WhiteBeadChoiceWrong.png","null"
"image-keyboard-response","140","702036","0.0-4.0-0.38","12","335","","","","Images/NewTrialBC.png","37"
"image-keyboard-response","141","702287","0.0-4.0-1.38","12","null","","","","Images/BlackBeadChoice.png","null"
"image-keyboard-response","142","702788","0.0-4.0-2.38","12","null","","","","Images/BlackBeadChoiceCorrect.png","null"
"image-keyboard-response","143","703429","0.0-4.0-0.39","12","641","","","","Images/NewTrialBC.png","37"
"image-keyboard-response","144","703680","0.0-4.0-1.39","12","null","","","","Images/BlackBeadChoice.png","null"
"image-keyboard-response","145","704180","0.0-4.0-2.39","12","null","","","","Images/BlackBeadChoiceCorrect.png","null"
"image-keyboard-response","146","704541","0.0-4.0-0.40","12","359","","","","Images/NewTrialBC.png","37"
"image-keyboard-response","147","704792","0.0-4.0-1.40","12","null","","","","Images/BlackBeadChoice.png","null"
"image-keyboard-response","148","705293","0.0-4.0-2.40","12","null","","","","Images/BlackBeadChoiceWrong.png","null"
"image-keyboard-response","149","705755","0.0-4.0-0.41","12","462","","","","Images/NewTrialWC.png","39"
"image-keyboard-response","150","706005","0.0-4.0-1.41","12","null","","","","Images/WhiteBeadChoice.png","null"
"image-keyboard-response","151","706507","0.0-4.0-2.41","12","null","","","","Images/WhiteBeadChoiceWrong.png","null"
"image-keyboard-response","152","707173","0.0-4.0-0.42","12","666","","","","Images/NewTrialBC.png","37"
"image-keyboard-response","153","707423","0.0-4.0-1.42","12","null","","","","Images/BlackBeadChoice.png","null"
"image-keyboard-response","154","707924","0.0-4.0-2.42","12","null","","","","Images/BlackBeadChoiceCorrect.png","null"
"image-keyboard-response","155","708348","0.0-4.0-0.43","12","423","","","","Images/NewTrialBC.png","37"
"image-keyboard-response","156","708598","0.0-4.0-1.43","12","null","","","","Images/BlackBeadChoice.png","null"
"image-keyboard-response","157","709100","0.0-4.0-2.43","12","null","","","","Images/BlackBeadChoiceCorrect.png","null"
"image-keyboard-response","158","709476","0.0-4.0-0.44","12","375","","","","Images/NewTrialBC.png","37"
"image-keyboard-response","159","709727","0.0-4.0-1.44","12","null","","","","Images/BlackBeadChoice.png","null"
"image-keyboard-response","160","710228","0.0-4.0-2.44","12","null","","","","Images/BlackBeadChoiceWrong.png","null"
"image-keyboard-response","161","710506","0.0-4.0-0.45","12","278","","","","Images/NewTrialWC.png","39"
"image-keyboard-response","162","710757","0.0-4.0-1.45","12","null","","","","Images/WhiteBeadChoice.png","null"
"image-keyboard-response","163","711258","0.0-4.0-2.45","12","null","","","","Images/WhiteBeadChoiceCorrect.png","null"
"image-keyboard-response","164","711777","0.0-4.0-0.46","12","520","","","","Images/NewTrialWC.png","39"
"image-keyboard-response","165","712027","0.0-4.0-1.46","12","null","","","","Images/WhiteBeadChoice.png","null"
"image-keyboard-response","166","712529","0.0-4.0-2.46","12","null","","","","Images/WhiteBeadChoiceCorrect.png","null"
"image-keyboard-response","167","712972","0.0-4.0-0.47","12","443","","","","Images/NewTrialWC.png","39"
"image-keyboard-response","168","713223","0.0-4.0-1.47","12","null","","","","Images/WhiteBeadChoice.png","null"
"image-keyboard-response","169","713724","0.0-4.0-2.47","12","null","","","","Images/WhiteBeadChoiceCorrect.png","null"
"image-keyboard-response","170","714647","0.0-4.0-0.48","12","924","","","","Images/NewTrialWC.png","39"
"image-keyboard-response","171","714898","0.0-4.0-1.48","12","null","","","","Images/WhiteBeadChoice.png","null"
"image-keyboard-response","172","715398","0.0-4.0-2.48","12","null","","","","Images/WhiteBeadChoiceCorrect.png","null"
"image-keyboard-response","173","716098","0.0-4.0-0.49","12","700","","","","Images/NewTrialWC.png","39"
"image-keyboard-response","174","716350","0.0-4.0-1.49","12","null","","","","Images/WhiteBeadChoice.png","null"
"image-keyboard-response","175","716851","0.0-4.0-2.49","12","null","","","","Images/WhiteBeadChoiceCorrect.png","null"
"image-keyboard-response","176","718373","0.0-4.0-0.50","12","1521","","","","Images/NewTrialWC.png","39"
"image-keyboard-response","177","718624","0.0-4.0-1.50","12","null","","","","Images/WhiteBeadChoice.png","null"
"image-keyboard-response","178","719124","0.0-4.0-2.50","12","null","","","","Images/WhiteBeadChoiceWrong.png","null"
"image-keyboard-response","179","719513","0.0-4.0-0.51","12","388","","","","Images/NewTrialBC.png","37"
"image-keyboard-response","180","719763","0.0-4.0-1.51","12","null","","","","Images/BlackBeadChoice.png","null"
"image-keyboard-response","181","720264","0.0-4.0-2.51","12","null","","","","Images/BlackBeadChoiceCorrect.png","null"
"image-keyboard-response","182","720658","0.0-4.0-0.52","12","395","","","","Images/NewTrialBC.png","37"
"image-keyboard-response","183","720910","0.0-4.0-1.52","12","null","","","","Images/BlackBeadChoice.png","null"
"image-keyboard-response","184","721411","0.0-4.0-2.52","12","null","","","","Images/BlackBeadChoiceWrong.png","null"
"image-keyboard-response","185","721880","0.0-4.0-0.53","12","469","","","","Images/NewTrialWC.png","39"
"image-keyboard-response","186","722132","0.0-4.0-1.53","12","null","","","","Images/WhiteBeadChoice.png","null"
"image-keyboard-response","187","722632","0.0-4.0-2.53","12","null","","","","Images/WhiteBeadChoiceCorrect.png","null"
"image-keyboard-response","188","723851","0.0-4.0-0.54","12","1217","","","","Images/NewTrialWC.png","39"
"image-keyboard-response","189","724101","0.0-4.0-1.54","12","null","","","","Images/WhiteBeadChoice.png","null"
"image-keyboard-response","190","724603","0.0-4.0-2.54","12","null","","","","Images/WhiteBeadChoiceWrong.png","null"
"image-keyboard-response","191","726457","0.0-4.0-0.55","12","1853","","","","Images/NewTrialBC.png","37"
"image-keyboard-response","192","726708","0.0-4.0-1.55","12","null","","","","Images/BlackBeadChoice.png","null"
"image-keyboard-response","193","727209","0.0-4.0-2.55","12","null","","","","Images/BlackBeadChoiceWrong.png","null"
"image-keyboard-response","194","727928","0.0-4.0-0.56","12","720","","","","Images/NewTrialWC.png","39"
"image-keyboard-response","195","728180","0.0-4.0-1.56","12","null","","","","Images/WhiteBeadChoice.png","null"
"image-keyboard-response","196","728681","0.0-4.0-2.56","12","null","","","","Images/WhiteBeadChoiceCorrect.png","null"
"image-keyboard-response","197","729745","0.0-4.0-0.57","12","1064","","","","Images/NewTrialWC.png","39"
"image-keyboard-response","198","729995","0.0-4.0-1.57","12","null","","","","Images/WhiteBeadChoice.png","null"
"image-keyboard-response","199","730497","0.0-4.0-2.57","12","null","","","","Images/WhiteBeadChoiceCorrect.png","null"
"image-keyboard-response","200","730986","0.0-4.0-0.58","12","488","","","","Images/NewTrialWC.png","39"
"image-keyboard-response","201","731238","0.0-4.0-1.58","12","null","","","","Images/WhiteBeadChoice.png","null"
"image-keyboard-response","202","731738","0.0-4.0-2.58","12","null","","","","Images/WhiteBeadChoiceCorrect.png","null"
"image-keyboard-response","203","732056","0.0-4.0-0.59","12","317","","","","Images/NewTrialWC.png","39"
"image-keyboard-response","204","732307","0.0-4.0-1.59","12","null","","","","Images/WhiteBeadChoice.png","null"
"image-keyboard-response","205","732808","0.0-4.0-2.59","12","null","","","","Images/WhiteBeadChoiceCorrect.png","null"
"image-keyboard-response","206","732883","0.0-4.0-0.60","12","75","","","","Images/NewTrialWC.png","39"
"image-keyboard-response","207","733134","0.0-4.0-1.60","12","null","","","","Images/WhiteBeadChoice.png","null"
"image-keyboard-response","208","733635","0.0-4.0-2.60","12","null","","","","Images/WhiteBeadChoiceCorrect.png","null"
"image-keyboard-response","209","733671","0.0-4.0-0.61","12","35","","","","Images/NewTrialWC.png","39"
"image-keyboard-response","210","733922","0.0-4.0-1.61","12","null","","","","Images/WhiteBeadChoice.png","null"
"image-keyboard-response","211","734424","0.0-4.0-2.61","12","null","","","","Images/WhiteBeadChoiceCorrect.png","null"
"image-keyboard-response","212","734515","0.0-4.0-0.62","12","90","","","","Images/NewTrialWC.png","39"
"image-keyboard-response","213","734766","0.0-4.0-1.62","12","null","","","","Images/WhiteBeadChoice.png","null"
"image-keyboard-response","214","735267","0.0-4.0-2.62","12","null","","","","Images/WhiteBeadChoiceCorrect.png","null"
"image-keyboard-response","215","735378","0.0-4.0-0.63","12","112","","","","Images/NewTrialWC.png","39"
"image-keyboard-response","216","735629","0.0-4.0-1.63","12","null","","","","Images/WhiteBeadChoice.png","null"
"image-keyboard-response","217","736131","0.0-4.0-2.63","12","null","","","","Images/WhiteBeadChoiceCorrect.png","null"
"image-keyboard-response","218","736329","0.0-4.0-0.64","12","196","","","","Images/NewTrialWC.png","39"
"image-keyboard-response","219","736580","0.0-4.0-1.64","12","null","","","","Images/WhiteBeadChoice.png","null"
"image-keyboard-response","220","737081","0.0-4.0-2.64","12","null","","","","Images/WhiteBeadChoiceWrong.png","null"
"image-keyboard-response","221","737248","0.0-4.0-0.65","12","166","","","","Images/NewTrialBC.png","37"
"image-keyboard-response","222","737498","0.0-4.0-1.65","12","null","","","","Images/BlackBeadChoice.png","null"
"image-keyboard-response","223","738001","0.0-4.0-2.65","12","null","","","","Images/BlackBeadChoiceWrong.png","null"
"image-keyboard-response","224","738152","0.0-4.0-0.66","12","151","","","","Images/NewTrialWC.png","39"
"image-keyboard-response","225","738403","0.0-4.0-1.66","12","null","","","","Images/WhiteBeadChoice.png","null"
"image-keyboard-response","226","738904","0.0-4.0-2.66","12","null","","","","Images/WhiteBeadChoiceCorrect.png","null"
"image-keyboard-response","227","739121","0.0-4.0-0.67","12","217","","","","Images/NewTrialWC.png","39"
"image-keyboard-response","228","739372","0.0-4.0-1.67","12","null","","","","Images/WhiteBeadChoice.png","null"
"image-keyboard-response","229","739874","0.0-4.0-2.67","12","null","","","","Images/WhiteBeadChoiceCorrect.png","null"
"image-keyboard-response","230","740026","0.0-4.0-0.68","12","152","","","","Images/NewTrialWC.png","39"
"image-keyboard-response","231","740277","0.0-4.0-1.68","12","null","","","","Images/WhiteBeadChoice.png","null"
"image-keyboard-response","232","740778","0.0-4.0-2.68","12","null","","","","Images/WhiteBeadChoiceWrong.png","null"
"image-keyboard-response","233","740965","0.0-4.0-0.69","12","186","","","","Images/NewTrialBC.png","37"
"image-keyboard-response","234","741216","0.0-4.0-1.69","12","null","","","","Images/BlackBeadChoice.png","null"
"image-keyboard-response","235","741716","0.0-4.0-2.69","12","null","","","","Images/BlackBeadChoiceWrong.png","null"
"image-keyboard-response","236","741971","0.0-4.0-0.70","12","254","","","","Images/NewTrialWC.png","39"
"image-keyboard-response","237","742222","0.0-4.0-1.70","12","null","","","","Images/WhiteBeadChoice.png","null"
"image-keyboard-response","238","742722","0.0-4.0-2.70","12","null","","","","Images/WhiteBeadChoiceWrong.png","null"
"image-keyboard-response","239","742936","0.0-4.0-0.71","12","212","","","","Images/NewTrialBC.png","37"
"image-keyboard-response","240","743186","0.0-4.0-1.71","12","null","","","","Images/BlackBeadChoice.png","null"
"image-keyboard-response","241","743688","0.0-4.0-2.71","12","null","","","","Images/BlackBeadChoiceCorrect.png","null"
"image-keyboard-response","242","743864","0.0-4.0-0.72","12","176","","","","Images/NewTrialBC.png","37"
"image-keyboard-response","243","744116","0.0-4.0-1.72","12","null","","","","Images/BlackBeadChoice.png","null"
"image-keyboard-response","244","744616","0.0-4.0-2.72","12","null","","","","Images/BlackBeadChoiceCorrect.png","null"
"image-keyboard-response","245","744854","0.0-4.0-0.73","12","237","","","","Images/NewTrialBC.png","37"
"image-keyboard-response","246","745105","0.0-4.0-1.73","12","null","","","","Images/BlackBeadChoice.png","null"
"image-keyboard-response","247","745607","0.0-4.0-2.73","12","null","","","","Images/BlackBeadChoiceCorrect.png","null"
"image-keyboard-response","248","745898","0.0-4.0-0.74","12","291","","","","Images/NewTrialBC.png","37"
"image-keyboard-response","249","746149","0.0-4.0-1.74","12","null","","","","Images/BlackBeadChoice.png","null"
"image-keyboard-response","250","746649","0.0-4.0-2.74","12","null","","","","Images/BlackBeadChoiceCorrect.png","null"
"image-keyboard-response","251","746932","0.0-4.0-0.75","12","282","","","","Images/NewTrialBC.png","37"
"image-keyboard-response","252","747184","0.0-4.0-1.75","12","null","","","","Images/BlackBeadChoice.png","null"
"image-keyboard-response","253","747685","0.0-4.0-2.75","12","null","","","","Images/BlackBeadChoiceCorrect.png","null"
"image-keyboard-response","254","747926","0.0-4.0-0.76","12","242","","","","Images/NewTrialBC.png","37"
"image-keyboard-response","255","748177","0.0-4.0-1.76","12","null","","","","Images/BlackBeadChoice.png","null"
"image-keyboard-response","256","748677","0.0-4.0-2.76","12","null","","","","Images/BlackBeadChoiceCorrect.png","null"
"image-keyboard-response","257","748923","0.0-4.0-0.77","12","245","","","","Images/NewTrialBC.png","37"
"image-keyboard-response","258","749173","0.0-4.0-1.77","12","null","","","","Images/BlackBeadChoice.png","null"
"image-keyboard-response","259","749674","0.0-4.0-2.77","12","null","","","","Images/BlackBeadChoiceCorrect.png","null"
"image-keyboard-response","260","749929","0.0-4.0-0.78","12","254","","","","Images/NewTrialBC.png","37"
"image-keyboard-response","261","750179","0.0-4.0-1.78","12","null","","","","Images/BlackBeadChoice.png","null"
"image-keyboard-response","262","750680","0.0-4.0-2.78","12","null","","","","Images/BlackBeadChoiceCorrect.png","null"
"image-keyboard-response","263","750907","0.0-4.0-0.79","12","225","","","","Images/NewTrialBC.png","37"
"image-keyboard-response","264","751158","0.0-4.0-1.79","12","null","","","","Images/BlackBeadChoice.png","null"
"image-keyboard-response","265","751658","0.0-4.0-2.79","12","null","","","","Images/BlackBeadChoiceWrong.png","null"
"image-keyboard-response","266","751883","0.0-4.0-0.80","12","223","","","","Images/NewTrialWC.png","39"
"image-keyboard-response","267","752135","0.0-4.0-1.80","12","null","","","","Images/WhiteBeadChoice.png","null"
"image-keyboard-response","268","752635","0.0-4.0-2.80","12","null","","","","Images/WhiteBeadChoiceCorrect.png","null"
"image-keyboard-response","269","752984","0.0-4.0-0.81","12","348","","","","Images/NewTrialWC.png","39"
"image-keyboard-response","270","753235","0.0-4.0-1.81","12","null","","","","Images/WhiteBeadChoice.png","null"
"image-keyboard-response","271","753737","0.0-4.0-2.81","12","null","","","","Images/WhiteBeadChoiceCorrect.png","null"
"image-keyboard-response","272","754000","0.0-4.0-0.82","12","264","","","","Images/NewTrialWC.png","39"
"image-keyboard-response","273","754251","0.0-4.0-1.82","12","null","","","","Images/WhiteBeadChoice.png","null"
"image-keyboard-response","274","754751","0.0-4.0-2.82","12","null","","","","Images/WhiteBeadChoiceWrong.png","null"
"image-keyboard-response","275","755024","0.0-4.0-0.83","12","272","","","","Images/NewTrialBC.png","37"
"image-keyboard-response","276","755275","0.0-4.0-1.83","12","null","","","","Images/BlackBeadChoice.png","null"
"image-keyboard-response","277","755776","0.0-4.0-2.83","12","null","","","","Images/BlackBeadChoiceCorrect.png","null"
"image-keyboard-response","278","756053","0.0-4.0-0.84","12","277","","","","Images/NewTrialBC.png","37"
"image-keyboard-response","279","756305","0.0-4.0-1.84","12","null","","","","Images/BlackBeadChoice.png","null"
"image-keyboard-response","280","756805","0.0-4.0-2.84","12","null","","","","Images/BlackBeadChoiceCorrect.png","null"
"image-keyboard-response","281","757053","0.0-4.0-0.85","12","248","","","","Images/NewTrialBC.png","37"
"image-keyboard-response","282","757304","0.0-4.0-1.85","12","null","","","","Images/BlackBeadChoice.png","null"
"image-keyboard-response","283","757804","0.0-4.0-2.85","12","null","","","","Images/BlackBeadChoiceCorrect.png","null"
"image-keyboard-response","284","758252","0.0-4.0-0.86","12","446","","","","Images/NewTrialBC.png","37"
"image-keyboard-response","285","758503","0.0-4.0-1.86","12","null","","","","Images/BlackBeadChoice.png","null"
"image-keyboard-response","286","759004","0.0-4.0-2.86","12","null","","","","Images/BlackBeadChoiceCorrect.png","null"
"image-keyboard-response","287","759268","0.0-4.0-0.87","12","263","","","","Images/NewTrialBC.png","37"
"image-keyboard-response","288","759518","0.0-4.0-1.87","12","null","","","","Images/BlackBeadChoice.png","null"
"image-keyboard-response","289","760019","0.0-4.0-2.87","12","null","","","","Images/BlackBeadChoiceCorrect.png","null"
"image-keyboard-response","290","760300","0.0-4.0-0.88","12","281","","","","Images/NewTrialBC.png","37"
"image-keyboard-response","291","760552","0.0-4.0-1.88","12","null","","","","Images/BlackBeadChoice.png","null"
"image-keyboard-response","292","761052","0.0-4.0-2.88","12","null","","","","Images/BlackBeadChoiceCorrect.png","null"
"image-keyboard-response","293","761609","0.0-4.0-0.89","12","555","","","","Images/NewTrialBC.png","37"
"image-keyboard-response","294","761859","0.0-4.0-1.89","12","null","","","","Images/BlackBeadChoice.png","null"
"image-keyboard-response","295","762360","0.0-4.0-2.89","12","null","","","","Images/BlackBeadChoiceCorrect.png","null"
"image-keyboard-response","296","762926","0.0-4.0-0.90","12","565","","","","Images/NewTrialBC.png","37"
"image-keyboard-response","297","763177","0.0-4.0-1.90","12","null","","","","Images/BlackBeadChoice.png","null"
"image-keyboard-response","298","763678","0.0-4.0-2.90","12","null","","","","Images/BlackBeadChoiceCorrect.png","null"
"image-keyboard-response","299","763910","0.0-4.0-0.91","12","231","","","","Images/NewTrialBC.png","37"
"image-keyboard-response","300","764161","0.0-4.0-1.91","12","null","","","","Images/BlackBeadChoice.png","null"
"image-keyboard-response","301","764661","0.0-4.0-2.91","12","null","","","","Images/BlackBeadChoiceCorrect.png","null"
"image-keyboard-response","302","764920","0.0-4.0-0.92","12","258","","","","Images/NewTrialBC.png","37"
"image-keyboard-response","303","765170","0.0-4.0-1.92","12","null","","","","Images/BlackBeadChoice.png","null"
"image-keyboard-response","304","765672","0.0-4.0-2.92","12","null","","","","Images/BlackBeadChoiceWrong.png","null"
"image-keyboard-response","305","765921","0.0-4.0-0.93","12","248","","","","Images/NewTrialWC.png","39"
"image-keyboard-response","306","766172","0.0-4.0-1.93","12","null","","","","Images/WhiteBeadChoice.png","null"
"image-keyboard-response","307","766673","0.0-4.0-2.93","12","null","","","","Images/WhiteBeadChoiceCorrect.png","null"
"image-keyboard-response","308","766917","0.0-4.0-0.94","12","243","","","","Images/NewTrialWC.png","39"
"image-keyboard-response","309","767168","0.0-4.0-1.94","12","null","","","","Images/WhiteBeadChoice.png","null"
"image-keyboard-response","310","767668","0.0-4.0-2.94","12","null","","","","Images/WhiteBeadChoiceWrong.png","null"
"image-keyboard-response","311","767920","0.0-4.0-0.95","12","253","","","","Images/NewTrialBC.png","37"
"image-keyboard-response","312","768172","0.0-4.0-1.95","12","null","","","","Images/BlackBeadChoice.png","null"
"image-keyboard-response","313","768673","0.0-4.0-2.95","12","null","","","","Images/BlackBeadChoiceCorrect.png","null"
"image-keyboard-response","314","768780","0.0-4.0-0.96","12","106","","","","Images/NewTrialBC.png","37"
"image-keyboard-response","315","769031","0.0-4.0-1.96","12","null","","","","Images/BlackBeadChoice.png","null"
"image-keyboard-response","316","769531","0.0-4.0-2.96","12","null","","","","Images/BlackBeadChoiceCorrect.png","null"
"image-keyboard-response","317","769882","0.0-4.0-0.97","12","350","","","","Images/NewTrialBC.png","37"
"image-keyboard-response","318","770134","0.0-4.0-1.97","12","null","","","","Images/BlackBeadChoice.png","null"
"image-keyboard-response","319","770634","0.0-4.0-2.97","12","null","","","","Images/BlackBeadChoiceWrong.png","null"
"image-keyboard-response","320","770855","0.0-4.0-0.98","12","219","","","","Images/NewTrialWC.png","39"
"image-keyboard-response","321","771107","0.0-4.0-1.98","12","null","","","","Images/WhiteBeadChoice.png","null"
"image-keyboard-response","322","771608","0.0-4.0-2.98","12","null","","","","Images/WhiteBeadChoiceCorrect.png","null"
"image-keyboard-response","323","771827","0.0-4.0-0.99","12","219","","","","Images/NewTrialWC.png","39"
"image-keyboard-response","324","772078","0.0-4.0-1.99","12","null","","","","Images/WhiteBeadChoice.png","null"
"image-keyboard-response","325","772579","0.0-4.0-2.99","12","null","","","","Images/WhiteBeadChoiceCorrect.png","null"
"image-keyboard-response","326","773053","0.0-4.0-0.100","12","475","","","","Images/NewTrialWC.png","39"
"image-keyboard-response","327","773304","0.0-4.0-1.100","12","null","","","","Images/WhiteBeadChoice.png","null"
"image-keyboard-response","328","773804","0.0-4.0-2.100","12","null","","","","Images/WhiteBeadChoiceCorrect.png","null"
"image-keyboard-response","329","774116","0.0-4.0-0.101","12","312","","","","Images/NewTrialWC.png","39"
"image-keyboard-response","330","774367","0.0-4.0-1.101","12","null","","","","Images/WhiteBeadChoice.png","null"
"image-keyboard-response","331","774868","0.0-4.0-2.101","12","null","","","","Images/WhiteBeadChoiceCorrect.png","null"
"image-keyboard-response","332","778998","0.0-4.0-0.102","12","4129","","","","Images/NewTrialWC.png","39"
"image-keyboard-response","333","779250","0.0-4.0-1.102","12","null","","","","Images/WhiteBeadChoice.png","null"
"image-keyboard-response","334","779750","0.0-4.0-2.102","12","null","","","","Images/WhiteBeadChoiceWrong.png","null"
"image-keyboard-response","335","780402","0.0-4.0-0.103","12","651","","","","Images/NewTrialBC.png","37"
"image-keyboard-response","336","780652","0.0-4.0-1.103","12","null","","","","Images/BlackBeadChoice.png","null"
"image-keyboard-response","337","781153","0.0-4.0-2.103","12","null","","","","Images/BlackBeadChoiceWrong.png","null"
"image-keyboard-response","338","781448","0.0-4.0-0.104","12","293","","","","Images/NewTrialWC.png","39"
"image-keyboard-response","339","781698","0.0-4.0-1.104","12","null","","","","Images/WhiteBeadChoice.png","null"
"image-keyboard-response","340","782199","0.0-4.0-2.104","12","null","","","","Images/WhiteBeadChoiceWrong.png","null"
"image-keyboard-response","341","782574","0.0-4.0-0.105","12","373","","","","Images/NewTrialBC.png","37"
"image-keyboard-response","342","782825","0.0-4.0-1.105","12","null","","","","Images/BlackBeadChoice.png","null"
"image-keyboard-response","343","783325","0.0-4.0-2.105","12","null","","","","Images/BlackBeadChoiceWrong.png","null"
"image-keyboard-response","344","783858","0.0-4.0-0.106","12","534","","","","Images/NewTrialWC.png","39"
"image-keyboard-response","345","784110","0.0-4.0-1.106","12","null","","","","Images/WhiteBeadChoice.png","null"
"image-keyboard-response","346","784610","0.0-4.0-2.106","12","null","","","","Images/WhiteBeadChoiceCorrect.png","null"
"image-keyboard-response","347","784920","0.0-4.0-0.107","12","309","","","","Images/NewTrialWC.png","39"
"image-keyboard-response","348","785172","0.0-4.0-1.107","12","null","","","","Images/WhiteBeadChoice.png","null"
"image-keyboard-response","349","785674","0.0-4.0-2.107","12","null","","","","Images/WhiteBeadChoiceCorrect.png","null"
"image-keyboard-response","350","785787","0.0-4.0-0.108","12","113","","","","Images/NewTrialWC.png","39"
"image-keyboard-response","351","786038","0.0-4.0-1.108","12","null","","","","Images/WhiteBeadChoice.png","null"
"image-keyboard-response","352","786538","0.0-4.0-2.108","12","282","","","","Images/WhiteBeadChoiceCorrect.png","39"
"image-keyboard-response","353","787155","0.0-4.0-0.109","12","616","","","","Images/NewTrialWC.png","39"
"image-keyboard-response","354","787406","0.0-4.0-1.109","12","null","","","","Images/WhiteBeadChoice.png","null"
"image-keyboard-response","355","787907","0.0-4.0-2.109","12","null","","","","Images/WhiteBeadChoiceCorrect.png","null"
"image-keyboard-response","356","788008","0.0-4.0-0.110","12","102","","","","Images/NewTrialWC.png","39"
"image-keyboard-response","357","788260","0.0-4.0-1.110","12","null","","","","Images/WhiteBeadChoice.png","null"
"image-keyboard-response","358","788761","0.0-4.0-2.110","12","null","","","","Images/WhiteBeadChoiceCorrect.png","null"
"image-keyboard-response","359","788778","0.0-4.0-0.111","12","17","","","","Images/NewTrialWC.png","39"
"image-keyboard-response","360","789028","0.0-4.0-1.111","12","null","","","","Images/WhiteBeadChoice.png","null"
"image-keyboard-response","361","789530","0.0-4.0-2.111","12","null","","","","Images/WhiteBeadChoiceCorrect.png","null"
"image-keyboard-response","362","789610","0.0-4.0-0.112","12","80","","","","Images/NewTrialWC.png","39"
"image-keyboard-response","363","789862","0.0-4.0-1.112","12","null","","","","Images/WhiteBeadChoice.png","null"
"image-keyboard-response","364","790362","0.0-4.0-2.112","12","486","","","","Images/WhiteBeadChoiceCorrect.png","39"
"image-keyboard-response","365","790853","0.0-4.0-0.113","12","490","","","","Images/NewTrialWC.png","39"
"image-keyboard-response","366","791104","0.0-4.0-1.113","12","null","","","","Images/WhiteBeadChoice.png","null"
"image-keyboard-response","367","791605","0.0-4.0-2.113","12","431","","","","Images/WhiteBeadChoiceCorrect.png","39"
"image-keyboard-response","368","792060","0.0-4.0-0.114","12","455","","","","Images/NewTrialWC.png","39"
"image-keyboard-response","369","792311","0.0-4.0-1.114","12","null","","","","Images/WhiteBeadChoice.png","null"
"image-keyboard-response","370","792813","0.0-4.0-2.114","12","null","","","","Images/WhiteBeadChoiceCorrect.png","null"
"image-keyboard-response","371","793028","0.0-4.0-0.115","12","214","","","","Images/NewTrialWC.png","39"
"image-keyboard-response","372","793278","0.0-4.0-1.115","12","null","","","","Images/WhiteBeadChoice.png","null"
"image-keyboard-response","373","793780","0.0-4.0-2.115","12","null","","","","Images/WhiteBeadChoiceCorrect.png","null"
"image-keyboard-response","374","793950","0.0-4.0-0.116","12","170","","","","Images/NewTrialWC.png","39"
"image-keyboard-response","375","794201","0.0-4.0-1.116","12","null","","","","Images/WhiteBeadChoice.png","null"
"image-keyboard-response","376","794701","0.0-4.0-2.116","12","null","","","","Images/WhiteBeadChoiceCorrect.png","null"
"image-keyboard-response","377","794898","0.0-4.0-0.117","12","196","","","","Images/NewTrialWC.png","39"
"image-keyboard-response","378","795149","0.0-4.0-1.117","12","null","","","","Images/WhiteBeadChoice.png","null"
"image-keyboard-response","379","795650","0.0-4.0-2.117","12","null","","","","Images/WhiteBeadChoiceCorrect.png","null"
"image-keyboard-response","380","795802","0.0-4.0-0.118","12","150","","","","Images/NewTrialWC.png","39"
"image-keyboard-response","381","796053","0.0-4.0-1.118","12","null","","","","Images/WhiteBeadChoice.png","null"
"image-keyboard-response","382","796554","0.0-4.0-2.118","12","null","","","","Images/WhiteBeadChoiceCorrect.png","null"
"image-keyboard-response","383","796769","0.0-4.0-0.119","12","215","","","","Images/NewTrialWC.png","39"
"image-keyboard-response","384","797020","0.0-4.0-1.119","12","null","","","","Images/WhiteBeadChoice.png","null"
"image-keyboard-response","385","797521","0.0-4.0-2.119","12","null","","","","Images/WhiteBeadChoiceWrong.png","null"
"image-keyboard-response","386","797656","0.0-4.0-0.120","12","135","","","","Images/NewTrialBC.png","37"
"image-keyboard-response","387","797907","0.0-4.0-1.120","12","null","","","","Images/BlackBeadChoice.png","null"
"image-keyboard-response","388","798408","0.0-4.0-2.120","12","null","","","","Images/BlackBeadChoiceWrong.png","null"
"image-keyboard-response","389","798621","0.0-4.0-0.121","12","213","","","","Images/NewTrialWC.png","39"
"image-keyboard-response","390","798872","0.0-4.0-1.121","12","null","","","","Images/WhiteBeadChoice.png","null"
"image-keyboard-response","391","799373","0.0-4.0-2.121","12","null","","","","Images/WhiteBeadChoiceCorrect.png","null"
"image-keyboard-response","392","799528","0.0-4.0-0.122","12","154","","","","Images/NewTrialWC.png","39"
"image-keyboard-response","393","799778","0.0-4.0-1.122","12","null","","","","Images/WhiteBeadChoice.png","null"
"image-keyboard-response","394","800278","0.0-4.0-2.122","12","null","","","","Images/WhiteBeadChoiceWrong.png","null"
"image-keyboard-response","395","800400","0.0-4.0-0.123","12","121","","","","Images/NewTrialBC.png","37"
"image-keyboard-response","396","800650","0.0-4.0-1.123","12","null","","","","Images/BlackBeadChoice.png","null"
"image-keyboard-response","397","801150","0.0-4.0-2.123","12","null","","","","Images/BlackBeadChoiceWrong.png","null"
"image-keyboard-response","398","801336","0.0-4.0-0.124","12","185","","","","Images/NewTrialWC.png","39"
"image-keyboard-response","399","801587","0.0-4.0-1.124","12","null","","","","Images/WhiteBeadChoice.png","null"
"image-keyboard-response","400","802087","0.0-4.0-2.124","12","null","","","","Images/WhiteBeadChoiceCorrect.png","null"
"image-keyboard-response","401","802303","0.0-4.0-0.125","12","216","","","","Images/NewTrialWC.png","39"
"image-keyboard-response","402","802554","0.0-4.0-1.125","12","null","","","","Images/WhiteBeadChoice.png","null"
"image-keyboard-response","403","803055","0.0-4.0-2.125","12","null","","","","Images/WhiteBeadChoiceCorrect.png","null"
"image-keyboard-response","404","803167","0.0-4.0-0.126","12","112","","","","Images/NewTrialWC.png","39"
"image-keyboard-response","405","803418","0.0-4.0-1.126","12","null","","","","Images/WhiteBeadChoice.png","null"
"image-keyboard-response","406","803919","0.0-4.0-2.126","12","null","","","","Images/WhiteBeadChoiceCorrect.png","null"
"image-keyboard-response","407","803993","0.0-4.0-0.127","12","73","","","","Images/NewTrialWC.png","39"
"image-keyboard-response","408","804244","0.0-4.0-1.127","12","null","","","","Images/WhiteBeadChoice.png","null"
"image-keyboard-response","409","804745","0.0-4.0-2.127","12","null","","","","Images/WhiteBeadChoiceCorrect.png","null"
"image-keyboard-response","410","804970","0.0-4.0-0.128","12","225","","","","Images/NewTrialWC.png","39"
"image-keyboard-response","411","805221","0.0-4.0-1.128","12","null","","","","Images/WhiteBeadChoice.png","null"
"image-keyboard-response","412","805722","0.0-4.0-2.128","12","null","","","","Images/WhiteBeadChoiceCorrect.png","null"
"image-keyboard-response","413","805786","0.0-4.0-0.129","12","63","","","","Images/NewTrialWC.png","39"
"image-keyboard-response","414","806036","0.0-4.0-1.129","12","null","","","","Images/WhiteBeadChoice.png","null"
"image-keyboard-response","415","806538","0.0-4.0-2.129","12","null","","","","Images/WhiteBeadChoiceWrong.png","null"
"image-keyboard-response","416","806642","0.0-4.0-0.130","12","103","","","","Images/NewTrialBC.png","37"
"image-keyboard-response","417","806892","0.0-4.0-1.130","12","null","","","","Images/BlackBeadChoice.png","null"
"image-keyboard-response","418","807394","0.0-4.0-2.130","12","null","","","","Images/BlackBeadChoiceWrong.png","null"
"image-keyboard-response","419","807539","0.0-4.0-0.131","12","144","","","","Images/NewTrialWC.png","39"
"image-keyboard-response","420","807791","0.0-4.0-1.131","12","null","","","","Images/WhiteBeadChoice.png","null"
"image-keyboard-response","421","808292","0.0-4.0-2.131","12","null","","","","Images/WhiteBeadChoiceCorrect.png","null"
"image-keyboard-response","422","808412","0.0-4.0-0.132","12","120","","","","Images/NewTrialWC.png","39"
"image-keyboard-response","423","808663","0.0-4.0-1.132","12","null","","","","Images/WhiteBeadChoice.png","null"
"image-keyboard-response","424","809164","0.0-4.0-2.132","12","null","","","","Images/WhiteBeadChoiceWrong.png","null"
"image-keyboard-response","425","809193","0.0-4.0-0.133","12","30","","","","Images/NewTrialBC.png","37"
"image-keyboard-response","426","809445","0.0-4.0-1.133","12","null","","","","Images/BlackBeadChoice.png","null"
"image-keyboard-response","427","809946","0.0-4.0-2.133","12","null","","","","Images/BlackBeadChoiceWrong.png","null"
"image-keyboard-response","428","810303","0.0-4.0-0.134","12","357","","","","Images/NewTrialWC.png","39"
"image-keyboard-response","429","810555","0.0-4.0-1.134","12","null","","","","Images/WhiteBeadChoice.png","null"
"image-keyboard-response","430","811055","0.0-4.0-2.134","12","null","","","","Images/WhiteBeadChoiceCorrect.png","null"
"image-keyboard-response","431","811231","0.0-4.0-0.135","12","175","","","","Images/NewTrialWC.png","39"
"image-keyboard-response","432","811481","0.0-4.0-1.135","12","null","","","","Images/WhiteBeadChoice.png","null"
"image-keyboard-response","433","811982","0.0-4.0-2.135","12","null","","","","Images/WhiteBeadChoiceCorrect.png","null"
"image-keyboard-response","434","812088","0.0-4.0-0.136","12","104","","","","Images/NewTrialWC.png","39"
"image-keyboard-response","435","812339","0.0-4.0-1.136","12","null","","","","Images/WhiteBeadChoice.png","null"
"image-keyboard-response","436","812840","0.0-4.0-2.136","12","null","","","","Images/WhiteBeadChoiceWrong.png","null"
"image-keyboard-response","437","812958","0.0-4.0-0.137","12","117","","","","Images/NewTrialBC.png","37"
"image-keyboard-response","438","813209","0.0-4.0-1.137","12","null","","","","Images/BlackBeadChoice.png","null"
"image-keyboard-response","439","813710","0.0-4.0-2.137","12","null","","","","Images/BlackBeadChoiceCorrect.png","null"
"image-keyboard-response","440","813956","0.0-4.0-0.138","12","245","","","","Images/NewTrialBC.png","37"
"image-keyboard-response","441","814207","0.0-4.0-1.138","12","null","","","","Images/BlackBeadChoice.png","null"
"image-keyboard-response","442","814708","0.0-4.0-2.138","12","null","","","","Images/BlackBeadChoiceCorrect.png","null"
"image-keyboard-response","443","814826","0.0-4.0-0.139","12","118","","","","Images/NewTrialBC.png","37"
"image-keyboard-response","444","815078","0.0-4.0-1.139","12","null","","","","Images/BlackBeadChoice.png","null"
"image-keyboard-response","445","815579","0.0-4.0-2.139","12","null","","","","Images/BlackBeadChoiceCorrect.png","null"
"image-keyboard-response","446","815740","0.0-4.0-0.140","12","161","","","","Images/NewTrialBC.png","37"
"image-keyboard-response","447","815991","0.0-4.0-1.140","12","null","","","","Images/BlackBeadChoice.png","null"
"image-keyboard-response","448","816492","0.0-4.0-2.140","12","null","","","","Images/BlackBeadChoiceCorrect.png","null"
"image-keyboard-response","449","816657","0.0-4.0-0.141","12","164","","","","Images/NewTrialBC.png","37"
"image-keyboard-response","450","816907","0.0-4.0-1.141","12","null","","","","Images/BlackBeadChoice.png","null"
"image-keyboard-response","451","817407","0.0-4.0-2.141","12","null","","","","Images/BlackBeadChoiceCorrect.png","null"
"image-keyboard-response","452","817683","0.0-4.0-0.142","12","273","","","","Images/NewTrialBC.png","37"
"image-keyboard-response","453","817933","0.0-4.0-1.142","12","null","","","","Images/BlackBeadChoice.png","null"
"image-keyboard-response","454","818434","0.0-4.0-2.142","12","null","","","","Images/BlackBeadChoiceWrong.png","null"
"image-keyboard-response","455","818842","0.0-4.0-0.143","12","408","","","","Images/NewTrialWC.png","39"
"image-keyboard-response","456","819093","0.0-4.0-1.143","12","null","","","","Images/WhiteBeadChoice.png","null"
"image-keyboard-response","457","819593","0.0-4.0-2.143","12","null","","","","Images/WhiteBeadChoiceWrong.png","null"
"image-keyboard-response","458","819840","0.0-4.0-0.144","12","245","","","","Images/NewTrialBC.png","37"
"image-keyboard-response","459","820090","0.0-4.0-1.144","12","null","","","","Images/BlackBeadChoice.png","null"
"image-keyboard-response","460","820590","0.0-4.0-2.144","12","null","","","","Images/BlackBeadChoiceWrong.png","null"
"image-keyboard-response","461","820776","0.0-4.0-0.145","12","186","","","","Images/NewTrialWC.png","39"
"image-keyboard-response","462","821028","0.0-4.0-1.145","12","null","","","","Images/WhiteBeadChoice.png","null"
"image-keyboard-response","463","821529","0.0-4.0-2.145","12","null","","","","Images/WhiteBeadChoiceCorrect.png","null"
"image-keyboard-response","464","821595","0.0-4.0-0.146","12","67","","","","Images/NewTrialWC.png","39"
"image-keyboard-response","465","821846","0.0-4.0-1.146","12","null","","","","Images/WhiteBeadChoice.png","null"
"image-keyboard-response","466","822347","0.0-4.0-2.146","12","null","","","","Images/WhiteBeadChoiceWrong.png","null"
"image-keyboard-response","467","822531","0.0-4.0-0.147","12","184","","","","Images/NewTrialBC.png","37"
"image-keyboard-response","468","822782","0.0-4.0-1.147","12","null","","","","Images/BlackBeadChoice.png","null"
"image-keyboard-response","469","823282","0.0-4.0-2.147","12","null","","","","Images/BlackBeadChoiceCorrect.png","null"
"image-keyboard-response","470","823480","0.0-4.0-0.148","12","197","","","","Images/NewTrialBC.png","37"
"image-keyboard-response","471","823731","0.0-4.0-1.148","12","null","","","","Images/BlackBeadChoice.png","null"
"image-keyboard-response","472","824232","0.0-4.0-2.148","12","null","","","","Images/BlackBeadChoiceCorrect.png","null"
"image-keyboard-response","473","824364","0.0-4.0-0.149","12","132","","","","Images/NewTrialBC.png","37"
"image-keyboard-response","474","824615","0.0-4.0-1.149","12","null","","","","Images/BlackBeadChoice.png","null"
"image-keyboard-response","475","825115","0.0-4.0-2.149","12","null","","","","Images/BlackBeadChoiceCorrect.png","null"
"image-keyboard-response","476","825150","0.0-4.0-0.150","12","34","","","","Images/NewTrialBC.png","37"
"image-keyboard-response","477","825401","0.0-4.0-1.150","12","null","","","","Images/BlackBeadChoice.png","null"
"image-keyboard-response","478","825902","0.0-4.0-2.150","12","null","","","","Images/BlackBeadChoiceCorrect.png","null"
"image-keyboard-response","479","826048","0.0-4.0-0.151","12","145","","","","Images/NewTrialBC.png","37"
"image-keyboard-response","480","826299","0.0-4.0-1.151","12","null","","","","Images/BlackBeadChoice.png","null"
"image-keyboard-response","481","826800","0.0-4.0-2.151","12","null","","","","Images/BlackBeadChoiceWrong.png","null"
"image-keyboard-response","482","826952","0.0-4.0-0.152","12","149","","","","Images/NewTrialWC.png","39"
"image-keyboard-response","483","827203","0.0-4.0-1.152","12","null","","","","Images/WhiteBeadChoice.png","null"
"image-keyboard-response","484","827705","0.0-4.0-2.152","12","null","","","","Images/WhiteBeadChoiceWrong.png","null"
"image-keyboard-response","485","827846","0.0-4.0-0.153","12","140","","","","Images/NewTrialBC.png","37"
"image-keyboard-response","486","828097","0.0-4.0-1.153","12","null","","","","Images/BlackBeadChoice.png","null"
"image-keyboard-response","487","828597","0.0-4.0-2.153","12","null","","","","Images/BlackBeadChoiceWrong.png","null"
"image-keyboard-response","488","828750","0.0-4.0-0.154","12","151","","","","Images/NewTrialWC.png","39"
"image-keyboard-response","489","829001","0.0-4.0-1.154","12","null","","","","Images/WhiteBeadChoice.png","null"
"image-keyboard-response","490","829502","0.0-4.0-2.154","12","null","","","","Images/WhiteBeadChoiceCorrect.png","null"
"image-keyboard-response","491","829648","0.0-4.0-0.155","12","145","","","","Images/NewTrialWC.png","39"
"image-keyboard-response","492","829900","0.0-4.0-1.155","12","null","","","","Images/WhiteBeadChoice.png","null"
"image-keyboard-response","493","830400","0.0-4.0-2.155","12","null","","","","Images/WhiteBeadChoiceCorrect.png","null"
"image-keyboard-response","494","830632","0.0-4.0-0.156","12","231","","","","Images/NewTrialWC.png","39"
"image-keyboard-response","495","830882","0.0-4.0-1.156","12","null","","","","Images/WhiteBeadChoice.png","null"
"image-keyboard-response","496","831384","0.0-4.0-2.156","12","null","","","","Images/WhiteBeadChoiceCorrect.png","null"
"image-keyboard-response","497","831565","0.0-4.0-0.157","12","181","","","","Images/NewTrialWC.png","39"
"image-keyboard-response","498","831815","0.0-4.0-1.157","12","null","","","","Images/WhiteBeadChoice.png","null"
"image-keyboard-response","499","832318","0.0-4.0-2.157","12","null","","","","Images/WhiteBeadChoiceWrong.png","null"
"image-keyboard-response","500","832453","0.0-4.0-0.158","12","134","","","","Images/NewTrialBC.png","37"
"image-keyboard-response","501","832703","0.0-4.0-1.158","12","null","","","","Images/BlackBeadChoice.png","null"
"image-keyboard-response","502","833204","0.0-4.0-2.158","12","null","","","","Images/BlackBeadChoiceWrong.png","null"
"image-keyboard-response","503","833253","0.0-4.0-0.159","12","48","","","","Images/NewTrialWC.png","39"
"image-keyboard-response","504","833504","0.0-4.0-1.159","12","null","","","","Images/WhiteBeadChoice.png","null"
"image-keyboard-response","505","834006","0.0-4.0-2.159","12","null","","","","Images/WhiteBeadChoiceCorrect.png","null"
"image-keyboard-response","506","834290","0.0-4.0-0.160","12","285","","","","Images/NewTrialWC.png","39"
"image-keyboard-response","507","834542","0.0-4.0-1.160","12","null","","","","Images/WhiteBeadChoice.png","null"
"image-keyboard-response","508","835042","0.0-4.0-2.160","12","488","","","","Images/WhiteBeadChoiceCorrect.png","39"
"image-keyboard-response","509","835678","0.0-4.0-0.161","12","636","","","","Images/NewTrialWC.png","39"
"image-keyboard-response","510","835929","0.0-4.0-1.161","12","null","","","","Images/WhiteBeadChoice.png","null"
"image-keyboard-response","511","836430","0.0-4.0-2.161","12","null","","","","Images/WhiteBeadChoiceCorrect.png","null"
"image-keyboard-response","512","836682","0.0-4.0-0.162","12","252","","","","Images/NewTrialWC.png","39"
"image-keyboard-response","513","836933","0.0-4.0-1.162","12","null","","","","Images/WhiteBeadChoice.png","null"
"image-keyboard-response","514","837433","0.0-4.0-2.162","12","null","","","","Images/WhiteBeadChoiceCorrect.png","null"
"image-keyboard-response","515","837615","0.0-4.0-0.163","12","180","","","","Images/NewTrialWC.png","39"
"image-keyboard-response","516","837866","0.0-4.0-1.163","12","null","","","","Images/WhiteBeadChoice.png","null"
"image-keyboard-response","517","838367","0.0-4.0-2.163","12","null","","","","Images/WhiteBeadChoiceWrong.png","null"
"image-keyboard-response","518","838477","0.0-4.0-0.164","12","108","","","","Images/NewTrialBC.png","37"
"image-keyboard-response","519","838727","0.0-4.0-1.164","12","null","","","","Images/BlackBeadChoice.png","null"
"image-keyboard-response","520","839227","0.0-4.0-2.164","12","null","","","","Images/BlackBeadChoiceWrong.png","null"
"image-keyboard-response","521","839403","0.0-4.0-0.165","12","176","","","","Images/NewTrialWC.png","39"
"image-keyboard-response","522","839653","0.0-4.0-1.165","12","null","","","","Images/WhiteBeadChoice.png","null"
"image-keyboard-response","523","840155","0.0-4.0-2.165","12","null","","","","Images/WhiteBeadChoiceCorrect.png","null"
"image-keyboard-response","524","840176","0.0-4.0-0.166","12","20","","","","Images/NewTrialWC.png","39"
"image-keyboard-response","525","840427","0.0-4.0-1.166","12","null","","","","Images/WhiteBeadChoice.png","null"
"image-keyboard-response","526","840928","0.0-4.0-2.166","12","null","","","","Images/WhiteBeadChoiceCorrect.png","null"
"image-keyboard-response","527","840941","0.0-4.0-0.167","12","12","","","","Images/NewTrialWC.png","39"
"image-keyboard-response","528","841193","0.0-4.0-1.167","12","null","","","","Images/WhiteBeadChoice.png","null"
"image-keyboard-response","529","841694","0.0-4.0-2.167","12","null","","","","Images/WhiteBeadChoiceCorrect.png","null"
"image-keyboard-response","530","841724","0.0-4.0-0.168","12","30","","","","Images/NewTrialWC.png","39"
"image-keyboard-response","531","841975","0.0-4.0-1.168","12","null","","","","Images/WhiteBeadChoice.png","null"
"image-keyboard-response","532","842476","0.0-4.0-2.168","12","null","","","","Images/WhiteBeadChoiceWrong.png","null"
"image-keyboard-response","533","842552","0.0-4.0-0.169","12","76","","","","Images/NewTrialBC.png","37"
"image-keyboard-response","534","842803","0.0-4.0-1.169","12","null","","","","Images/BlackBeadChoice.png","null"
"image-keyboard-response","535","843304","0.0-4.0-2.169","12","352","","","","Images/BlackBeadChoiceCorrect.png","37"
"image-keyboard-response","536","843697","0.0-4.0-0.170","12","392","","","","Images/NewTrialBC.png","37"
"image-keyboard-response","537","843947","0.0-4.0-1.170","12","null","","","","Images/BlackBeadChoice.png","null"
"image-keyboard-response","538","844448","0.0-4.0-2.170","12","438","","","","Images/BlackBeadChoiceWrong.png","39"
"image-keyboard-response","539","844750","0.0-4.0-0.171","12","301","","","","Images/NewTrialWC.png","39"
"image-keyboard-response","540","845001","0.0-4.0-1.171","12","null","","","","Images/WhiteBeadChoice.png","null"
"image-keyboard-response","541","845502","0.0-4.0-2.171","12","null","","","","Images/WhiteBeadChoiceWrong.png","null"
"image-keyboard-response","542","845640","0.0-4.0-0.172","12","137","","","","Images/NewTrialBC.png","37"
"image-keyboard-response","543","845890","0.0-4.0-1.172","12","null","","","","Images/BlackBeadChoice.png","null"
"image-keyboard-response","544","846391","0.0-4.0-2.172","12","null","","","","Images/BlackBeadChoiceCorrect.png","null"
"image-keyboard-response","545","846544","0.0-4.0-0.173","12","152","","","","Images/NewTrialBC.png","37"
"image-keyboard-response","546","846795","0.0-4.0-1.173","12","null","","","","Images/BlackBeadChoice.png","null"
"image-keyboard-response","547","847297","0.0-4.0-2.173","12","null","","","","Images/BlackBeadChoiceCorrect.png","null"
"image-keyboard-response","548","847440","0.0-4.0-0.174","12","142","","","","Images/NewTrialBC.png","37"
"image-keyboard-response","549","847690","0.0-4.0-1.174","12","null","","","","Images/BlackBeadChoice.png","null"
"image-keyboard-response","550","848190","0.0-4.0-2.174","12","null","","","","Images/BlackBeadChoiceCorrect.png","null"
"image-keyboard-response","551","848277","0.0-4.0-0.175","12","87","","","","Images/NewTrialBC.png","37"
"image-keyboard-response","552","848527","0.0-4.0-1.175","12","null","","","","Images/BlackBeadChoice.png","null"
"image-keyboard-response","553","849028","0.0-4.0-2.175","12","null","","","","Images/BlackBeadChoiceCorrect.png","null"
"image-keyboard-response","554","849198","0.0-4.0-0.176","12","170","","","","Images/NewTrialBC.png","37"
"image-keyboard-response","555","849449","0.0-4.0-1.176","12","null","","","","Images/BlackBeadChoice.png","null"
"image-keyboard-response","556","849951","0.0-4.0-2.176","12","null","","","","Images/BlackBeadChoiceCorrect.png","null"
"image-keyboard-response","557","850025","0.0-4.0-0.177","12","74","","","","Images/NewTrialBC.png","37"
"image-keyboard-response","558","850275","0.0-4.0-1.177","12","null","","","","Images/BlackBeadChoice.png","null"
"image-keyboard-response","559","850775","0.0-4.0-2.177","12","null","","","","Images/BlackBeadChoiceCorrect.png","null"
"image-keyboard-response","560","850910","0.0-4.0-0.178","12","133","","","","Images/NewTrialBC.png","37"
"image-keyboard-response","561","851161","0.0-4.0-1.178","12","null","","","","Images/BlackBeadChoice.png","null"
"image-keyboard-response","562","851660","0.0-4.0-2.178","12","null","","","","Images/BlackBeadChoiceWrong.png","null"
"image-keyboard-response","563","851760","0.0-4.0-0.179","12","98","","","","Images/NewTrialWC.png","39"
"image-keyboard-response","564","852011","0.0-4.0-1.179","12","null","","","","Images/WhiteBeadChoice.png","null"
"image-keyboard-response","565","852511","0.0-4.0-2.179","12","null","","","","Images/WhiteBeadChoiceCorrect.png","null"
"image-keyboard-response","566","852682","0.0-4.0-0.180","12","171","","","","Images/NewTrialWC.png","39"
"image-keyboard-response","567","852934","0.0-4.0-1.180","12","null","","","","Images/WhiteBeadChoice.png","null"
"image-keyboard-response","568","853434","0.0-4.0-2.180","12","null","","","","Images/WhiteBeadChoiceCorrect.png","null"
"image-keyboard-response","569","853589","0.0-4.0-0.181","12","154","","","","Images/NewTrialWC.png","39"
"image-keyboard-response","570","853840","0.0-4.0-1.181","12","null","","","","Images/WhiteBeadChoice.png","null"
"image-keyboard-response","571","854340","0.0-4.0-2.181","12","null","","","","Images/WhiteBeadChoiceCorrect.png","null"
"image-keyboard-response","572","854407","0.0-4.0-0.182","12","65","","","","Images/NewTrialWC.png","39"
"image-keyboard-response","573","854658","0.0-4.0-1.182","12","null","","","","Images/WhiteBeadChoice.png","null"
"image-keyboard-response","574","855160","0.0-4.0-2.182","12","null","","","","Images/WhiteBeadChoiceCorrect.png","null"
"image-keyboard-response","575","855311","0.0-4.0-0.183","12","151","","","","Images/NewTrialWC.png","39"
"image-keyboard-response","576","855562","0.0-4.0-1.183","12","null","","","","Images/WhiteBeadChoice.png","null"
"image-keyboard-response","577","856063","0.0-4.0-2.183","12","null","","","","Images/WhiteBeadChoiceCorrect.png","null"
"image-keyboard-response","578","856246","0.0-4.0-0.184","12","181","","","","Images/NewTrialWC.png","39"
"image-keyboard-response","579","856495","0.0-4.0-1.184","12","null","","","","Images/WhiteBeadChoice.png","null"
"image-keyboard-response","580","856996","0.0-4.0-2.184","12","null","","","","Images/WhiteBeadChoiceCorrect.png","null"
"image-keyboard-response","581","857239","0.0-4.0-0.185","12","243","","","","Images/NewTrialWC.png","39"
"image-keyboard-response","582","857490","0.0-4.0-1.185","12","null","","","","Images/WhiteBeadChoice.png","null"
"image-keyboard-response","583","857991","0.0-4.0-2.185","12","null","","","","Images/WhiteBeadChoiceWrong.png","null"
"image-keyboard-response","584","858168","0.0-4.0-0.186","12","178","","","","Images/NewTrialBC.png","37"
"image-keyboard-response","585","858419","0.0-4.0-1.186","12","null","","","","Images/BlackBeadChoice.png","null"
"image-keyboard-response","586","858920","0.0-4.0-2.186","12","null","","","","Images/BlackBeadChoiceCorrect.png","null"
"image-keyboard-response","587","859254","0.0-4.0-0.187","12","335","","","","Images/NewTrialBC.png","37"
"image-keyboard-response","588","859506","0.0-4.0-1.187","12","null","","","","Images/BlackBeadChoice.png","null"
"image-keyboard-response","589","860007","0.0-4.0-2.187","12","null","","","","Images/BlackBeadChoiceCorrect.png","null"
"image-keyboard-response","590","860253","0.0-4.0-0.188","12","244","","","","Images/NewTrialBC.png","37"
"image-keyboard-response","591","860502","0.0-4.0-1.188","12","null","","","","Images/BlackBeadChoice.png","null"
"image-keyboard-response","592","861004","0.0-4.0-2.188","12","null","","","","Images/BlackBeadChoiceWrong.png","null"
"image-keyboard-response","593","861144","0.0-4.0-0.189","12","140","","","","Images/NewTrialWC.png","39"
"image-keyboard-response","594","861393","0.0-4.0-1.189","12","null","","","","Images/WhiteBeadChoice.png","null"
"image-keyboard-response","595","861895","0.0-4.0-2.189","12","null","","","","Images/WhiteBeadChoiceCorrect.png","null"
"image-keyboard-response","596","862070","0.0-4.0-0.190","12","175","","","","Images/NewTrialWC.png","39"
"image-keyboard-response","597","862320","0.0-4.0-1.190","12","null","","","","Images/WhiteBeadChoice.png","null"
"image-keyboard-response","598","862820","0.0-4.0-2.190","12","null","","","","Images/WhiteBeadChoiceWrong.png","null"
"image-keyboard-response","599","863031","0.0-4.0-0.191","12","211","","","","Images/NewTrialBC.png","37"
"image-keyboard-response","600","863282","0.0-4.0-1.191","12","null","","","","Images/BlackBeadChoice.png","null"
"image-keyboard-response","601","863783","0.0-4.0-2.191","12","null","","","","Images/BlackBeadChoiceCorrect.png","null"
"image-keyboard-response","602","863987","0.0-4.0-0.192","12","203","","","","Images/NewTrialBC.png","37"
"image-keyboard-response","603","864238","0.0-4.0-1.192","12","null","","","","Images/BlackBeadChoice.png","null"
"image-keyboard-response","604","864740","0.0-4.0-2.192","12","null","","","","Images/BlackBeadChoiceCorrect.png","null"
"image-keyboard-response","605","864884","0.0-4.0-0.193","12","145","","","","Images/NewTrialBC.png","37"
"image-keyboard-response","606","865136","0.0-4.0-1.193","12","null","","","","Images/BlackBeadChoice.png","null"
"image-keyboard-response","607","865637","0.0-4.0-2.193","12","null","","","","Images/BlackBeadChoiceCorrect.png","null"
"image-keyboard-response","608","865839","0.0-4.0-0.194","12","201","","","","Images/NewTrialBC.png","37"
"image-keyboard-response","609","866090","0.0-4.0-1.194","12","null","","","","Images/BlackBeadChoice.png","null"
"image-keyboard-response","610","866591","0.0-4.0-2.194","12","null","","","","Images/BlackBeadChoiceCorrect.png","null"
"image-keyboard-response","611","866872","0.0-4.0-0.195","12","280","","","","Images/NewTrialBC.png","37"
"image-keyboard-response","612","867124","0.0-4.0-1.195","12","null","","","","Images/BlackBeadChoice.png","null"
"image-keyboard-response","613","867624","0.0-4.0-2.195","12","null","","","","Images/BlackBeadChoiceWrong.png","null"
"image-keyboard-response","614","867701","0.0-4.0-0.196","12","76","","","","Images/NewTrialWC.png","39"
"image-keyboard-response","615","867952","0.0-4.0-1.196","12","null","","","","Images/WhiteBeadChoice.png","null"
"image-keyboard-response","616","868454","0.0-4.0-2.196","12","null","","","","Images/WhiteBeadChoiceWrong.png","null"
"image-keyboard-response","617","868652","0.0-4.0-0.197","12","197","","","","Images/NewTrialBC.png","37"
"image-keyboard-response","618","868903","0.0-4.0-1.197","12","null","","","","Images/BlackBeadChoice.png","null"
"image-keyboard-response","619","869404","0.0-4.0-2.197","12","null","","","","Images/BlackBeadChoiceCorrect.png","null"
"image-keyboard-response","620","869578","0.0-4.0-0.198","12","172","","","","Images/NewTrialBC.png","37"
"image-keyboard-response","621","869828","0.0-4.0-1.198","12","null","","","","Images/BlackBeadChoice.png","null"
"image-keyboard-response","622","870329","0.0-4.0-2.198","12","null","","","","Images/BlackBeadChoiceWrong.png","null"
"image-keyboard-response","623","870417","0.0-4.0-0.199","12","88","","","","Images/NewTrialWC.png","39"
"image-keyboard-response","624","870668","0.0-4.0-1.199","12","null","","","","Images/WhiteBeadChoice.png","null"
"image-keyboard-response","625","871169","0.0-4.0-2.199","12","null","","","","Images/WhiteBeadChoiceCorrect.png","null"
"html-keyboard-response","626","878278","0.0-5.0","12","7109","","","","","32"
"html-keyboard-response","627","896912","0.0-6.0","12","18634","","","","<div class=""container"" style=""height:800px;width:800px;display:flex;flex-direction:column;justify-content:center;align-items:center;text-align:center;font-weight:normal;font-family:Arial;font-size:20px""><p>Loading episode&hellip;</p><div>","32"
"image-keyboard-response","628","902612","0.0-7.0-0.0","12","5698","","","","Images/NoChoiceMM.png","37"
"image-keyboard-response","629","902864","0.0-7.0-1.0","12","null","","","","Images/BlackBeadChoiceMM.png","null"
"image-keyboard-response","630","903364","0.0-7.0-2.0","12","null","","","","Images/BlackBeadChoiceCorrectMM.png","null"
"image-keyboard-response","631","904111","0.0-7.0-0.1","12","747","","","","Images/NewTrialBCMM.png","37"
"image-keyboard-response","632","904363","0.0-7.0-1.1","12","null","","","","Images/BlackBeadChoiceMM.png","null"
"image-keyboard-response","633","904865","0.0-7.0-2.1","12","null","","","","Images/BlackBeadChoiceWrongMM.png","null"
"image-keyboard-response","634","905332","0.0-7.0-0.2","12","466","","","","Images/NewTrialWCMM.png","39"
"image-keyboard-response","635","905583","0.0-7.0-1.2","12","null","","","","Images/WhiteBeadChoiceMM.png","null"
"image-keyboard-response","636","906084","0.0-7.0-2.2","12","null","","","","Images/WhiteBeadChoiceCorrectMM.png","null"
"image-keyboard-response","637","906334","0.0-7.0-0.3","12","249","","","","Images/NewTrialWCMM.png","39"
"image-keyboard-response","638","906585","0.0-7.0-1.3","12","null","","","","Images/WhiteBeadChoiceMM.png","null"
"image-keyboard-response","639","907085","0.0-7.0-2.3","12","null","","","","Images/WhiteBeadChoiceCorrectMM.png","null"
"image-keyboard-response","640","907326","0.0-7.0-0.4","12","239","","","","Images/NewTrialWCMM.png","39"
"image-keyboard-response","641","907576","0.0-7.0-1.4","12","null","","","","Images/WhiteBeadChoiceMM.png","null"
"image-keyboard-response","642","908079","0.0-7.0-2.4","12","null","","","","Images/WhiteBeadChoiceCorrectMM.png","null"
"image-keyboard-response","643","908237","0.0-7.0-0.5","12","158","","","","Images/NewTrialWCMM.png","39"
"image-keyboard-response","644","908488","0.0-7.0-1.5","12","null","","","","Images/WhiteBeadChoiceMM.png","null"
"image-keyboard-response","645","908989","0.0-7.0-2.5","12","null","","","","Images/WhiteBeadChoiceWrongMM.png","null"
"image-keyboard-response","646","909148","0.0-7.0-0.6","12","158","","","","Images/NewTrialBCMM.png","37"
"image-keyboard-response","647","909399","0.0-7.0-1.6","12","null","","","","Images/BlackBeadChoiceMM.png","null"
"image-keyboard-response","648","909901","0.0-7.0-2.6","12","407","","","","Images/BlackBeadChoiceCorrectMM.png","37"
"image-keyboard-response","649","910363","0.0-7.0-0.7","12","460","","","","Images/NewTrialBCMM.png","37"
"image-keyboard-response","650","910613","0.0-7.0-1.7","12","null","","","","Images/BlackBeadChoiceMM.png","null"
"image-keyboard-response","651","911114","0.0-7.0-2.7","12","null","","","","Images/BlackBeadChoiceCorrectMM.png","null"
"image-keyboard-response","652","911295","0.0-7.0-0.8","12","181","","","","Images/NewTrialBCMM.png","37"
"image-keyboard-response","653","911546","0.0-7.0-1.8","12","null","","","","Images/BlackBeadChoiceMM.png","null"
"image-keyboard-response","654","912047","0.0-7.0-2.8","12","null","","","","Images/BlackBeadChoiceCorrectMM.png","null"
"image-keyboard-response","655","912144","0.0-7.0-0.9","12","96","","","","Images/NewTrialBCMM.png","37"
"image-keyboard-response","656","912395","0.0-7.0-1.9","12","null","","","","Images/BlackBeadChoiceMM.png","null"
"image-keyboard-response","657","912896","0.0-7.0-2.9","12","null","","","","Images/BlackBeadChoiceCorrectMM.png","null"
"image-keyboard-response","658","913066","0.0-7.0-0.10","12","169","","","","Images/NewTrialBCMM.png","37"
"image-keyboard-response","659","913317","0.0-7.0-1.10","12","null","","","","Images/BlackBeadChoiceMM.png","null"
"image-keyboard-response","660","913819","0.0-7.0-2.10","12","null","","","","Images/BlackBeadChoiceCorrectMM.png","null"
"image-keyboard-response","661","914003","0.0-7.0-0.11","12","185","","","","Images/NewTrialBCMM.png","37"
"image-keyboard-response","662","914255","0.0-7.0-1.11","12","null","","","","Images/BlackBeadChoiceMM.png","null"
"image-keyboard-response","663","914756","0.0-7.0-2.11","12","null","","","","Images/BlackBeadChoiceCorrectMM.png","null"
"image-keyboard-response","664","914959","0.0-7.0-0.12","12","202","","","","Images/NewTrialBCMM.png","37"
"image-keyboard-response","665","915210","0.0-7.0-1.12","12","null","","","","Images/BlackBeadChoiceMM.png","null"
"image-keyboard-response","666","915711","0.0-7.0-2.12","12","null","","","","Images/BlackBeadChoiceCorrectMM.png","null"
"image-keyboard-response","667","915875","0.0-7.0-0.13","12","163","","","","Images/NewTrialBCMM.png","37"
"image-keyboard-response","668","916126","0.0-7.0-1.13","12","null","","","","Images/BlackBeadChoiceMM.png","null"
"image-keyboard-response","669","916627","0.0-7.0-2.13","12","null","","","","Images/BlackBeadChoiceCorrectMM.png","null"
"image-keyboard-response","670","916830","0.0-7.0-0.14","12","203","","","","Images/NewTrialBCMM.png","37"
"image-keyboard-response","671","917081","0.0-7.0-1.14","12","null","","","","Images/BlackBeadChoiceMM.png","null"
"image-keyboard-response","672","917583","0.0-7.0-2.14","12","null","","","","Images/BlackBeadChoiceCorrectMM.png","null"
"image-keyboard-response","673","917758","0.0-7.0-0.15","12","175","","","","Images/NewTrialBCMM.png","37"
"image-keyboard-response","674","918008","0.0-7.0-1.15","12","null","","","","Images/BlackBeadChoiceMM.png","null"
"image-keyboard-response","675","918510","0.0-7.0-2.15","12","null","","","","Images/BlackBeadChoiceCorrectMM.png","null"
"image-keyboard-response","676","918683","0.0-7.0-0.16","12","172","","","","Images/NewTrialBCMM.png","37"
"image-keyboard-response","677","918934","0.0-7.0-1.16","12","null","","","","Images/BlackBeadChoiceMM.png","null"
"image-keyboard-response","678","919434","0.0-7.0-2.16","12","null","","","","Images/BlackBeadChoiceCorrectMM.png","null"
"image-keyboard-response","679","919619","0.0-7.0-0.17","12","183","","","","Images/NewTrialBCMM.png","37"
"image-keyboard-response","680","919869","0.0-7.0-1.17","12","null","","","","Images/BlackBeadChoiceMM.png","null"
"image-keyboard-response","681","920370","0.0-7.0-2.17","12","null","","","","Images/BlackBeadChoiceCorrectMM.png","null"
"image-keyboard-response","682","920422","0.0-7.0-0.18","12","52","","","","Images/NewTrialBCMM.png","37"
"image-keyboard-response","683","920672","0.0-7.0-1.18","12","null","","","","Images/BlackBeadChoiceMM.png","null"
"image-keyboard-response","684","921173","0.0-7.0-2.18","12","null","","","","Images/BlackBeadChoiceCorrectMM.png","null"
"image-keyboard-response","685","921348","0.0-7.0-0.19","12","174","","","","Images/NewTrialBCMM.png","37"
"image-keyboard-response","686","921598","0.0-7.0-1.19","12","null","","","","Images/BlackBeadChoiceMM.png","null"
"image-keyboard-response","687","922099","0.0-7.0-2.19","12","null","","","","Images/BlackBeadChoiceCorrectMM.png","null"
"image-keyboard-response","688","922168","0.0-7.0-0.20","12","68","","","","Images/NewTrialBCMM.png","37"
"image-keyboard-response","689","922419","0.0-7.0-1.20","12","null","","","","Images/BlackBeadChoiceMM.png","null"
"image-keyboard-response","690","922922","0.0-7.0-2.20","12","null","","","","Images/BlackBeadChoiceCorrectMM.png","null"
"image-keyboard-response","691","923028","0.0-7.0-0.21","12","108","","","","Images/NewTrialBCMM.png","37"
"image-keyboard-response","692","923279","0.0-7.0-1.21","12","null","","","","Images/BlackBeadChoiceMM.png","null"
"image-keyboard-response","693","923780","0.0-7.0-2.21","12","null","","","","Images/BlackBeadChoiceCorrectMM.png","null"
"image-keyboard-response","694","923930","0.0-7.0-0.22","12","149","","","","Images/NewTrialBCMM.png","37"
"image-keyboard-response","695","924180","0.0-7.0-1.22","12","null","","","","Images/BlackBeadChoiceMM.png","null"
"image-keyboard-response","696","924682","0.0-7.0-2.22","12","null","","","","Images/BlackBeadChoiceCorrectMM.png","null"
"image-keyboard-response","697","925077","0.0-7.0-0.23","12","395","","","","Images/NewTrialBCMM.png","37"
"image-keyboard-response","698","925327","0.0-7.0-1.23","12","null","","","","Images/BlackBeadChoiceMM.png","null"
"image-keyboard-response","699","925829","0.0-7.0-2.23","12","null","","","","Images/BlackBeadChoiceCorrectMM.png","null"
"image-keyboard-response","700","926062","0.0-7.0-0.24","12","233","","","","Images/NewTrialBCMM.png","37"
"image-keyboard-response","701","926312","0.0-7.0-1.24","12","null","","","","Images/BlackBeadChoiceMM.png","null"
"image-keyboard-response","702","926813","0.0-7.0-2.24","12","null","","","","Images/BlackBeadChoiceCorrectMM.png","null"
"image-keyboard-response","703","927033","0.0-7.0-0.25","12","219","","","","Images/NewTrialBCMM.png","37"
"image-keyboard-response","704","927284","0.0-7.0-1.25","12","null","","","","Images/BlackBeadChoiceMM.png","null"
"image-keyboard-response","705","927784","0.0-7.0-2.25","12","null","","","","Images/BlackBeadChoiceCorrectMM.png","null"
"image-keyboard-response","706","927927","0.0-7.0-0.26","12","143","","","","Images/NewTrialBCMM.png","37"
"image-keyboard-response","707","928178","0.0-7.0-1.26","12","null","","","","Images/BlackBeadChoiceMM.png","null"
"image-keyboard-response","708","928679","0.0-7.0-2.26","12","null","","","","Images/BlackBeadChoiceCorrectMM.png","null"
"image-keyboard-response","709","928771","0.0-7.0-0.27","12","92","","","","Images/NewTrialBCMM.png","37"
"image-keyboard-response","710","929021","0.0-7.0-1.27","12","null","","","","Images/BlackBeadChoiceMM.png","null"
"image-keyboard-response","711","929522","0.0-7.0-2.27","12","null","","","","Images/BlackBeadChoiceCorrectMM.png","null"
"image-keyboard-response","712","929698","0.0-7.0-0.28","12","177","","","","Images/NewTrialBCMM.png","37"
"image-keyboard-response","713","929949","0.0-7.0-1.28","12","null","","","","Images/BlackBeadChoiceMM.png","null"
"image-keyboard-response","714","930450","0.0-7.0-2.28","12","null","","","","Images/BlackBeadChoiceCorrectMM.png","null"
"image-keyboard-response","715","930592","0.0-7.0-0.29","12","141","","","","Images/NewTrialBCMM.png","37"
"image-keyboard-response","716","930842","0.0-7.0-1.29","12","null","","","","Images/BlackBeadChoiceMM.png","null"
"image-keyboard-response","717","931343","0.0-7.0-2.29","12","null","","","","Images/BlackBeadChoiceCorrectMM.png","null"
"image-keyboard-response","718","931501","0.0-7.0-0.30","12","157","","","","Images/NewTrialBCMM.png","37"
"image-keyboard-response","719","931752","0.0-7.0-1.30","12","null","","","","Images/BlackBeadChoiceMM.png","null"
"image-keyboard-response","720","932254","0.0-7.0-2.30","12","null","","","","Images/BlackBeadChoiceCorrectMM.png","null"
"image-keyboard-response","721","932384","0.0-7.0-0.31","12","130","","","","Images/NewTrialBCMM.png","37"
"image-keyboard-response","722","932635","0.0-7.0-1.31","12","null","","","","Images/BlackBeadChoiceMM.png","null"
"image-keyboard-response","723","933135","0.0-7.0-2.31","12","null","","","","Images/BlackBeadChoiceCorrectMM.png","null"
"image-keyboard-response","724","933309","0.0-7.0-0.32","12","173","","","","Images/NewTrialBCMM.png","37"
"image-keyboard-response","725","933560","0.0-7.0-1.32","12","null","","","","Images/BlackBeadChoiceMM.png","null"
"image-keyboard-response","726","934061","0.0-7.0-2.32","12","null","","","","Images/BlackBeadChoiceCorrectMM.png","null"
"image-keyboard-response","727","934273","0.0-7.0-0.33","12","212","","","","Images/NewTrialBCMM.png","37"
"image-keyboard-response","728","934524","0.0-7.0-1.33","12","null","","","","Images/BlackBeadChoiceMM.png","null"
"image-keyboard-response","729","935025","0.0-7.0-2.33","12","null","","","","Images/BlackBeadChoiceCorrectMM.png","null"
"image-keyboard-response","730","935256","0.0-7.0-0.34","12","231","","","","Images/NewTrialBCMM.png","37"
"image-keyboard-response","731","935506","0.0-7.0-1.34","12","null","","","","Images/BlackBeadChoiceMM.png","null"
"image-keyboard-response","732","936007","0.0-7.0-2.34","12","null","","","","Images/BlackBeadChoiceCorrectMM.png","null"
"image-keyboard-response","733","936280","0.0-7.0-0.35","12","274","","","","Images/NewTrialBCMM.png","37"
"image-keyboard-response","734","936532","0.0-7.0-1.35","12","null","","","","Images/BlackBeadChoiceMM.png","null"
"image-keyboard-response","735","937034","0.0-7.0-2.35","12","null","","","","Images/BlackBeadChoiceWrongMM.png","null"
"image-keyboard-response","736","937198","0.0-7.0-0.36","12","164","","","","Images/NewTrialWCMM.png","39"
"image-keyboard-response","737","937449","0.0-7.0-1.36","12","null","","","","Images/WhiteBeadChoiceMM.png","null"
"image-keyboard-response","738","937951","0.0-7.0-2.36","12","null","","","","Images/WhiteBeadChoiceWrongMM.png","null"
"image-keyboard-response","739","938228","0.0-7.0-0.37","12","276","","","","Images/NewTrialBCMM.png","37"
"image-keyboard-response","740","938480","0.0-7.0-1.37","12","null","","","","Images/BlackBeadChoiceMM.png","null"
"image-keyboard-response","741","938981","0.0-7.0-2.37","12","null","","","","Images/BlackBeadChoiceWrongMM.png","null"
"image-keyboard-response","742","939107","0.0-7.0-0.38","12","125","","","","Images/NewTrialWCMM.png","39"
"image-keyboard-response","743","939358","0.0-7.0-1.38","12","null","","","","Images/WhiteBeadChoiceMM.png","null"
"image-keyboard-response","744","939859","0.0-7.0-2.38","12","null","","","","Images/WhiteBeadChoiceWrongMM.png","null"
"image-keyboard-response","745","939976","0.0-7.0-0.39","12","116","","","","Images/NewTrialBCMM.png","37"
"image-keyboard-response","746","940227","0.0-7.0-1.39","12","null","","","","Images/BlackBeadChoiceMM.png","null"
"image-keyboard-response","747","940728","0.0-7.0-2.39","12","null","","","","Images/BlackBeadChoiceCorrectMM.png","null"
"image-keyboard-response","748","940912","0.0-7.0-0.40","12","183","","","","Images/NewTrialBCMM.png","37"
"image-keyboard-response","749","941163","0.0-7.0-1.40","12","null","","","","Images/BlackBeadChoiceMM.png","null"
"image-keyboard-response","750","941663","0.0-7.0-2.40","12","null","","","","Images/BlackBeadChoiceCorrectMM.png","null"
"image-keyboard-response","751","941740","0.0-7.0-0.41","12","77","","","","Images/NewTrialBCMM.png","37"
"image-keyboard-response","752","941992","0.0-7.0-1.41","12","null","","","","Images/BlackBeadChoiceMM.png","null"
"image-keyboard-response","753","942493","0.0-7.0-2.41","12","null","","","","Images/BlackBeadChoiceCorrectMM.png","null"
"image-keyboard-response","754","942560","0.0-7.0-0.42","12","66","","","","Images/NewTrialBCMM.png","37"
"image-keyboard-response","755","942812","0.0-7.0-1.42","12","null","","","","Images/BlackBeadChoiceMM.png","null"
"image-keyboard-response","756","943312","0.0-7.0-2.42","12","null","","","","Images/BlackBeadChoiceCorrectMM.png","null"
"image-keyboard-response","757","943466","0.0-7.0-0.43","12","153","","","","Images/NewTrialBCMM.png","37"
"image-keyboard-response","758","943717","0.0-7.0-1.43","12","null","","","","Images/BlackBeadChoiceMM.png","null"
"image-keyboard-response","759","944218","0.0-7.0-2.43","12","null","","","","Images/BlackBeadChoiceCorrectMM.png","null"
"image-keyboard-response","760","944392","0.0-7.0-0.44","12","175","","","","Images/NewTrialBCMM.png","37"
"image-keyboard-response","761","944644","0.0-7.0-1.44","12","null","","","","Images/BlackBeadChoiceMM.png","null"
"image-keyboard-response","762","945144","0.0-7.0-2.44","12","null","","","","Images/BlackBeadChoiceCorrectMM.png","null"
"image-keyboard-response","763","945453","0.0-7.0-0.45","12","307","","","","Images/NewTrialBCMM.png","37"
"image-keyboard-response","764","945703","0.0-7.0-1.45","12","null","","","","Images/BlackBeadChoiceMM.png","null"
"image-keyboard-response","765","946204","0.0-7.0-2.45","12","null","","","","Images/BlackBeadChoiceCorrectMM.png","null"
"image-keyboard-response","766","946572","0.0-7.0-0.46","12","368","","","","Images/NewTrialBCMM.png","37"
"image-keyboard-response","767","946824","0.0-7.0-1.46","12","null","","","","Images/BlackBeadChoiceMM.png","null"
"image-keyboard-response","768","947324","0.0-7.0-2.46","12","null","","","","Images/BlackBeadChoiceCorrectMM.png","null"
"image-keyboard-response","769","947623","0.0-7.0-0.47","12","298","","","","Images/NewTrialBCMM.png","37"
"image-keyboard-response","770","947874","0.0-7.0-1.47","12","null","","","","Images/BlackBeadChoiceMM.png","null"
"image-keyboard-response","771","948376","0.0-7.0-2.47","12","null","","","","Images/BlackBeadChoiceCorrectMM.png","null"
"image-keyboard-response","772","949033","0.0-7.0-0.48","12","657","","","","Images/NewTrialBCMM.png","37"
"image-keyboard-response","773","949284","0.0-7.0-1.48","12","null","","","","Images/BlackBeadChoiceMM.png","null"
"image-keyboard-response","774","949784","0.0-7.0-2.48","12","null","","","","Images/BlackBeadChoiceCorrectMM.png","null"
"image-keyboard-response","775","949944","0.0-7.0-0.49","12","159","","","","Images/NewTrialBCMM.png","37"
"image-keyboard-response","776","950196","0.0-7.0-1.49","12","null","","","","Images/BlackBeadChoiceMM.png","null"
"image-keyboard-response","777","950696","0.0-7.0-2.49","12","null","","","","Images/BlackBeadChoiceCorrectMM.png","null"
"image-keyboard-response","778","950950","0.0-7.0-0.50","12","252","","","","Images/NewTrialBCMM.png","37"
"image-keyboard-response","779","951201","0.0-7.0-1.50","12","null","","","","Images/BlackBeadChoiceMM.png","null"
"image-keyboard-response","780","951701","0.0-7.0-2.50","12","null","","","","Images/BlackBeadChoiceCorrectMM.png","null"
"image-keyboard-response","781","951778","0.0-7.0-0.51","12","76","","","","Images/NewTrialBCMM.png","37"
"image-keyboard-response","782","952029","0.0-7.0-1.51","12","null","","","","Images/BlackBeadChoiceMM.png","null"
"image-keyboard-response","783","952531","0.0-7.0-2.51","12","498","","","","Images/BlackBeadChoiceCorrectMM.png","37"
"image-keyboard-response","784","952985","0.0-7.0-0.52","12","455","","","","Images/NewTrialBCMM.png","37"
"image-keyboard-response","785","953236","0.0-7.0-1.52","12","null","","","","Images/BlackBeadChoiceMM.png","null"
"image-keyboard-response","786","953737","0.0-7.0-2.52","12","null","","","","Images/BlackBeadChoiceCorrectMM.png","null"
"image-keyboard-response","787","953916","0.0-7.0-0.53","12","179","","","","Images/NewTrialBCMM.png","37"
"image-keyboard-response","788","954168","0.0-7.0-1.53","12","null","","","","Images/BlackBeadChoiceMM.png","null"
"image-keyboard-response","789","954669","0.0-7.0-2.53","12","null","","","","Images/BlackBeadChoiceWrongMM.png","null"
"image-keyboard-response","790","954747","0.0-7.0-0.54","12","76","","","","Images/NewTrialWCMM.png","39"
"image-keyboard-response","791","954999","0.0-7.0-1.54","12","null","","","","Images/WhiteBeadChoiceMM.png","null"
"image-keyboard-response","792","955501","0.0-7.0-2.54","12","null","","","","Images/WhiteBeadChoiceCorrectMM.png","null"
"image-keyboard-response","793","955618","0.0-7.0-0.55","12","118","","","","Images/NewTrialWCMM.png","39"
"image-keyboard-response","794","955869","0.0-7.0-1.55","12","null","","","","Images/WhiteBeadChoiceMM.png","null"
"image-keyboard-response","795","956370","0.0-7.0-2.55","12","null","","","","Images/WhiteBeadChoiceCorrectMM.png","null"
"image-keyboard-response","796","956471","0.0-7.0-0.56","12","100","","","","Images/NewTrialWCMM.png","39"
"image-keyboard-response","797","956721","0.0-7.0-1.56","12","null","","","","Images/WhiteBeadChoiceMM.png","null"
"image-keyboard-response","798","957222","0.0-7.0-2.56","12","null","","","","Images/WhiteBeadChoiceWrongMM.png","null"
"image-keyboard-response","799","957341","0.0-7.0-0.57","12","118","","","","Images/NewTrialBCMM.png","37"
"image-keyboard-response","800","957592","0.0-7.0-1.57","12","null","","","","Images/BlackBeadChoiceMM.png","null"
"image-keyboard-response","801","958093","0.0-7.0-2.57","12","null","","","","Images/BlackBeadChoiceCorrectMM.png","null"
"image-keyboard-response","802","958264","0.0-7.0-0.58","12","170","","","","Images/NewTrialBCMM.png","37"
"image-keyboard-response","803","958515","0.0-7.0-1.58","12","null","","","","Images/BlackBeadChoiceMM.png","null"
"image-keyboard-response","804","959016","0.0-7.0-2.58","12","null","","","","Images/BlackBeadChoiceCorrectMM.png","null"
"image-keyboard-response","805","959175","0.0-7.0-0.59","12","158","","","","Images/NewTrialBCMM.png","37"
"image-keyboard-response","806","959426","0.0-7.0-1.59","12","null","","","","Images/BlackBeadChoiceMM.png","null"
"image-keyboard-response","807","959927","0.0-7.0-2.59","12","469","","","","Images/BlackBeadChoiceCorrectMM.png","37"
"image-keyboard-response","808","960330","0.0-7.0-0.60","12","402","","","","Images/NewTrialBCMM.png","37"
"image-keyboard-response","809","960581","0.0-7.0-1.60","12","null","","","","Images/BlackBeadChoiceMM.png","null"
"image-keyboard-response","810","961082","0.0-7.0-2.60","12","null","","","","Images/BlackBeadChoiceCorrectMM.png","null"
"image-keyboard-response","811","961244","0.0-7.0-0.61","12","162","","","","Images/NewTrialBCMM.png","37"
"image-keyboard-response","812","961495","0.0-7.0-1.61","12","null","","","","Images/BlackBeadChoiceMM.png","null"
"image-keyboard-response","813","961997","0.0-7.0-2.61","12","null","","","","Images/BlackBeadChoiceCorrectMM.png","null"
"image-keyboard-response","814","962234","0.0-7.0-0.62","12","238","","","","Images/NewTrialBCMM.png","37"
"image-keyboard-response","815","962485","0.0-7.0-1.62","12","null","","","","Images/BlackBeadChoiceMM.png","null"
"image-keyboard-response","816","962986","0.0-7.0-2.62","12","null","","","","Images/BlackBeadChoiceCorrectMM.png","null"
"image-keyboard-response","817","963171","0.0-7.0-0.63","12","185","","","","Images/NewTrialBCMM.png","37"
"image-keyboard-response","818","963423","0.0-7.0-1.63","12","null","","","","Images/BlackBeadChoiceMM.png","null"
"image-keyboard-response","819","963924","0.0-7.0-2.63","12","null","","","","Images/BlackBeadChoiceCorrectMM.png","null"
"image-keyboard-response","820","964129","0.0-7.0-0.64","12","205","","","","Images/NewTrialBCMM.png","37"
"image-keyboard-response","821","964380","0.0-7.0-1.64","12","null","","","","Images/BlackBeadChoiceMM.png","null"
"image-keyboard-response","822","964881","0.0-7.0-2.64","12","null","","","","Images/BlackBeadChoiceWrongMM.png","null"
"image-keyboard-response","823","964967","0.0-7.0-0.65","12","87","","","","Images/NewTrialWCMM.png","39"
"image-keyboard-response","824","965218","0.0-7.0-1.65","12","null","","","","Images/WhiteBeadChoiceMM.png","null"
"image-keyboard-response","825","965719","0.0-7.0-2.65","12","null","","","","Images/WhiteBeadChoiceCorrectMM.png","null"
"image-keyboard-response","826","965923","0.0-7.0-0.66","12","203","","","","Images/NewTrialWCMM.png","39"
"image-keyboard-response","827","966174","0.0-7.0-1.66","12","null","","","","Images/WhiteBeadChoiceMM.png","null"
"image-keyboard-response","828","966675","0.0-7.0-2.66","12","null","","","","Images/WhiteBeadChoiceCorrectMM.png","null"
"image-keyboard-response","829","966770","0.0-7.0-0.67","12","95","","","","Images/NewTrialWCMM.png","39"
"image-keyboard-response","830","967022","0.0-7.0-1.67","12","null","","","","Images/WhiteBeadChoiceMM.png","null"
"image-keyboard-response","831","967522","0.0-7.0-2.67","12","null","","","","Images/WhiteBeadChoiceCorrectMM.png","null"
"image-keyboard-response","832","967652","0.0-7.0-0.68","12","130","","","","Images/NewTrialWCMM.png","39"
"image-keyboard-response","833","967902","0.0-7.0-1.68","12","null","","","","Images/WhiteBeadChoiceMM.png","null"
"image-keyboard-response","834","968404","0.0-7.0-2.68","12","null","","","","Images/WhiteBeadChoiceCorrectMM.png","null"
"image-keyboard-response","835","968563","0.0-7.0-0.69","12","158","","","","Images/NewTrialWCMM.png","39"
"image-keyboard-response","836","968814","0.0-7.0-1.69","12","null","","","","Images/WhiteBeadChoiceMM.png","null"
"image-keyboard-response","837","969314","0.0-7.0-2.69","12","null","","","","Images/WhiteBeadChoiceWrongMM.png","null"
"image-keyboard-response","838","969400","0.0-7.0-0.70","12","85","","","","Images/NewTrialBCMM.png","37"
"image-keyboard-response","839","969652","0.0-7.0-1.70","12","null","","","","Images/BlackBeadChoiceMM.png","null"
"image-keyboard-response","840","970152","0.0-7.0-2.70","12","null","","","","Images/BlackBeadChoiceCorrectMM.png","null"
"image-keyboard-response","841","970345","0.0-7.0-0.71","12","194","","","","Images/NewTrialBCMM.png","37"
"image-keyboard-response","842","970595","0.0-7.0-1.71","12","null","","","","Images/BlackBeadChoiceMM.png","null"
"image-keyboard-response","843","971096","0.0-7.0-2.71","12","null","","","","Images/BlackBeadChoiceCorrectMM.png","null"
