"trial_type","trial_index","time_elapsed","internal_node_id","Script_Picker","Block_Type","rt","url","responses","question_order","stimulus","key_press"
"pavlovia","0","3","0.0-0.0","16","High_HMMActual","","","","","",""
"external-html","1","13662","0.0-1.0-0.0","16","High_HMMActual","13610.310000000027","consent.html","","","",""
"survey-multi-choice","2","19764","0.0-1.0-1.0","16","High_HMMActual","6099.784999999996","","{""Q0"":""Male"",""Q1"":""White""}","[0,1]","",""
"survey-text","3","22228","0.0-1.0-2.0","16","High_HMMActual","2457.909999999967","","{""Q0"":""30""}","","",""
"survey-text","4","26764","0.0-1.0-3.0","16","High_HMMActual","4431.865000000016","","{""Q0"":""5ec681c8a4a63e0758ed0829""}","","",""
"html-keyboard-response","5","45127","0.0-2.0-0.0","16","High_HMMActual","18260.09500000009","","","","<div class=""container"" style=""height:800px;width:800px;display:flex;flex-direction:column;justify-content:center;align-items:center;text-align:center;font-weight:normal;font-family:Arial;font-size:20px""><p>In this task you will see black or white beads being pulled from jars. <br><br>On each trial, a bead will be pulled from one of two jars. Once you see this bead, your goal is to predict the color of NEXT bead that will be pulled. <br> <br>Every time you correctly guess the color of the NEXT bead, you will get a point. <br><br>Press the SPACEBAR to continue.</p><div>","32"
"html-keyboard-response","6","51878","0.0-2.0-1.0","16","High_HMMActual","6750.445000000014","","","","<div class=""container"" style=""height:800px;width:800px;display:flex;flex-direction:column;justify-content:center;align-items:center;text-align:center;font-weight:normal;font-family:Arial;font-size:20px""><p>Jars are filled with 80% white or black beads and 20% of the opposite color mixed in.<br><br>Press the SPACEBAR to continue. </p><div>","32"
"image-keyboard-response","7","62405","0.0-2.0-2.0","16","High_HMMActual","10526.884999999995","","","","resources/WhiteJar_HMM.png","32"
"image-keyboard-response","8","64238","0.0-2.0-3.0","16","High_HMMActual","1831.4200000000928","","","","resources/BlackJar_HMM.png","32"
"html-keyboard-response","9","72270","0.0-2.0-4.0","16","High_HMMActual","8031.005000000041","","","","<div class=""container"" style=""height:800px;width:800px;display:flex;flex-direction:column;justify-content:center;align-items:center;text-align:center;font-weight:normal;font-family:Arial;font-size:20px""><p>There will be two blocks of trials. Each block will contain 500 trials. <br><br>Here are examples of what you will see on each trial.<br><br>Press the SPACEBAR to continue. </p><div>","32"
"image-keyboard-response","10","80110","0.0-2.0-5.0","16","High_HMMActual","7839.04499999994","","","","Images/NoChoice.png","32"
"html-keyboard-response","11","110166","0.0-2.0-6.0","16","High_HMMActual","30055.599999999904","","","","<div class=""container"" style=""height:800px;width:800px;display:flex;flex-direction:column;justify-content:center;align-items:center;text-align:center;font-weight:normal;font-family:Arial;font-size:20px""><p> The jar the beads are pulled from is NOT choosen at random on each trial.<br><br>After each prediction, there will be a chance that the jars will switch, and that the next bead will be pulled from the opposite jar as the previous trial.<br><br>In each block, the chance that a jar will switch will either be LOW (the jars will not switch very often), or HIGH (the jars will switch almost all the time).<br><br>At the start of each block, you will be told the probability that the jars will switch on each trial. This switch probability will stay constant throughout the block.<br><br>We will now show you some examples of beads being drawn from jars. The bead will appear in the middle of the screen, and the jar the bead was pulled from will be indicated with a black rectangle.<br><br>Press the SPACEBAR to continue. </p><div>","32"
"image-keyboard-response","12","115749","0.0-2.0-7.0","16","High_HMMActual","5582.999999999971","","","","Images/TutorialWhiteJarDrawHMMC.png","32"
"image-keyboard-response","13","122414","0.0-2.0-8.0","16","High_HMMActual","6663.670000000013","","","","Images/TutorialBlackJarDrawHMMC.png","32"
"image-keyboard-response","14","123557","0.0-2.0-9.0","16","High_HMMActual","1142.5950000000303","","","","Images/TutorialBlackJarDrawHMMI.png","32"
"html-keyboard-response","15","140470","0.0-2.0-10.0","16","High_HMMActual","16911.839999999997","","","","<div class=""container"" style=""height:800px;width:800px;display:flex;flex-direction:column;justify-content:center;align-items:center;text-align:center;font-weight:normal;font-family:Arial;font-size:20px""><p> As you observed, a white bead was pulled from a 80% white jar, the jars switched and a black bead was pulled from the 80% black jar, but then a low-probability white bead was pulled from the 80% black jar. <br><br>Because the jars have a mix of white and black beads, the best strategy to predict the next bead is to first figure out which jar the current bead was pulled from, then use the jar switch probability to predict which jar will be drawn from next.<br><br>Press SPACEBAR to conitnue.</p><div>","32"
"html-keyboard-response","16","142893","0.0-2.0-11.0","16","High_HMMActual","2423.2050000000454","","","","<div class=""container"" style=""height:800px;width:800px;display:flex;flex-direction:column;justify-content:center;align-items:center;text-align:center;font-weight:normal;font-family:Arial;font-size:20px""><p> You will now be given a 2 question quiz to make sure you understand the task. </p><div>","32"
"image-keyboard-response","17","153198","0.0-2.0-12.0","16","High_HMMActual","10303.369999999966","","","","Images/TutorialQuestion1.png","39"
"image-keyboard-response","18","162957","0.0-2.0-13.0","16","High_HMMActual","8108.209999999992","","","","Images/TutorialQuestion2.png","38"
"html-keyboard-response","19","182478","0.0-3.0","16","High_HMMActual","18049.87500000006","","","","<div class=""container"" style=""height:800px;width:800px;display:flex;flex-direction:column;justify-content:center;align-items:center;text-align:center;font-weight:normal;font-family:Arial;font-size:20px""><p>Loading episode&hellip;</p><div>","32"
"image-keyboard-response","20","188326","0.0-4.0-0.0","16","High_HMMActual","5846.620000000024","","","","Images/NoChoice.png","39"
"image-keyboard-response","21","188728","0.0-4.0-1.0","16","High_HMMActual","null","","","","Images/WhiteBeadChoice.png","null"
"image-keyboard-response","22","189430","0.0-4.0-2.0","16","High_HMMActual","null","","","","Images/WhiteBeadChoiceWrong.png","null"
"image-keyboard-response","23","191054","0.0-4.0-0.1","16","High_HMMActual","1623.0549999999057","","","","Images/NewTrialBC.png","39"
"image-keyboard-response","24","191455","0.0-4.0-1.1","16","High_HMMActual","null","","","","Images/WhiteBeadChoice.png","null"
"image-keyboard-response","25","192157","0.0-4.0-2.1","16","High_HMMActual","null","","","","Images/WhiteBeadChoiceCorrect.png","null"
"image-keyboard-response","26","192806","0.0-4.0-0.2","16","High_HMMActual","648.5749999999243","","","","Images/NewTrialWC.png","37"
"image-keyboard-response","27","193208","0.0-4.0-1.2","16","High_HMMActual","null","","","","Images/BlackBeadChoice.png","null"
"image-keyboard-response","28","193910","0.0-4.0-2.2","16","High_HMMActual","null","","","","Images/BlackBeadChoiceCorrect.png","null"
"image-keyboard-response","29","194318","0.0-4.0-0.3","16","High_HMMActual","407.22000000003027","","","","Images/NewTrialBC.png","39"
"image-keyboard-response","30","194720","0.0-4.0-1.3","16","High_HMMActual","null","","","","Images/WhiteBeadChoice.png","null"
"image-keyboard-response","31","195422","0.0-4.0-2.3","16","High_HMMActual","null","","","","Images/WhiteBeadChoiceCorrect.png","null"
"image-keyboard-response","32","195966","0.0-4.0-0.4","16","High_HMMActual","543.0699999999197","","","","Images/NewTrialWC.png","37"
"image-keyboard-response","33","196366","0.0-4.0-1.4","16","High_HMMActual","null","","","","Images/BlackBeadChoice.png","null"
"image-keyboard-response","34","197069","0.0-4.0-2.4","16","High_HMMActual","null","","","","Images/BlackBeadChoiceCorrect.png","null"
"image-keyboard-response","35","197542","0.0-4.0-0.5","16","High_HMMActual","472.10499999995227","","","","Images/NewTrialBC.png","39"
"image-keyboard-response","36","197943","0.0-4.0-1.5","16","High_HMMActual","null","","","","Images/WhiteBeadChoice.png","null"
"image-keyboard-response","37","198645","0.0-4.0-2.5","16","High_HMMActual","null","","","","Images/WhiteBeadChoiceCorrect.png","null"
"image-keyboard-response","38","198918","0.0-4.0-0.6","16","High_HMMActual","272.01500000001397","","","","Images/NewTrialWC.png","37"
"image-keyboard-response","39","199320","0.0-4.0-1.6","16","High_HMMActual","null","","","","Images/BlackBeadChoice.png","null"
"image-keyboard-response","40","200022","0.0-4.0-2.6","16","High_HMMActual","null","","","","Images/BlackBeadChoiceWrong.png","null"
"image-keyboard-response","41","200654","0.0-4.0-0.7","16","High_HMMActual","630.7499999999418","","","","Images/NewTrialWC.png","37"
"image-keyboard-response","42","201056","0.0-4.0-1.7","16","High_HMMActual","null","","","","Images/BlackBeadChoice.png","null"
"image-keyboard-response","43","201757","0.0-4.0-2.7","16","High_HMMActual","null","","","","Images/BlackBeadChoiceWrong.png","null"
"image-keyboard-response","44","202878","0.0-4.0-0.8","16","High_HMMActual","1120.4500000000116","","","","Images/NewTrialWC.png","37"
"image-keyboard-response","45","203280","0.0-4.0-1.8","16","High_HMMActual","null","","","","Images/BlackBeadChoice.png","null"
"image-keyboard-response","46","203982","0.0-4.0-2.8","16","High_HMMActual","null","","","","Images/BlackBeadChoiceCorrect.png","null"
"image-keyboard-response","47","204254","0.0-4.0-0.9","16","High_HMMActual","270.49499999996624","","","","Images/NewTrialBC.png","39"
"image-keyboard-response","48","204655","0.0-4.0-1.9","16","High_HMMActual","null","","","","Images/WhiteBeadChoice.png","null"
"image-keyboard-response","49","205357","0.0-4.0-2.9","16","High_HMMActual","null","","","","Images/WhiteBeadChoiceCorrect.png","null"
"image-keyboard-response","50","205630","0.0-4.0-0.10","16","High_HMMActual","272.2949999999837","","","","Images/NewTrialWC.png","37"
"image-keyboard-response","51","206031","0.0-4.0-1.10","16","High_HMMActual","null","","","","Images/BlackBeadChoice.png","null"
"image-keyboard-response","52","206733","0.0-4.0-2.10","16","High_HMMActual","null","","","","Images/BlackBeadChoiceCorrect.png","null"
"image-keyboard-response","53","207006","0.0-4.0-0.11","16","High_HMMActual","271.7599999999511","","","","Images/NewTrialBC.png","39"
"image-keyboard-response","54","207407","0.0-4.0-1.11","16","High_HMMActual","null","","","","Images/WhiteBeadChoice.png","null"
"image-keyboard-response","55","208108","0.0-4.0-2.11","16","High_HMMActual","null","","","","Images/WhiteBeadChoiceCorrect.png","null"
"image-keyboard-response","56","208374","0.0-4.0-0.12","16","High_HMMActual","264.86999999996624","","","","Images/NewTrialWC.png","37"
"image-keyboard-response","57","208775","0.0-4.0-1.12","16","High_HMMActual","null","","","","Images/BlackBeadChoice.png","null"
"image-keyboard-response","58","209477","0.0-4.0-2.12","16","High_HMMActual","null","","","","Images/BlackBeadChoiceWrong.png","null"
"image-keyboard-response","59","210294","0.0-4.0-0.13","16","High_HMMActual","816.2799999999988","","","","Images/NewTrialWC.png","39"
"image-keyboard-response","60","210695","0.0-4.0-1.13","16","High_HMMActual","null","","","","Images/WhiteBeadChoice.png","null"
"image-keyboard-response","61","211396","0.0-4.0-2.13","16","High_HMMActual","null","","","","Images/WhiteBeadChoiceWrong.png","null"
"image-keyboard-response","62","211694","0.0-4.0-0.14","16","High_HMMActual","296.7949999999837","","","","Images/NewTrialBC.png","37"
"image-keyboard-response","63","212096","0.0-4.0-1.14","16","High_HMMActual","null","","","","Images/BlackBeadChoice.png","null"
"image-keyboard-response","64","212797","0.0-4.0-2.14","16","High_HMMActual","null","","","","Images/BlackBeadChoiceCorrect.png","null"
"image-keyboard-response","65","213094","0.0-4.0-0.15","16","High_HMMActual","295.7400000000198","","","","Images/NewTrialBC.png","39"
"image-keyboard-response","66","213497","0.0-4.0-1.15","16","High_HMMActual","null","","","","Images/WhiteBeadChoice.png","null"
"image-keyboard-response","67","214199","0.0-4.0-2.15","16","High_HMMActual","null","","","","Images/WhiteBeadChoiceWrong.png","null"
"image-keyboard-response","68","214782","0.0-4.0-0.16","16","High_HMMActual","581.9000000000233","","","","Images/NewTrialBC.png","37"
"image-keyboard-response","69","215184","0.0-4.0-1.16","16","High_HMMActual","null","","","","Images/BlackBeadChoice.png","null"
"image-keyboard-response","70","215886","0.0-4.0-2.16","16","High_HMMActual","null","","","","Images/BlackBeadChoiceWrong.png","null"
"image-keyboard-response","71","216238","0.0-4.0-0.17","16","High_HMMActual","351.3550000000105","","","","Images/NewTrialWC.png","39"
"image-keyboard-response","72","216640","0.0-4.0-1.17","16","High_HMMActual","null","","","","Images/WhiteBeadChoice.png","null"
"image-keyboard-response","73","217342","0.0-4.0-2.17","16","High_HMMActual","null","","","","Images/WhiteBeadChoiceCorrect.png","null"
"image-keyboard-response","74","217702","0.0-4.0-0.18","16","High_HMMActual","359.18499999991036","","","","Images/NewTrialWC.png","37"
"image-keyboard-response","75","218103","0.0-4.0-1.18","16","High_HMMActual","null","","","","Images/BlackBeadChoice.png","null"
"image-keyboard-response","76","218804","0.0-4.0-2.18","16","High_HMMActual","null","","","","Images/BlackBeadChoiceWrong.png","null"
"image-keyboard-response","77","219102","0.0-4.0-0.19","16","High_HMMActual","297.1600000000908","","","","Images/NewTrialWC.png","39"
"image-keyboard-response","78","219503","0.0-4.0-1.19","16","High_HMMActual","null","","","","Images/WhiteBeadChoice.png","null"
"image-keyboard-response","79","220205","0.0-4.0-2.19","16","High_HMMActual","null","","","","Images/WhiteBeadChoiceCorrect.png","null"
"image-keyboard-response","80","220710","0.0-4.0-0.20","16","High_HMMActual","503.88999999995576","","","","Images/NewTrialWC.png","37"
"image-keyboard-response","81","221111","0.0-4.0-1.20","16","High_HMMActual","null","","","","Images/BlackBeadChoice.png","null"
"image-keyboard-response","82","221812","0.0-4.0-2.20","16","High_HMMActual","null","","","","Images/BlackBeadChoiceCorrect.png","null"
"image-keyboard-response","83","222198","0.0-4.0-0.21","16","High_HMMActual","384.87000000008265","","","","Images/NewTrialBC.png","39"
"image-keyboard-response","84","222600","0.0-4.0-1.21","16","High_HMMActual","null","","","","Images/WhiteBeadChoice.png","null"
"image-keyboard-response","85","223302","0.0-4.0-2.21","16","High_HMMActual","null","","","","Images/WhiteBeadChoiceCorrect.png","null"
"image-keyboard-response","86","223686","0.0-4.0-0.22","16","High_HMMActual","382.87000000011176","","","","Images/NewTrialWC.png","37"
"image-keyboard-response","87","224088","0.0-4.0-1.22","16","High_HMMActual","null","","","","Images/BlackBeadChoice.png","null"
"image-keyboard-response","88","224789","0.0-4.0-2.22","16","High_HMMActual","null","","","","Images/BlackBeadChoiceCorrect.png","null"
"image-keyboard-response","89","225126","0.0-4.0-0.23","16","High_HMMActual","335.4100000001199","","","","Images/NewTrialBC.png","39"
"image-keyboard-response","90","225528","0.0-4.0-1.23","16","High_HMMActual","null","","","","Images/WhiteBeadChoice.png","null"
"image-keyboard-response","91","226231","0.0-4.0-2.23","16","High_HMMActual","null","","","","Images/WhiteBeadChoiceWrong.png","null"
"image-keyboard-response","92","226558","0.0-4.0-0.24","16","High_HMMActual","326.4099999998871","","","","Images/NewTrialBC.png","37"
"image-keyboard-response","93","226959","0.0-4.0-1.24","16","High_HMMActual","null","","","","Images/BlackBeadChoice.png","null"
"image-keyboard-response","94","227661","0.0-4.0-2.24","16","High_HMMActual","null","","","","Images/BlackBeadChoiceCorrect.png","null"
"image-keyboard-response","95","227966","0.0-4.0-0.25","16","High_HMMActual","304.26499999998487","","","","Images/NewTrialBC.png","39"
"image-keyboard-response","96","228367","0.0-4.0-1.25","16","High_HMMActual","null","","","","Images/WhiteBeadChoice.png","null"
"image-keyboard-response","97","229069","0.0-4.0-2.25","16","High_HMMActual","null","","","","Images/WhiteBeadChoiceCorrect.png","null"
"image-keyboard-response","98","229382","0.0-4.0-0.26","16","High_HMMActual","312.0550000000803","","","","Images/NewTrialWC.png","37"
"image-keyboard-response","99","229783","0.0-4.0-1.26","16","High_HMMActual","null","","","","Images/BlackBeadChoice.png","null"
"image-keyboard-response","100","230485","0.0-4.0-2.26","16","High_HMMActual","null","","","","Images/BlackBeadChoiceCorrect.png","null"
"image-keyboard-response","101","230806","0.0-4.0-0.27","16","High_HMMActual","319.66500000000815","","","","Images/NewTrialBC.png","39"
"image-keyboard-response","102","231207","0.0-4.0-1.27","16","High_HMMActual","null","","","","Images/WhiteBeadChoice.png","null"
"image-keyboard-response","103","231909","0.0-4.0-2.27","16","High_HMMActual","null","","","","Images/WhiteBeadChoiceCorrect.png","null"
"image-keyboard-response","104","232270","0.0-4.0-0.28","16","High_HMMActual","359.5150000001013","","","","Images/NewTrialWC.png","39"
"image-keyboard-response","105","232672","0.0-4.0-1.28","16","High_HMMActual","null","","","","Images/WhiteBeadChoice.png","null"
"image-keyboard-response","106","233374","0.0-4.0-2.28","16","High_HMMActual","null","","","","Images/WhiteBeadChoiceWrong.png","null"
"image-keyboard-response","107","234118","0.0-4.0-0.29","16","High_HMMActual","743.5700000000943","","","","Images/NewTrialBC.png","39"
"image-keyboard-response","108","234520","0.0-4.0-1.29","16","High_HMMActual","null","","","","Images/WhiteBeadChoice.png","null"
"image-keyboard-response","109","235222","0.0-4.0-2.29","16","High_HMMActual","null","","","","Images/WhiteBeadChoiceCorrect.png","null"
"image-keyboard-response","110","235606","0.0-4.0-0.30","16","High_HMMActual","382.90500000017346","","","","Images/NewTrialWC.png","37"
"image-keyboard-response","111","236008","0.0-4.0-1.30","16","High_HMMActual","null","","","","Images/BlackBeadChoice.png","null"
"image-keyboard-response","112","236710","0.0-4.0-2.30","16","High_HMMActual","null","","","","Images/BlackBeadChoiceWrong.png","null"
"image-keyboard-response","113","237006","0.0-4.0-0.31","16","High_HMMActual","295.07500000001164","","","","Images/NewTrialWC.png","39"
"image-keyboard-response","114","237407","0.0-4.0-1.31","16","High_HMMActual","null","","","","Images/WhiteBeadChoice.png","null"
"image-keyboard-response","115","238109","0.0-4.0-2.31","16","High_HMMActual","null","","","","Images/WhiteBeadChoiceCorrect.png","null"
"image-keyboard-response","116","238422","0.0-4.0-0.32","16","High_HMMActual","312.3149999998859","","","","Images/NewTrialWC.png","37"
"image-keyboard-response","117","238823","0.0-4.0-1.32","16","High_HMMActual","null","","","","Images/BlackBeadChoice.png","null"
"image-keyboard-response","118","239524","0.0-4.0-2.32","16","High_HMMActual","null","","","","Images/BlackBeadChoiceCorrect.png","null"
"image-keyboard-response","119","239798","0.0-4.0-0.33","16","High_HMMActual","272.6000000000058","","","","Images/NewTrialBC.png","39"
"image-keyboard-response","120","240199","0.0-4.0-1.33","16","High_HMMActual","null","","","","Images/WhiteBeadChoice.png","null"
"image-keyboard-response","121","240900","0.0-4.0-2.33","16","High_HMMActual","null","","","","Images/WhiteBeadChoiceCorrect.png","null"
"image-keyboard-response","122","241462","0.0-4.0-0.34","16","High_HMMActual","560.5200000000186","","","","Images/NewTrialWC.png","37"
"image-keyboard-response","123","241864","0.0-4.0-1.34","16","High_HMMActual","null","","","","Images/BlackBeadChoice.png","null"
"image-keyboard-response","124","242566","0.0-4.0-2.34","16","High_HMMActual","null","","","","Images/BlackBeadChoiceCorrect.png","null"
"image-keyboard-response","125","242989","0.0-4.0-0.35","16","High_HMMActual","422.38999999995576","","","","Images/NewTrialBC.png","39"
"image-keyboard-response","126","243390","0.0-4.0-1.35","16","High_HMMActual","null","","","","Images/WhiteBeadChoice.png","null"
"image-keyboard-response","127","244092","0.0-4.0-2.35","16","High_HMMActual","null","","","","Images/WhiteBeadChoiceWrong.png","null"
"image-keyboard-response","128","244326","0.0-4.0-0.36","16","High_HMMActual","232.39500000001863","","","","Images/NewTrialBC.png","37"
"image-keyboard-response","129","244727","0.0-4.0-1.36","16","High_HMMActual","null","","","","Images/BlackBeadChoice.png","null"
"image-keyboard-response","130","245429","0.0-4.0-2.36","16","High_HMMActual","669.8349999999336","","","","Images/BlackBeadChoiceCorrect.png","39"
"image-keyboard-response","131","245941","0.0-4.0-0.37","16","High_HMMActual","511.9849999998696","","","","Images/NewTrialBC.png","39"
"image-keyboard-response","132","246342","0.0-4.0-1.37","16","High_HMMActual","null","","","","Images/WhiteBeadChoice.png","null"
"image-keyboard-response","133","247044","0.0-4.0-2.37","16","High_HMMActual","534.160000000149","","","","Images/WhiteBeadChoiceCorrect.png","37"
"image-keyboard-response","134","247101","0.0-4.0-0.38","16","High_HMMActual","56.589999999909196","","","","Images/NewTrialWC.png","37"
"image-keyboard-response","135","247503","0.0-4.0-1.38","16","High_HMMActual","119.37000000011176","","","","Images/BlackBeadChoice.png","37"
"image-keyboard-response","136","248206","0.0-4.0-2.38","16","High_HMMActual","285.1249999998836","","","","Images/BlackBeadChoiceCorrect.png","39"
"image-keyboard-response","137","248245","0.0-4.0-0.39","16","High_HMMActual","38.00999999998021","","","","Images/NewTrialBC.png","39"
"image-keyboard-response","138","248647","0.0-4.0-1.39","16","High_HMMActual","159.48000000003958","","","","Images/WhiteBeadChoice.png","39"
"image-keyboard-response","139","249349","0.0-4.0-2.39","16","High_HMMActual","157.65499999999884","","","","Images/WhiteBeadChoiceCorrect.png","37"
"image-keyboard-response","140","249437","0.0-4.0-0.40","16","High_HMMActual","87.70500000016182","","","","Images/NewTrialWC.png","37"
"image-keyboard-response","141","249838","0.0-4.0-1.40","16","High_HMMActual","159.28499999994528","","","","Images/BlackBeadChoice.png","37"
"image-keyboard-response","142","250540","0.0-4.0-2.40","16","High_HMMActual","310.1400000000431","","","","Images/BlackBeadChoiceCorrect.png","39"
"image-keyboard-response","143","250621","0.0-4.0-0.41","16","High_HMMActual","80.54500000004191","","","","Images/NewTrialBC.png","39"
"image-keyboard-response","144","251023","0.0-4.0-1.41","16","High_HMMActual","158.48000000006869","","","","Images/WhiteBeadChoice.png","39"
"image-keyboard-response","145","251725","0.0-4.0-2.41","16","High_HMMActual","325.454999999929","","","","Images/WhiteBeadChoiceCorrect.png","37"
"image-keyboard-response","146","251853","0.0-4.0-0.42","16","High_HMMActual","127.78000000002794","","","","Images/NewTrialWC.png","37"
"image-keyboard-response","147","252255","0.0-4.0-1.42","16","High_HMMActual","143.41500000000815","","","","Images/BlackBeadChoice.png","37"
"image-keyboard-response","148","252955","0.0-4.0-2.42","16","High_HMMActual","469.9800000000978","","","","Images/BlackBeadChoiceCorrect.png","39"
"image-keyboard-response","149","253037","0.0-4.0-0.43","16","High_HMMActual","81.19000000011874","","","","Images/NewTrialBC.png","39"
"image-keyboard-response","150","253439","0.0-4.0-1.43","16","High_HMMActual","135.50500000017928","","","","Images/WhiteBeadChoice.png","39"
"image-keyboard-response","151","254142","0.0-4.0-2.43","16","High_HMMActual","324.8850000000093","","","","Images/WhiteBeadChoiceCorrect.png","37"
"image-keyboard-response","152","254213","0.0-4.0-0.44","16","High_HMMActual","70.45999999993364","","","","Images/NewTrialWC.png","37"
"image-keyboard-response","153","254615","0.0-4.0-1.44","16","High_HMMActual","167.59500000011758","","","","Images/BlackBeadChoice.png","37"
"image-keyboard-response","154","255316","0.0-4.0-2.44","16","High_HMMActual","373.8849999999511","","","","Images/BlackBeadChoiceCorrect.png","39"
"image-keyboard-response","155","255461","0.0-4.0-0.45","16","High_HMMActual","144.23499999998603","","","","Images/NewTrialBC.png","39"
"image-keyboard-response","156","255862","0.0-4.0-1.45","16","High_HMMActual","143.32500000001164","","","","Images/WhiteBeadChoice.png","39"
"image-keyboard-response","157","256563","0.0-4.0-2.45","16","High_HMMActual","486.5500000001048","","","","Images/WhiteBeadChoiceCorrect.png","37"
"image-keyboard-response","158","256670","0.0-4.0-0.46","16","High_HMMActual","105.63500000012573","","","","Images/NewTrialWC.png","37"
"image-keyboard-response","159","257072","0.0-4.0-1.46","16","High_HMMActual","167.1699999999255","","","","Images/BlackBeadChoice.png","37"
"image-keyboard-response","160","257774","0.0-4.0-2.46","16","High_HMMActual","380.85499999989406","","","","Images/BlackBeadChoiceWrong.png","39"
"image-keyboard-response","161","257925","0.0-4.0-0.47","16","High_HMMActual","149.97999999989406","","","","Images/NewTrialWC.png","39"
"image-keyboard-response","162","258326","0.0-4.0-1.47","16","High_HMMActual","null","","","","Images/WhiteBeadChoice.png","null"
"image-keyboard-response","163","259027","0.0-4.0-2.47","16","High_HMMActual","null","","","","Images/WhiteBeadChoiceWrong.png","null"
"image-keyboard-response","164","259166","0.0-4.0-0.48","16","High_HMMActual","137.6050000001269","","","","Images/NewTrialBC.png","37"
"image-keyboard-response","165","259567","0.0-4.0-1.48","16","High_HMMActual","150.7850000000326","","","","Images/BlackBeadChoice.png","37"
"image-keyboard-response","166","260269","0.0-4.0-2.48","16","High_HMMActual","693.4850000000151","","","","Images/BlackBeadChoiceWrong.png","39"
"image-keyboard-response","167","260422","0.0-4.0-0.49","16","High_HMMActual","151.8399999999965","","","","Images/NewTrialWC.png","39"
"image-keyboard-response","168","260823","0.0-4.0-1.49","16","High_HMMActual","159.03000000002794","","","","Images/WhiteBeadChoice.png","39"
"image-keyboard-response","169","261524","0.0-4.0-2.49","16","High_HMMActual","null","","","","Images/WhiteBeadChoiceWrong.png","null"
"image-keyboard-response","170","261693","0.0-4.0-0.50","16","High_HMMActual","168.06999999994878","","","","Images/NewTrialBC.png","37"
"image-keyboard-response","171","262094","0.0-4.0-1.50","16","High_HMMActual","151.25500000000466","","","","Images/BlackBeadChoice.png","37"
"image-keyboard-response","172","262796","0.0-4.0-2.50","16","High_HMMActual","null","","","","Images/BlackBeadChoiceCorrect.png","null"
"image-keyboard-response","173","262965","0.0-4.0-0.51","16","High_HMMActual","168.6850000001141","","","","Images/NewTrialBC.png","39"
"image-keyboard-response","174","263367","0.0-4.0-1.51","16","High_HMMActual","143.35000000009313","","","","Images/WhiteBeadChoice.png","39"
"image-keyboard-response","175","264069","0.0-4.0-2.51","16","High_HMMActual","null","","","","Images/WhiteBeadChoiceWrong.png","null"
"image-keyboard-response","176","264174","0.0-4.0-0.52","16","High_HMMActual","103.62000000011176","","","","Images/NewTrialBC.png","37"
"image-keyboard-response","177","264575","0.0-4.0-1.52","16","High_HMMActual","175.02999999991152","","","","Images/BlackBeadChoice.png","37"
"image-keyboard-response","178","265276","0.0-4.0-2.52","16","High_HMMActual","null","","","","Images/BlackBeadChoiceWrong.png","null"
"image-keyboard-response","179","265734","0.0-4.0-0.53","16","High_HMMActual","456.5199999999604","","","","Images/NewTrialWC.png","37"
"image-keyboard-response","180","266135","0.0-4.0-1.53","16","High_HMMActual","null","","","","Images/BlackBeadChoice.png","null"
"image-keyboard-response","181","266836","0.0-4.0-2.53","16","High_HMMActual","null","","","","Images/BlackBeadChoiceCorrect.png","null"
"image-keyboard-response","182","266989","0.0-4.0-0.54","16","High_HMMActual","152.12499999982538","","","","Images/NewTrialBC.png","39"
"image-keyboard-response","183","267391","0.0-4.0-1.54","16","High_HMMActual","null","","","","Images/WhiteBeadChoice.png","null"
"image-keyboard-response","184","268092","0.0-4.0-2.54","16","High_HMMActual","685.9349999999977","","","","Images/WhiteBeadChoiceCorrect.png","37"
"image-keyboard-response","185","268493","0.0-4.0-0.55","16","High_HMMActual","400.8200000000652","","","","Images/NewTrialWC.png","37"
"image-keyboard-response","186","268895","0.0-4.0-1.55","16","High_HMMActual","null","","","","Images/BlackBeadChoice.png","null"
"image-keyboard-response","187","269596","0.0-4.0-2.55","16","High_HMMActual","null","","","","Images/BlackBeadChoiceWrong.png","null"
"image-keyboard-response","188","269790","0.0-4.0-0.56","16","High_HMMActual","192.03999999986263","","","","Images/NewTrialWC.png","39"
"image-keyboard-response","189","270191","0.0-4.0-1.56","16","High_HMMActual","151.1799999998766","","","","Images/WhiteBeadChoice.png","39"
"image-keyboard-response","190","270892","0.0-4.0-2.56","16","High_HMMActual","null","","","","Images/WhiteBeadChoiceCorrect.png","null"
"image-keyboard-response","191","271045","0.0-4.0-0.57","16","High_HMMActual","152.69500000000698","","","","Images/NewTrialWC.png","37"
"image-keyboard-response","192","271446","0.0-4.0-1.57","16","High_HMMActual","null","","","","Images/BlackBeadChoice.png","null"
"image-keyboard-response","193","272147","0.0-4.0-2.57","16","High_HMMActual","null","","","","Images/BlackBeadChoiceCorrect.png","null"
"image-keyboard-response","194","272341","0.0-4.0-0.58","16","High_HMMActual","192.98500000010245","","","","Images/NewTrialBC.png","39"
"image-keyboard-response","195","272743","0.0-4.0-1.58","16","High_HMMActual","null","","","","Images/WhiteBeadChoice.png","null"
"image-keyboard-response","196","273444","0.0-4.0-2.58","16","High_HMMActual","null","","","","Images/WhiteBeadChoiceCorrect.png","null"
"image-keyboard-response","197","273661","0.0-4.0-0.59","16","High_HMMActual","215.97500000003492","","","","Images/NewTrialWC.png","37"
"image-keyboard-response","198","274062","0.0-4.0-1.59","16","High_HMMActual","null","","","","Images/BlackBeadChoice.png","null"
"image-keyboard-response","199","274763","0.0-4.0-2.59","16","High_HMMActual","null","","","","Images/BlackBeadChoiceCorrect.png","null"
"image-keyboard-response","200","274941","0.0-4.0-0.60","16","High_HMMActual","177.2149999999674","","","","Images/NewTrialBC.png","39"
"image-keyboard-response","201","275343","0.0-4.0-1.60","16","High_HMMActual","null","","","","Images/WhiteBeadChoice.png","null"
"image-keyboard-response","202","276044","0.0-4.0-2.60","16","High_HMMActual","null","","","","Images/WhiteBeadChoiceCorrect.png","null"
"image-keyboard-response","203","276374","0.0-4.0-0.61","16","High_HMMActual","329.070000000007","","","","Images/NewTrialWC.png","37"
"image-keyboard-response","204","276775","0.0-4.0-1.61","16","High_HMMActual","null","","","","Images/BlackBeadChoice.png","null"
"image-keyboard-response","205","277478","0.0-4.0-2.61","16","High_HMMActual","null","","","","Images/BlackBeadChoiceCorrect.png","null"
"image-keyboard-response","206","277573","0.0-4.0-0.62","16","High_HMMActual","94.75499999983003","","","","Images/NewTrialBC.png","39"
"image-keyboard-response","207","277975","0.0-4.0-1.62","16","High_HMMActual","null","","","","Images/WhiteBeadChoice.png","null"
"image-keyboard-response","208","278676","0.0-4.0-2.62","16","High_HMMActual","null","","","","Images/WhiteBeadChoiceCorrect.png","null"
"image-keyboard-response","209","278734","0.0-4.0-0.63","16","High_HMMActual","56.90000000002328","","","","Images/NewTrialWC.png","37"
"image-keyboard-response","210","279135","0.0-4.0-1.63","16","High_HMMActual","null","","","","Images/BlackBeadChoice.png","null"
"image-keyboard-response","211","279837","0.0-4.0-2.63","16","High_HMMActual","null","","","","Images/BlackBeadChoiceCorrect.png","null"
"image-keyboard-response","212","279901","0.0-4.0-0.64","16","High_HMMActual","63.300000000046566","","","","Images/NewTrialBC.png","39"
"image-keyboard-response","213","280303","0.0-4.0-1.64","16","High_HMMActual","null","","","","Images/WhiteBeadChoice.png","null"
"image-keyboard-response","214","281005","0.0-4.0-2.64","16","High_HMMActual","null","","","","Images/WhiteBeadChoiceCorrect.png","null"
"image-keyboard-response","215","281181","0.0-4.0-0.65","16","High_HMMActual","175.33500000013737","","","","Images/NewTrialWC.png","37"
"image-keyboard-response","216","281582","0.0-4.0-1.65","16","High_HMMActual","null","","","","Images/BlackBeadChoice.png","null"
"image-keyboard-response","217","282284","0.0-4.0-2.65","16","High_HMMActual","null","","","","Images/BlackBeadChoiceCorrect.png","null"
"image-keyboard-response","218","282365","0.0-4.0-0.66","16","High_HMMActual","80.20499999995809","","","","Images/NewTrialBC.png","39"
"image-keyboard-response","219","282767","0.0-4.0-1.66","16","High_HMMActual","null","","","","Images/WhiteBeadChoice.png","null"
"image-keyboard-response","220","283470","0.0-4.0-2.66","16","High_HMMActual","null","","","","Images/WhiteBeadChoiceCorrect.png","null"
"image-keyboard-response","221","283709","0.0-4.0-0.67","16","High_HMMActual","238.91499999992084","","","","Images/NewTrialWC.png","39"
"image-keyboard-response","222","284112","0.0-4.0-1.67","16","High_HMMActual","null","","","","Images/WhiteBeadChoice.png","null"
"image-keyboard-response","223","284814","0.0-4.0-2.67","16","High_HMMActual","null","","","","Images/WhiteBeadChoiceWrong.png","null"
"image-keyboard-response","224","284869","0.0-4.0-0.68","16","High_HMMActual","54.824999999953434","","","","Images/NewTrialBC.png","39"
"image-keyboard-response","225","285271","0.0-4.0-1.68","16","High_HMMActual","null","","","","Images/WhiteBeadChoice.png","null"
"image-keyboard-response","226","285973","0.0-4.0-2.68","16","High_HMMActual","null","","","","Images/WhiteBeadChoiceCorrect.png","null"
"image-keyboard-response","227","286005","0.0-4.0-0.69","16","High_HMMActual","30.94999999983702","","","","Images/NewTrialWC.png","37"
"image-keyboard-response","228","286407","0.0-4.0-1.69","16","High_HMMActual","null","","","","Images/BlackBeadChoice.png","null"
"image-keyboard-response","229","287109","0.0-4.0-2.69","16","High_HMMActual","null","","","","Images/BlackBeadChoiceWrong.png","null"
"image-keyboard-response","230","287190","0.0-4.0-0.70","16","High_HMMActual","80.14499999990221","","","","Images/NewTrialWC.png","39"
"image-keyboard-response","231","287591","0.0-4.0-1.70","16","High_HMMActual","null","","","","Images/WhiteBeadChoice.png","null"
"image-keyboard-response","232","288293","0.0-4.0-2.70","16","High_HMMActual","null","","","","Images/WhiteBeadChoiceWrong.png","null"
"image-keyboard-response","233","288462","0.0-4.0-0.71","16","High_HMMActual","167.8650000001653","","","","Images/NewTrialBC.png","37"
"image-keyboard-response","234","288863","0.0-4.0-1.71","16","High_HMMActual","null","","","","Images/BlackBeadChoice.png","null"
"image-keyboard-response","235","289565","0.0-4.0-2.71","16","High_HMMActual","null","","","","Images/BlackBeadChoiceCorrect.png","null"
"image-keyboard-response","236","289757","0.0-4.0-0.72","16","High_HMMActual","192.02000000019325","","","","Images/NewTrialBC.png","39"
"image-keyboard-response","237","290159","0.0-4.0-1.72","16","High_HMMActual","null","","","","Images/WhiteBeadChoice.png","null"
"image-keyboard-response","238","290860","0.0-4.0-2.72","16","High_HMMActual","null","","","","Images/WhiteBeadChoiceCorrect.png","null"
"image-keyboard-response","239","290885","0.0-4.0-0.73","16","High_HMMActual","24.5","","","","Images/NewTrialWC.png","37"
"image-keyboard-response","240","291286","0.0-4.0-1.73","16","High_HMMActual","null","","","","Images/BlackBeadChoice.png","null"
"image-keyboard-response","241","291988","0.0-4.0-2.73","16","High_HMMActual","null","","","","Images/BlackBeadChoiceCorrect.png","null"
"image-keyboard-response","242","292134","0.0-4.0-0.74","16","High_HMMActual","144.75500000000466","","","","Images/NewTrialBC.png","39"
"image-keyboard-response","243","292535","0.0-4.0-1.74","16","High_HMMActual","null","","","","Images/WhiteBeadChoice.png","null"
"image-keyboard-response","244","293238","0.0-4.0-2.74","16","High_HMMActual","693.054999999993","","","","Images/WhiteBeadChoiceCorrect.png","37"
"image-keyboard-response","245","293653","0.0-4.0-0.75","16","High_HMMActual","415","","","","Images/NewTrialWC.png","37"
"image-keyboard-response","246","294056","0.0-4.0-1.75","16","High_HMMActual","null","","","","Images/BlackBeadChoice.png","null"
"image-keyboard-response","247","294757","0.0-4.0-2.75","16","High_HMMActual","null","","","","Images/BlackBeadChoiceCorrect.png","null"
"image-keyboard-response","248","294773","0.0-4.0-0.76","16","High_HMMActual","15.45499999995809","","","","Images/NewTrialBC.png","39"
"image-keyboard-response","249","295176","0.0-4.0-1.76","16","High_HMMActual","null","","","","Images/WhiteBeadChoice.png","null"
"image-keyboard-response","250","295878","0.0-4.0-2.76","16","High_HMMActual","null","","","","Images/WhiteBeadChoiceCorrect.png","null"
"image-keyboard-response","251","295885","0.0-4.0-0.77","16","High_HMMActual","6.885000000009313","","","","Images/NewTrialWC.png","37"
"image-keyboard-response","252","296286","0.0-4.0-1.77","16","High_HMMActual","null","","","","Images/BlackBeadChoice.png","null"
"image-keyboard-response","253","296987","0.0-4.0-2.77","16","High_HMMActual","null","","","","Images/BlackBeadChoiceCorrect.png","null"
"image-keyboard-response","254","296989","0.0-4.0-0.78","16","High_HMMActual","1.2300000000977889","","","","Images/NewTrialBC.png","39"
"image-keyboard-response","255","297391","0.0-4.0-1.78","16","High_HMMActual","null","","","","Images/WhiteBeadChoice.png","null"
"image-keyboard-response","256","298093","0.0-4.0-2.78","16","High_HMMActual","566.0499999998719","","","","Images/WhiteBeadChoiceCorrect.png","37"
"image-keyboard-response","257","298525","0.0-4.0-0.79","16","High_HMMActual","431.6850000000559","","","","Images/NewTrialWC.png","37"
"image-keyboard-response","258","298927","0.0-4.0-1.79","16","High_HMMActual","null","","","","Images/BlackBeadChoice.png","null"
"image-keyboard-response","259","299629","0.0-4.0-2.79","16","High_HMMActual","429.3649999999325","","","","Images/BlackBeadChoiceCorrect.png","39"
"image-keyboard-response","260","299749","0.0-4.0-0.80","16","High_HMMActual","119.70999999996275","","","","Images/NewTrialBC.png","39"
"image-keyboard-response","261","300150","0.0-4.0-1.80","16","High_HMMActual","null","","","","Images/WhiteBeadChoice.png","null"
"image-keyboard-response","262","300851","0.0-4.0-2.80","16","High_HMMActual","598.2450000001118","","","","Images/WhiteBeadChoiceCorrect.png","37"
"image-keyboard-response","263","301101","0.0-4.0-0.81","16","High_HMMActual","248.7850000000326","","","","Images/NewTrialWC.png","37"
"image-keyboard-response","264","301504","0.0-4.0-1.81","16","High_HMMActual","null","","","","Images/BlackBeadChoice.png","null"
"image-keyboard-response","265","302205","0.0-4.0-2.81","16","High_HMMActual","516.7099999998463","","","","Images/BlackBeadChoiceCorrect.png","39"
"image-keyboard-response","266","302373","0.0-4.0-0.82","16","High_HMMActual","167.91499999997905","","","","Images/NewTrialBC.png","39"
"image-keyboard-response","267","302775","0.0-4.0-1.82","16","High_HMMActual","null","","","","Images/WhiteBeadChoice.png","null"
"image-keyboard-response","268","303477","0.0-4.0-2.82","16","High_HMMActual","165.42500000016298","","","","Images/WhiteBeadChoiceWrong.png","37"
"image-keyboard-response","269","303589","0.0-4.0-0.83","16","High_HMMActual","111.67999999999302","","","","Images/NewTrialBC.png","37"
"image-keyboard-response","270","303990","0.0-4.0-1.83","16","High_HMMActual","null","","","","Images/BlackBeadChoice.png","null"
"image-keyboard-response","271","304691","0.0-4.0-2.83","16","High_HMMActual","246.144999999844","","","","Images/BlackBeadChoiceWrong.png","39"
"image-keyboard-response","272","305133","0.0-4.0-0.84","16","High_HMMActual","440.9900000000489","","","","Images/NewTrialWC.png","39"
"image-keyboard-response","273","305534","0.0-4.0-1.84","16","High_HMMActual","null","","","","Images/WhiteBeadChoice.png","null"
"image-keyboard-response","274","306236","0.0-4.0-2.84","16","High_HMMActual","190.214999999851","","","","Images/WhiteBeadChoiceCorrect.png","37"
"image-keyboard-response","275","306397","0.0-4.0-0.85","16","High_HMMActual","160.12500000011642","","","","Images/NewTrialWC.png","37"
"image-keyboard-response","276","306799","0.0-4.0-1.85","16","High_HMMActual","null","","","","Images/BlackBeadChoice.png","null"
"image-keyboard-response","277","307501","0.0-4.0-2.85","16","High_HMMActual","181.6799999999348","","","","Images/BlackBeadChoiceCorrect.png","39"
"image-keyboard-response","278","307974","0.0-4.0-0.86","16","High_HMMActual","471.7049999998999","","","","Images/NewTrialBC.png","39"
"image-keyboard-response","279","308375","0.0-4.0-1.86","16","High_HMMActual","null","","","","Images/WhiteBeadChoice.png","null"
"image-keyboard-response","280","309077","0.0-4.0-2.86","16","High_HMMActual","101.74499999993714","","","","Images/WhiteBeadChoiceCorrect.png","37"
"image-keyboard-response","281","309293","0.0-4.0-0.87","16","High_HMMActual","215.58500000013737","","","","Images/NewTrialWC.png","37"
"image-keyboard-response","282","309695","0.0-4.0-1.87","16","High_HMMActual","null","","","","Images/BlackBeadChoice.png","null"
"image-keyboard-response","283","310396","0.0-4.0-2.87","16","High_HMMActual","205.47999999986496","","","","Images/BlackBeadChoiceCorrect.png","39"
"image-keyboard-response","284","310421","0.0-4.0-0.88","16","High_HMMActual","24.204999999899883","","","","Images/NewTrialBC.png","39"
"image-keyboard-response","285","310823","0.0-4.0-1.88","16","High_HMMActual","null","","","","Images/WhiteBeadChoice.png","null"
"image-keyboard-response","286","311525","0.0-4.0-2.88","16","High_HMMActual","173.4450000001234","","","","Images/WhiteBeadChoiceCorrect.png","37"
"image-keyboard-response","287","311685","0.0-4.0-0.89","16","High_HMMActual","159.10499999998137","","","","Images/NewTrialWC.png","37"
"image-keyboard-response","288","312087","0.0-4.0-1.89","16","High_HMMActual","null","","","","Images/BlackBeadChoice.png","null"
"image-keyboard-response","289","312788","0.0-4.0-2.89","16","High_HMMActual","93.91499999992084","","","","Images/BlackBeadChoiceCorrect.png","39"
"image-keyboard-response","290","313325","0.0-4.0-0.90","16","High_HMMActual","536.645000000135","","","","Images/NewTrialBC.png","39"
"image-keyboard-response","291","313727","0.0-4.0-1.90","16","High_HMMActual","null","","","","Images/WhiteBeadChoice.png","null"
"image-keyboard-response","292","314428","0.0-4.0-2.90","16","High_HMMActual","77.25500000012107","","","","Images/WhiteBeadChoiceCorrect.png","37"
"image-keyboard-response","293","314525","0.0-4.0-0.91","16","High_HMMActual","96.17000000004191","","","","Images/NewTrialWC.png","37"
"image-keyboard-response","294","314927","0.0-4.0-1.91","16","High_HMMActual","null","","","","Images/BlackBeadChoice.png","null"
"image-keyboard-response","295","315629","0.0-4.0-2.91","16","High_HMMActual","109.54500000004191","","","","Images/BlackBeadChoiceCorrect.png","39"
"image-keyboard-response","296","315893","0.0-4.0-0.92","16","High_HMMActual","263.22500000009313","","","","Images/NewTrialBC.png","39"
"image-keyboard-response","297","316295","0.0-4.0-1.92","16","High_HMMActual","null","","","","Images/WhiteBeadChoice.png","null"
"image-keyboard-response","298","316997","0.0-4.0-2.92","16","High_HMMActual","605.2199999999139","","","","Images/WhiteBeadChoiceWrong.png","37"
"image-keyboard-response","299","317325","0.0-4.0-0.93","16","High_HMMActual","326.91499999986263","","","","Images/NewTrialBC.png","37"
"image-keyboard-response","300","317726","0.0-4.0-1.93","16","High_HMMActual","159.4199999999837","","","","Images/BlackBeadChoice.png","37"
"image-keyboard-response","301","318428","0.0-4.0-2.93","16","High_HMMActual","null","","","","Images/BlackBeadChoiceCorrect.png","null"
"image-keyboard-response","302","318653","0.0-4.0-0.94","16","High_HMMActual","224.9199999999255","","","","Images/NewTrialBC.png","39"
"image-keyboard-response","303","319054","0.0-4.0-1.94","16","High_HMMActual","null","","","","Images/WhiteBeadChoice.png","null"
"image-keyboard-response","304","319756","0.0-4.0-2.94","16","High_HMMActual","null","","","","Images/WhiteBeadChoiceWrong.png","null"
"image-keyboard-response","305","320070","0.0-4.0-0.95","16","High_HMMActual","312.63999999989755","","","","Images/NewTrialBC.png","37"
"image-keyboard-response","306","320471","0.0-4.0-1.95","16","High_HMMActual","null","","","","Images/BlackBeadChoice.png","null"
"image-keyboard-response","307","321173","0.0-4.0-2.95","16","High_HMMActual","null","","","","Images/BlackBeadChoiceWrong.png","null"
"image-keyboard-response","308","321349","0.0-4.0-0.96","16","High_HMMActual","175.10499999998137","","","","Images/NewTrialWC.png","39"
"image-keyboard-response","309","321752","0.0-4.0-1.96","16","High_HMMActual","null","","","","Images/WhiteBeadChoice.png","null"
"image-keyboard-response","310","322453","0.0-4.0-2.96","16","High_HMMActual","null","","","","Images/WhiteBeadChoiceCorrect.png","null"
"image-keyboard-response","311","322645","0.0-4.0-0.97","16","High_HMMActual","191.51000000012573","","","","Images/NewTrialWC.png","37"
"image-keyboard-response","312","323046","0.0-4.0-1.97","16","High_HMMActual","null","","","","Images/BlackBeadChoice.png","null"
"image-keyboard-response","313","323748","0.0-4.0-2.97","16","High_HMMActual","null","","","","Images/BlackBeadChoiceCorrect.png","null"
"image-keyboard-response","314","323877","0.0-4.0-0.98","16","High_HMMActual","128.0199999999022","","","","Images/NewTrialBC.png","39"
"image-keyboard-response","315","324278","0.0-4.0-1.98","16","High_HMMActual","null","","","","Images/WhiteBeadChoice.png","null"
"image-keyboard-response","316","324980","0.0-4.0-2.98","16","High_HMMActual","null","","","","Images/WhiteBeadChoiceCorrect.png","null"
"image-keyboard-response","317","325133","0.0-4.0-0.99","16","High_HMMActual","152.2050000000745","","","","Images/NewTrialWC.png","37"
"image-keyboard-response","318","325536","0.0-4.0-1.99","16","High_HMMActual","null","","","","Images/BlackBeadChoice.png","null"
"image-keyboard-response","319","326237","0.0-4.0-2.99","16","High_HMMActual","null","","","","Images/BlackBeadChoiceWrong.png","null"
"image-keyboard-response","320","326373","0.0-4.0-0.100","16","High_HMMActual","135.5700000001234","","","","Images/NewTrialWC.png","39"
"image-keyboard-response","321","326774","0.0-4.0-1.100","16","High_HMMActual","null","","","","Images/WhiteBeadChoice.png","null"
"image-keyboard-response","322","327476","0.0-4.0-2.100","16","High_HMMActual","null","","","","Images/WhiteBeadChoiceCorrect.png","null"
"image-keyboard-response","323","327661","0.0-4.0-0.101","16","High_HMMActual","184.7799999997951","","","","Images/NewTrialWC.png","37"
"image-keyboard-response","324","328062","0.0-4.0-1.101","16","High_HMMActual","null","","","","Images/BlackBeadChoice.png","null"
"image-keyboard-response","325","328764","0.0-4.0-2.101","16","High_HMMActual","null","","","","Images/BlackBeadChoiceCorrect.png","null"
"image-keyboard-response","326","328910","0.0-4.0-0.102","16","High_HMMActual","144.67499999998836","","","","Images/NewTrialBC.png","39"
"image-keyboard-response","327","329312","0.0-4.0-1.102","16","High_HMMActual","null","","","","Images/WhiteBeadChoice.png","null"
"image-keyboard-response","328","330013","0.0-4.0-2.102","16","High_HMMActual","null","","","","Images/WhiteBeadChoiceCorrect.png","null"
"image-keyboard-response","329","330141","0.0-4.0-0.103","16","High_HMMActual","127.65500000002794","","","","Images/NewTrialWC.png","37"
"image-keyboard-response","330","330543","0.0-4.0-1.103","16","High_HMMActual","null","","","","Images/BlackBeadChoice.png","null"
"image-keyboard-response","331","331244","0.0-4.0-2.103","16","High_HMMActual","null","","","","Images/BlackBeadChoiceCorrect.png","null"
"image-keyboard-response","332","331309","0.0-4.0-0.104","16","High_HMMActual","63.88500000000931","","","","Images/NewTrialBC.png","39"
"image-keyboard-response","333","331711","0.0-4.0-1.104","16","High_HMMActual","null","","","","Images/WhiteBeadChoice.png","null"
"image-keyboard-response","334","332413","0.0-4.0-2.104","16","High_HMMActual","null","","","","Images/WhiteBeadChoiceCorrect.png","null"
"image-keyboard-response","335","332421","0.0-4.0-0.105","16","High_HMMActual","6.965000000025611","","","","Images/NewTrialWC.png","37"
"image-keyboard-response","336","332822","0.0-4.0-1.105","16","High_HMMActual","null","","","","Images/BlackBeadChoice.png","null"
"image-keyboard-response","337","333525","0.0-4.0-2.105","16","High_HMMActual","null","","","","Images/BlackBeadChoiceWrong.png","null"
"image-keyboard-response","338","333526","0.0-4.0-0.106","16","High_HMMActual","0.25000000005820766","","","","Images/NewTrialWC.png","39"
"image-keyboard-response","339","333927","0.0-4.0-1.106","16","High_HMMActual","null","","","","Images/WhiteBeadChoice.png","null"
"image-keyboard-response","340","334629","0.0-4.0-2.106","16","High_HMMActual","null","","","","Images/WhiteBeadChoiceWrong.png","null"
"image-keyboard-response","341","334661","0.0-4.0-0.107","16","High_HMMActual","31.585000000195578","","","","Images/NewTrialBC.png","37"
"image-keyboard-response","342","335064","0.0-4.0-1.107","16","High_HMMActual","null","","","","Images/BlackBeadChoice.png","null"
"image-keyboard-response","343","335764","0.0-4.0-2.107","16","High_HMMActual","null","","","","Images/BlackBeadChoiceWrong.png","null"
"image-keyboard-response","344","335797","0.0-4.0-0.108","16","High_HMMActual","32.0099999998929","","","","Images/NewTrialWC.png","39"
"image-keyboard-response","345","336199","0.0-4.0-1.108","16","High_HMMActual","null","","","","Images/WhiteBeadChoice.png","null"
"image-keyboard-response","346","336901","0.0-4.0-2.108","16","High_HMMActual","null","","","","Images/WhiteBeadChoiceCorrect.png","null"
"image-keyboard-response","347","336989","0.0-4.0-0.109","16","High_HMMActual","87.51000000006752","","","","Images/NewTrialWC.png","37"
"image-keyboard-response","348","337390","0.0-4.0-1.109","16","High_HMMActual","null","","","","Images/BlackBeadChoice.png","null"
"image-keyboard-response","349","338093","0.0-4.0-2.109","16","High_HMMActual","686.1500000000233","","","","Images/BlackBeadChoiceCorrect.png","39"
"image-keyboard-response","350","338573","0.0-4.0-0.110","16","High_HMMActual","479.9299999999348","","","","Images/NewTrialBC.png","39"
"image-keyboard-response","351","338975","0.0-4.0-1.110","16","High_HMMActual","null","","","","Images/WhiteBeadChoice.png","null"
"image-keyboard-response","352","339677","0.0-4.0-2.110","16","High_HMMActual","null","","","","Images/WhiteBeadChoiceCorrect.png","null"
"image-keyboard-response","353","339774","0.0-4.0-0.111","16","High_HMMActual","95.31999999989057","","","","Images/NewTrialWC.png","37"
"image-keyboard-response","354","340175","0.0-4.0-1.111","16","High_HMMActual","null","","","","Images/BlackBeadChoice.png","null"
"image-keyboard-response","355","340876","0.0-4.0-2.111","16","High_HMMActual","677.5950000001467","","","","Images/BlackBeadChoiceCorrect.png","39"
"image-keyboard-response","356","341349","0.0-4.0-0.112","16","High_HMMActual","472.08500000013737","","","","Images/NewTrialBC.png","39"
"image-keyboard-response","357","341751","0.0-4.0-1.112","16","High_HMMActual","null","","","","Images/WhiteBeadChoice.png","null"
"image-keyboard-response","358","342453","0.0-4.0-2.112","16","High_HMMActual","677.7900000001537","","","","Images/WhiteBeadChoiceCorrect.png","37"
"image-keyboard-response","359","342941","0.0-4.0-0.113","16","High_HMMActual","487.7200000000885","","","","Images/NewTrialWC.png","37"
"image-keyboard-response","360","343343","0.0-4.0-1.113","16","High_HMMActual","null","","","","Images/BlackBeadChoice.png","null"
"image-keyboard-response","361","344045","0.0-4.0-2.113","16","High_HMMActual","null","","","","Images/BlackBeadChoiceCorrect.png","null"
"image-keyboard-response","362","344133","0.0-4.0-0.114","16","High_HMMActual","87.47500000003492","","","","Images/NewTrialBC.png","39"
"image-keyboard-response","363","344535","0.0-4.0-1.114","16","High_HMMActual","null","","","","Images/WhiteBeadChoice.png","null"
"image-keyboard-response","364","345237","0.0-4.0-2.114","16","High_HMMActual","null","","","","Images/WhiteBeadChoiceCorrect.png","null"
"image-keyboard-response","365","345317","0.0-4.0-0.115","16","High_HMMActual","79.57500000001164","","","","Images/NewTrialWC.png","39"
"image-keyboard-response","366","345719","0.0-4.0-1.115","16","High_HMMActual","null","","","","Images/WhiteBeadChoice.png","null"
"image-keyboard-response","367","346422","0.0-4.0-2.115","16","High_HMMActual","null","","","","Images/WhiteBeadChoiceCorrect.png","null"
"image-keyboard-response","368","346685","0.0-4.0-0.116","16","High_HMMActual","262.88000000000466","","","","Images/NewTrialWC.png","37"
"image-keyboard-response","369","347087","0.0-4.0-1.116","16","High_HMMActual","null","","","","Images/BlackBeadChoice.png","null"
"image-keyboard-response","370","347789","0.0-4.0-2.116","16","High_HMMActual","null","","","","Images/BlackBeadChoiceWrong.png","null"
"image-keyboard-response","371","347981","0.0-4.0-0.117","16","High_HMMActual","191.44999999983702","","","","Images/NewTrialWC.png","39"
"image-keyboard-response","372","348383","0.0-4.0-1.117","16","High_HMMActual","null","","","","Images/WhiteBeadChoice.png","null"
"image-keyboard-response","373","349084","0.0-4.0-2.117","16","High_HMMActual","null","","","","Images/WhiteBeadChoiceWrong.png","null"
"image-keyboard-response","374","349790","0.0-4.0-0.118","16","High_HMMActual","705.1149999999907","","","","Images/NewTrialBC.png","39"
"image-keyboard-response","375","350192","0.0-4.0-1.118","16","High_HMMActual","null","","","","Images/WhiteBeadChoice.png","null"
"image-keyboard-response","376","350893","0.0-4.0-2.118","16","High_HMMActual","null","","","","Images/WhiteBeadChoiceCorrect.png","null"
"image-keyboard-response","377","350965","0.0-4.0-0.119","16","High_HMMActual","71.65499999996973","","","","Images/NewTrialWC.png","37"
"image-keyboard-response","378","351366","0.0-4.0-1.119","16","High_HMMActual","null","","","","Images/BlackBeadChoice.png","null"
"image-keyboard-response","379","352068","0.0-4.0-2.119","16","High_HMMActual","null","","","","Images/BlackBeadChoiceCorrect.png","null"
"image-keyboard-response","380","352149","0.0-4.0-0.120","16","High_HMMActual","79.39000000007218","","","","Images/NewTrialBC.png","39"
"image-keyboard-response","381","352551","0.0-4.0-1.120","16","High_HMMActual","null","","","","Images/WhiteBeadChoice.png","null"
"image-keyboard-response","382","353253","0.0-4.0-2.120","16","High_HMMActual","null","","","","Images/WhiteBeadChoiceWrong.png","null"
"image-keyboard-response","383","353493","0.0-4.0-0.121","16","High_HMMActual","239.22999999992317","","","","Images/NewTrialBC.png","37"
"image-keyboard-response","384","353895","0.0-4.0-1.121","16","High_HMMActual","null","","","","Images/BlackBeadChoice.png","null"
"image-keyboard-response","385","354596","0.0-4.0-2.121","16","High_HMMActual","null","","","","Images/BlackBeadChoiceCorrect.png","null"
"image-keyboard-response","386","354797","0.0-4.0-0.122","16","High_HMMActual","200.87999999988824","","","","Images/NewTrialBC.png","39"
"image-keyboard-response","387","355199","0.0-4.0-1.122","16","High_HMMActual","null","","","","Images/WhiteBeadChoice.png","null"
"image-keyboard-response","388","355900","0.0-4.0-2.122","16","High_HMMActual","null","","","","Images/WhiteBeadChoiceWrong.png","null"
"image-keyboard-response","389","356037","0.0-4.0-0.123","16","High_HMMActual","136.26499999983935","","","","Images/NewTrialBC.png","37"
"image-keyboard-response","390","356439","0.0-4.0-1.123","16","High_HMMActual","null","","","","Images/BlackBeadChoice.png","null"
"image-keyboard-response","391","357140","0.0-4.0-2.123","16","High_HMMActual","null","","","","Images/BlackBeadChoiceCorrect.png","null"
"image-keyboard-response","392","357373","0.0-4.0-0.124","16","High_HMMActual","232.72500000003492","","","","Images/NewTrialBC.png","37"
"image-keyboard-response","393","357774","0.0-4.0-1.124","16","High_HMMActual","null","","","","Images/BlackBeadChoice.png","null"
"image-keyboard-response","394","358476","0.0-4.0-2.124","16","High_HMMActual","null","","","","Images/BlackBeadChoiceWrong.png","null"
"image-keyboard-response","395","358670","0.0-4.0-0.125","16","High_HMMActual","192.66500000003725","","","","Images/NewTrialWC.png","39"
"image-keyboard-response","396","359071","0.0-4.0-1.125","16","High_HMMActual","null","","","","Images/WhiteBeadChoice.png","null"
"image-keyboard-response","397","359773","0.0-4.0-2.125","16","High_HMMActual","null","","","","Images/WhiteBeadChoiceWrong.png","null"
"image-keyboard-response","398","359942","0.0-4.0-0.126","16","High_HMMActual","167.9949999997625","","","","Images/NewTrialBC.png","39"
"image-keyboard-response","399","360343","0.0-4.0-1.126","16","High_HMMActual","null","","","","Images/WhiteBeadChoice.png","null"
"image-keyboard-response","400","361046","0.0-4.0-2.126","16","High_HMMActual","null","","","","Images/WhiteBeadChoiceCorrect.png","null"
"image-keyboard-response","401","361165","0.0-4.0-0.127","16","High_HMMActual","119.02000000013504","","","","Images/NewTrialWC.png","37"
"image-keyboard-response","402","361566","0.0-4.0-1.127","16","High_HMMActual","null","","","","Images/BlackBeadChoice.png","null"
"image-keyboard-response","403","362268","0.0-4.0-2.127","16","High_HMMActual","null","","","","Images/BlackBeadChoiceCorrect.png","null"
"image-keyboard-response","404","362445","0.0-4.0-0.128","16","High_HMMActual","176.54999999987194","","","","Images/NewTrialBC.png","39"
"image-keyboard-response","405","362847","0.0-4.0-1.128","16","High_HMMActual","null","","","","Images/WhiteBeadChoice.png","null"
"image-keyboard-response","406","363548","0.0-4.0-2.128","16","High_HMMActual","null","","","","Images/WhiteBeadChoiceCorrect.png","null"
"image-keyboard-response","407","363613","0.0-4.0-0.129","16","High_HMMActual","64.23500000004424","","","","Images/NewTrialWC.png","37"
"image-keyboard-response","408","364015","0.0-4.0-1.129","16","High_HMMActual","null","","","","Images/BlackBeadChoice.png","null"
"image-keyboard-response","409","364717","0.0-4.0-2.129","16","High_HMMActual","637.3850000002421","","","","Images/BlackBeadChoiceCorrect.png","39"
"image-keyboard-response","410","365054","0.0-4.0-0.130","16","High_HMMActual","335.9749999999767","","","","Images/NewTrialBC.png","39"
"image-keyboard-response","411","365455","0.0-4.0-1.130","16","High_HMMActual","null","","","","Images/WhiteBeadChoice.png","null"
"image-keyboard-response","412","366156","0.0-4.0-2.130","16","High_HMMActual","null","","","","Images/WhiteBeadChoiceCorrect.png","null"
"image-keyboard-response","413","366638","0.0-4.0-0.131","16","High_HMMActual","480.1350000000093","","","","Images/NewTrialWC.png","37"
"image-keyboard-response","414","367040","0.0-4.0-1.131","16","High_HMMActual","null","","","","Images/BlackBeadChoice.png","null"
"image-keyboard-response","415","367743","0.0-4.0-2.131","16","High_HMMActual","null","","","","Images/BlackBeadChoiceCorrect.png","null"
"image-keyboard-response","416","367990","0.0-4.0-0.132","16","High_HMMActual","246.23499999986961","","","","Images/NewTrialBC.png","39"
"image-keyboard-response","417","368391","0.0-4.0-1.132","16","High_HMMActual","null","","","","Images/WhiteBeadChoice.png","null"
"image-keyboard-response","418","369093","0.0-4.0-2.132","16","High_HMMActual","null","","","","Images/WhiteBeadChoiceWrong.png","null"
"image-keyboard-response","419","369382","0.0-4.0-0.133","16","High_HMMActual","288.2500000000582","","","","Images/NewTrialBC.png","37"
"image-keyboard-response","420","369784","0.0-4.0-1.133","16","High_HMMActual","null","","","","Images/BlackBeadChoice.png","null"
"image-keyboard-response","421","370485","0.0-4.0-2.133","16","High_HMMActual","null","","","","Images/BlackBeadChoiceWrong.png","null"
"image-keyboard-response","422","370798","0.0-4.0-0.134","16","High_HMMActual","311.3599999999278","","","","Images/NewTrialWC.png","39"
"image-keyboard-response","423","371199","0.0-4.0-1.134","16","High_HMMActual","null","","","","Images/WhiteBeadChoice.png","null"
"image-keyboard-response","424","371900","0.0-4.0-2.134","16","High_HMMActual","null","","","","Images/WhiteBeadChoiceCorrect.png","null"
"image-keyboard-response","425","372150","0.0-4.0-0.135","16","High_HMMActual","248.36999999999534","","","","Images/NewTrialWC.png","37"
"image-keyboard-response","426","372551","0.0-4.0-1.135","16","High_HMMActual","null","","","","Images/BlackBeadChoice.png","null"
"image-keyboard-response","427","373253","0.0-4.0-2.135","16","High_HMMActual","null","","","","Images/BlackBeadChoiceCorrect.png","null"
"image-keyboard-response","428","373462","0.0-4.0-0.136","16","High_HMMActual","207.22000000003027","","","","Images/NewTrialBC.png","39"
"image-keyboard-response","429","373863","0.0-4.0-1.136","16","High_HMMActual","null","","","","Images/WhiteBeadChoice.png","null"
"image-keyboard-response","430","374564","0.0-4.0-2.136","16","High_HMMActual","null","","","","Images/WhiteBeadChoiceCorrect.png","null"
"image-keyboard-response","431","374765","0.0-4.0-0.137","16","High_HMMActual","200.53000000008615","","","","Images/NewTrialWC.png","37"
"image-keyboard-response","432","375166","0.0-4.0-1.137","16","High_HMMActual","null","","","","Images/BlackBeadChoice.png","null"
"image-keyboard-response","433","375868","0.0-4.0-2.137","16","High_HMMActual","null","","","","Images/BlackBeadChoiceCorrect.png","null"
"image-keyboard-response","434","376054","0.0-4.0-0.138","16","High_HMMActual","184.82999999989988","","","","Images/NewTrialBC.png","39"
"image-keyboard-response","435","376455","0.0-4.0-1.138","16","High_HMMActual","null","","","","Images/WhiteBeadChoice.png","null"
"image-keyboard-response","436","377156","0.0-4.0-2.138","16","High_HMMActual","null","","","","Images/WhiteBeadChoiceCorrect.png","null"
"image-keyboard-response","437","377414","0.0-4.0-0.139","16","High_HMMActual","256.3999999999651","","","","Images/NewTrialWC.png","37"
"image-keyboard-response","438","377815","0.0-4.0-1.139","16","High_HMMActual","null","","","","Images/BlackBeadChoice.png","null"
"image-keyboard-response","439","378517","0.0-4.0-2.139","16","High_HMMActual","null","","","","Images/BlackBeadChoiceWrong.png","null"
"image-keyboard-response","440","378686","0.0-4.0-0.140","16","High_HMMActual","167.90999999991618","","","","Images/NewTrialWC.png","39"
"image-keyboard-response","441","379087","0.0-4.0-1.140","16","High_HMMActual","null","","","","Images/WhiteBeadChoice.png","null"
"image-keyboard-response","442","379789","0.0-4.0-2.140","16","High_HMMActual","null","","","","Images/WhiteBeadChoiceCorrect.png","null"
"image-keyboard-response","443","379958","0.0-4.0-0.141","16","High_HMMActual","168.10000000009313","","","","Images/NewTrialWC.png","37"
"image-keyboard-response","444","380359","0.0-4.0-1.141","16","High_HMMActual","null","","","","Images/BlackBeadChoice.png","null"
"image-keyboard-response","445","381061","0.0-4.0-2.141","16","High_HMMActual","null","","","","Images/BlackBeadChoiceWrong.png","null"
"image-keyboard-response","446","381174","0.0-4.0-0.142","16","High_HMMActual","111.86999999993714","","","","Images/NewTrialWC.png","39"
"image-keyboard-response","447","381576","0.0-4.0-1.142","16","High_HMMActual","null","","","","Images/WhiteBeadChoice.png","null"
"image-keyboard-response","448","382277","0.0-4.0-2.142","16","High_HMMActual","null","","","","Images/WhiteBeadChoiceWrong.png","null"
"image-keyboard-response","449","382494","0.0-4.0-0.143","16","High_HMMActual","215.54999999993015","","","","Images/NewTrialBC.png","37"
"image-keyboard-response","450","382895","0.0-4.0-1.143","16","High_HMMActual","null","","","","Images/BlackBeadChoice.png","null"
"image-keyboard-response","451","383595","0.0-4.0-2.143","16","High_HMMActual","null","","","","Images/BlackBeadChoiceWrong.png","null"
"image-keyboard-response","452","383718","0.0-4.0-0.144","16","High_HMMActual","121.25000000011642","","","","Images/NewTrialWC.png","39"
"image-keyboard-response","453","384120","0.0-4.0-1.144","16","High_HMMActual","null","","","","Images/WhiteBeadChoice.png","null"
"image-keyboard-response","454","384822","0.0-4.0-2.144","16","High_HMMActual","null","","","","Images/WhiteBeadChoiceCorrect.png","null"
"image-keyboard-response","455","384926","0.0-4.0-0.145","16","High_HMMActual","103.11999999999534","","","","Images/NewTrialWC.png","37"
"image-keyboard-response","456","385326","0.0-4.0-1.145","16","High_HMMActual","null","","","","Images/BlackBeadChoice.png","null"
"image-keyboard-response","457","386028","0.0-4.0-2.145","16","High_HMMActual","null","","","","Images/BlackBeadChoiceWrong.png","null"
"image-keyboard-response","458","386095","0.0-4.0-0.146","16","High_HMMActual","65.54999999998836","","","","Images/NewTrialWC.png","39"
"image-keyboard-response","459","386496","0.0-4.0-1.146","16","High_HMMActual","null","","","","Images/WhiteBeadChoice.png","null"
"image-keyboard-response","460","387197","0.0-4.0-2.146","16","High_HMMActual","null","","","","Images/WhiteBeadChoiceWrong.png","null"
"image-keyboard-response","461","387486","0.0-4.0-0.147","16","High_HMMActual","287.2500000000582","","","","Images/NewTrialBC.png","37"
"image-keyboard-response","462","387887","0.0-4.0-1.147","16","High_HMMActual","null","","","","Images/BlackBeadChoice.png","null"
"image-keyboard-response","463","388588","0.0-4.0-2.147","16","High_HMMActual","null","","","","Images/BlackBeadChoiceWrong.png","null"
"image-keyboard-response","464","388725","0.0-4.0-0.148","16","High_HMMActual","136.25499999988824","","","","Images/NewTrialWC.png","39"
"image-keyboard-response","465","389127","0.0-4.0-1.148","16","High_HMMActual","null","","","","Images/WhiteBeadChoice.png","null"
"image-keyboard-response","466","389829","0.0-4.0-2.148","16","High_HMMActual","null","","","","Images/WhiteBeadChoiceWrong.png","null"
"image-keyboard-response","467","390078","0.0-4.0-0.149","16","High_HMMActual","248.14000000013039","","","","Images/NewTrialBC.png","39"
"image-keyboard-response","468","390479","0.0-4.0-1.149","16","High_HMMActual","null","","","","Images/WhiteBeadChoice.png","null"
"image-keyboard-response","469","391180","0.0-4.0-2.149","16","High_HMMActual","null","","","","Images/WhiteBeadChoiceCorrect.png","null"
"image-keyboard-response","470","391438","0.0-4.0-0.150","16","High_HMMActual","257.4099999999744","","","","Images/NewTrialWC.png","37"
"image-keyboard-response","471","391839","0.0-4.0-1.150","16","High_HMMActual","null","","","","Images/BlackBeadChoice.png","null"
"image-keyboard-response","472","392541","0.0-4.0-2.150","16","High_HMMActual","null","","","","Images/BlackBeadChoiceCorrect.png","null"
"image-keyboard-response","473","392613","0.0-4.0-0.151","16","High_HMMActual","71.46999999985565","","","","Images/NewTrialBC.png","39"
"image-keyboard-response","474","393014","0.0-4.0-1.151","16","High_HMMActual","null","","","","Images/WhiteBeadChoice.png","null"
"image-keyboard-response","475","393717","0.0-4.0-2.151","16","High_HMMActual","null","","","","Images/WhiteBeadChoiceCorrect.png","null"
"image-keyboard-response","476","393878","0.0-4.0-0.152","16","High_HMMActual","159.83499999996275","","","","Images/NewTrialWC.png","37"
"image-keyboard-response","477","394278","0.0-4.0-1.152","16","High_HMMActual","null","","","","Images/BlackBeadChoice.png","null"
"image-keyboard-response","478","394980","0.0-4.0-2.152","16","High_HMMActual","null","","","","Images/BlackBeadChoiceCorrect.png","null"
"image-keyboard-response","479","395054","0.0-4.0-0.153","16","High_HMMActual","72.72499999997672","","","","Images/NewTrialBC.png","39"
"image-keyboard-response","480","395455","0.0-4.0-1.153","16","High_HMMActual","null","","","","Images/WhiteBeadChoice.png","null"
"image-keyboard-response","481","396156","0.0-4.0-2.153","16","High_HMMActual","null","","","","Images/WhiteBeadChoiceWrong.png","null"
"image-keyboard-response","482","396293","0.0-4.0-0.154","16","High_HMMActual","136.41500000015367","","","","Images/NewTrialBC.png","37"
"image-keyboard-response","483","396695","0.0-4.0-1.154","16","High_HMMActual","null","","","","Images/BlackBeadChoice.png","null"
"image-keyboard-response","484","397396","0.0-4.0-2.154","16","High_HMMActual","null","","","","Images/BlackBeadChoiceCorrect.png","null"
"image-keyboard-response","485","397405","0.0-4.0-0.155","16","High_HMMActual","8.240000000107102","","","","Images/NewTrialBC.png","39"
"image-keyboard-response","486","397807","0.0-4.0-1.155","16","High_HMMActual","null","","","","Images/WhiteBeadChoice.png","null"
"image-keyboard-response","487","398509","0.0-4.0-2.155","16","High_HMMActual","653.6049999999814","","","","Images/WhiteBeadChoiceCorrect.png","37"
"image-keyboard-response","488","398974","0.0-4.0-0.156","16","High_HMMActual","463.9749999998603","","","","Images/NewTrialWC.png","37"
"image-keyboard-response","489","399374","0.0-4.0-1.156","16","High_HMMActual","null","","","","Images/BlackBeadChoice.png","null"
"image-keyboard-response","490","400076","0.0-4.0-2.156","16","High_HMMActual","334.2150000000838","","","","Images/BlackBeadChoiceCorrect.png","39"
"image-keyboard-response","491","400173","0.0-4.0-0.157","16","High_HMMActual","96.51499999995576","","","","Images/NewTrialBC.png","39"
"image-keyboard-response","492","400575","0.0-4.0-1.157","16","High_HMMActual","159.45000000006985","","","","Images/WhiteBeadChoice.png","39"
"image-keyboard-response","493","401277","0.0-4.0-2.157","16","High_HMMActual","101.76000000000931","","","","Images/WhiteBeadChoiceCorrect.png","37"
"image-keyboard-response","494","401390","0.0-4.0-0.158","16","High_HMMActual","111.73499999992782","","","","Images/NewTrialWC.png","37"
"image-keyboard-response","495","401791","0.0-4.0-1.158","16","High_HMMActual","95.4350000001723","","","","Images/BlackBeadChoice.png","37"
"image-keyboard-response","496","402492","0.0-4.0-2.158","16","High_HMMActual","77.54500000010012","","","","Images/BlackBeadChoiceWrong.png","39"
"image-keyboard-response","497","402493","0.0-4.0-0.159","16","High_HMMActual","0.16499999992083758","","","","Images/NewTrialWC.png","39"
"image-keyboard-response","498","402895","0.0-4.0-1.159","16","High_HMMActual","143.54999999998836","","","","Images/WhiteBeadChoice.png","39"
"image-keyboard-response","499","403596","0.0-4.0-2.159","16","High_HMMActual","21.915000000037253","","","","Images/WhiteBeadChoiceCorrect.png","37"
"image-keyboard-response","500","403613","0.0-4.0-0.160","16","High_HMMActual","16.40999999991618","","","","Images/NewTrialWC.png","37"
"image-keyboard-response","501","404015","0.0-4.0-1.160","16","High_HMMActual","159.5099999999511","","","","Images/BlackBeadChoice.png","37"
"image-keyboard-response","502","404716","0.0-4.0-2.160","16","High_HMMActual","405.89000000001397","","","","Images/BlackBeadChoiceWrong.png","39"
"image-keyboard-response","503","404741","0.0-4.0-0.161","16","High_HMMActual","24.419999999983702","","","","Images/NewTrialWC.png","39"
"image-keyboard-response","504","405143","0.0-4.0-1.161","16","High_HMMActual","143.48500000004424","","","","Images/WhiteBeadChoice.png","39"
"image-keyboard-response","505","405845","0.0-4.0-2.161","16","High_HMMActual","461.6699999999255","","","","Images/WhiteBeadChoiceCorrect.png","37"
"image-keyboard-response","506","405942","0.0-4.0-0.162","16","High_HMMActual","95.19000000000233","","","","Images/NewTrialWC.png","37"
"image-keyboard-response","507","406344","0.0-4.0-1.162","16","High_HMMActual","151.16499999997905","","","","Images/BlackBeadChoice.png","37"
"image-keyboard-response","508","407047","0.0-4.0-2.162","16","High_HMMActual","668.5850000001374","","","","Images/BlackBeadChoiceCorrect.png","39"
"image-keyboard-response","509","407142","0.0-4.0-0.163","16","High_HMMActual","93.79000000015367","","","","Images/NewTrialBC.png","39"
"image-keyboard-response","510","407543","0.0-4.0-1.163","16","High_HMMActual","127.39499999996042","","","","Images/WhiteBeadChoice.png","39"
"image-keyboard-response","511","408245","0.0-4.0-2.163","16","High_HMMActual","557.3199999999488","","","","Images/WhiteBeadChoiceCorrect.png","37"
"image-keyboard-response","512","408261","0.0-4.0-0.164","16","High_HMMActual","15.290000000037253","","","","Images/NewTrialWC.png","37"
"image-keyboard-response","513","408662","0.0-4.0-1.164","16","High_HMMActual","159.625","","","","Images/BlackBeadChoice.png","37"
"image-keyboard-response","514","409363","0.0-4.0-2.164","16","High_HMMActual","454.4400000000023","","","","Images/BlackBeadChoiceCorrect.png","39"
"image-keyboard-response","515","409446","0.0-4.0-0.165","16","High_HMMActual","81.33500000007916","","","","Images/NewTrialBC.png","39"
"image-keyboard-response","516","409846","0.0-4.0-1.165","16","High_HMMActual","135.19999999995343","","","","Images/WhiteBeadChoice.png","39"
"image-keyboard-response","517","410547","0.0-4.0-2.165","16","High_HMMActual","422.4999999999418","","","","Images/WhiteBeadChoiceCorrect.png","37"
"image-keyboard-response","518","410598","0.0-4.0-0.166","16","High_HMMActual","49.26000000000931","","","","Images/NewTrialWC.png","37"
"image-keyboard-response","519","410999","0.0-4.0-1.166","16","High_HMMActual","151.28000000008615","","","","Images/BlackBeadChoice.png","37"
"image-keyboard-response","520","411701","0.0-4.0-2.166","16","High_HMMActual","301.44999999995343","","","","Images/BlackBeadChoiceCorrect.png","39"
"image-keyboard-response","521","411877","0.0-4.0-0.167","16","High_HMMActual","175.66499999997905","","","","Images/NewTrialBC.png","39"
"image-keyboard-response","522","412279","0.0-4.0-1.167","16","High_HMMActual","95.40500000002794","","","","Images/WhiteBeadChoice.png","39"
"image-keyboard-response","523","412980","0.0-4.0-2.167","16","High_HMMActual","333.87999999988824","","","","Images/WhiteBeadChoiceCorrect.png","37"
"image-keyboard-response","524","413126","0.0-4.0-0.168","16","High_HMMActual","144.2750000000815","","","","Images/NewTrialWC.png","37"
"image-keyboard-response","525","413526","0.0-4.0-1.168","16","High_HMMActual","183.26500000007218","","","","Images/BlackBeadChoice.png","37"
"image-keyboard-response","526","414228","0.0-4.0-2.168","16","High_HMMActual","134.29999999998836","","","","Images/BlackBeadChoiceWrong.png","39"
"image-keyboard-response","527","414317","0.0-4.0-0.169","16","High_HMMActual","88.95000000006985","","","","Images/NewTrialWC.png","39"
"image-keyboard-response","528","414719","0.0-4.0-1.169","16","High_HMMActual","151.36499999993248","","","","Images/WhiteBeadChoice.png","39"
"image-keyboard-response","529","415421","0.0-4.0-2.169","16","High_HMMActual","21.26999999996042","","","","Images/WhiteBeadChoiceCorrect.png","37"
"image-keyboard-response","530","415494","0.0-4.0-0.170","16","High_HMMActual","71.65499999991152","","","","Images/NewTrialWC.png","37"
"image-keyboard-response","531","415896","0.0-4.0-1.170","16","High_HMMActual","182.92499999981374","","","","Images/BlackBeadChoice.png","37"
"image-keyboard-response","532","416597","0.0-4.0-2.170","16","High_HMMActual","84.74499999993714","","","","Images/BlackBeadChoiceWrong.png","39"
"image-keyboard-response","533","416606","0.0-4.0-0.171","16","High_HMMActual","8.055000000051223","","","","Images/NewTrialWC.png","39"
"image-keyboard-response","534","417008","0.0-4.0-1.171","16","High_HMMActual","95.22999999992317","","","","Images/WhiteBeadChoice.png","39"
"image-keyboard-response","535","417709","0.0-4.0-2.171","16","High_HMMActual","348.63999999989755","","","","Images/WhiteBeadChoiceCorrect.png","37"
"image-keyboard-response","536","417717","0.0-4.0-0.172","16","High_HMMActual","6.905000000202563","","","","Images/NewTrialWC.png","37"
"image-keyboard-response","537","418119","0.0-4.0-1.172","16","High_HMMActual","175.6500000001397","","","","Images/BlackBeadChoice.png","37"
"image-keyboard-response","538","418821","0.0-4.0-2.172","16","High_HMMActual","485.5600000001141","","","","Images/BlackBeadChoiceCorrect.png","39"
"image-keyboard-response","539","418966","0.0-4.0-0.173","16","High_HMMActual","143.7499999999418","","","","Images/NewTrialBC.png","39"
"image-keyboard-response","540","419367","0.0-4.0-1.173","16","High_HMMActual","191.29000000021188","","","","Images/WhiteBeadChoice.png","39"
"image-keyboard-response","541","420069","0.0-4.0-2.173","16","High_HMMActual","117.72500000009313","","","","Images/WhiteBeadChoiceCorrect.png","37"
"image-keyboard-response","542","420230","0.0-4.0-0.174","16","High_HMMActual","160.14999999996508","","","","Images/NewTrialWC.png","37"
"image-keyboard-response","543","420631","0.0-4.0-1.174","16","High_HMMActual","175.1349999999511","","","","Images/BlackBeadChoice.png","37"
"image-keyboard-response","544","421332","0.0-4.0-2.174","16","High_HMMActual","229.6899999998859","","","","Images/BlackBeadChoiceCorrect.png","39"
"image-keyboard-response","545","421365","0.0-4.0-0.175","16","High_HMMActual","32.2050000000163","","","","Images/NewTrialBC.png","39"
"image-keyboard-response","546","421767","0.0-4.0-1.175","16","High_HMMActual","159.4099999999744","","","","Images/WhiteBeadChoice.png","39"
"image-keyboard-response","547","422468","0.0-4.0-2.175","16","High_HMMActual","286.2249999998021","","","","Images/WhiteBeadChoiceCorrect.png","37"
"image-keyboard-response","548","422589","0.0-4.0-0.176","16","High_HMMActual","120.3849999999511","","","","Images/NewTrialWC.png","37"
"image-keyboard-response","549","422991","0.0-4.0-1.176","16","High_HMMActual","175.34499999991385","","","","Images/BlackBeadChoice.png","37"
"image-keyboard-response","550","423692","0.0-4.0-2.176","16","High_HMMActual","229.7949999999837","","","","Images/BlackBeadChoiceWrong.png","39"
"image-keyboard-response","551","423733","0.0-4.0-0.177","16","High_HMMActual","40.070000000006985","","","","Images/NewTrialWC.png","39"
"image-keyboard-response","552","424134","0.0-4.0-1.177","16","High_HMMActual","159.4399999998859","","","","Images/WhiteBeadChoice.png","39"
"image-keyboard-response","553","424836","0.0-4.0-2.177","16","High_HMMActual","270.75500000000466","","","","Images/WhiteBeadChoiceCorrect.png","37"
"image-keyboard-response","554","424941","0.0-4.0-0.178","16","High_HMMActual","104.05499999999302","","","","Images/NewTrialWC.png","37"
"image-keyboard-response","555","425343","0.0-4.0-1.178","16","High_HMMActual","167.26500000007218","","","","Images/BlackBeadChoice.png","37"
"image-keyboard-response","556","426045","0.0-4.0-2.178","16","High_HMMActual","205.81500000006054","","","","Images/BlackBeadChoiceWrong.png","39"
"image-keyboard-response","557","426069","0.0-4.0-0.179","16","High_HMMActual","23.510000000009313","","","","Images/NewTrialWC.png","39"
"image-keyboard-response","558","426471","0.0-4.0-1.179","16","High_HMMActual","null","","","","Images/WhiteBeadChoice.png","null"
"image-keyboard-response","559","427172","0.0-4.0-2.179","16","High_HMMActual","13.465000000025611","","","","Images/WhiteBeadChoiceWrong.png","39"
"image-keyboard-response","560","427333","0.0-4.0-0.180","16","High_HMMActual","160.40500000008615","","","","Images/NewTrialBC.png","37"
"image-keyboard-response","561","427735","0.0-4.0-1.180","16","High_HMMActual","183.40500000002794","","","","Images/BlackBeadChoice.png","37"
"image-keyboard-response","562","428438","0.0-4.0-2.180","16","High_HMMActual","357.00499999983003","","","","Images/BlackBeadChoiceWrong.png","39"
"image-keyboard-response","563","428461","0.0-4.0-0.181","16","High_HMMActual","22.56999999989057","","","","Images/NewTrialWC.png","39"
"image-keyboard-response","564","428863","0.0-4.0-1.181","16","High_HMMActual","207.3299999999581","","","","Images/WhiteBeadChoice.png","39"
"image-keyboard-response","565","429564","0.0-4.0-2.181","16","High_HMMActual","453.85000000009313","","","","Images/WhiteBeadChoiceCorrect.png","37"
"image-keyboard-response","566","429677","0.0-4.0-0.182","16","High_HMMActual","112.1150000001071","","","","Images/NewTrialWC.png","37"
"image-keyboard-response","567","430079","0.0-4.0-1.182","16","High_HMMActual","191.3100000001723","","","","Images/BlackBeadChoice.png","37"
"image-keyboard-response","568","430780","0.0-4.0-2.182","16","High_HMMActual","525.8750000000582","","","","Images/BlackBeadChoiceCorrect.png","39"
"image-keyboard-response","569","430805","0.0-4.0-0.183","16","High_HMMActual","24.040000000037253","","","","Images/NewTrialBC.png","39"
"image-keyboard-response","570","431207","0.0-4.0-1.183","16","High_HMMActual","151.3049999998766","","","","Images/WhiteBeadChoice.png","39"
"image-keyboard-response","571","431909","0.0-4.0-2.183","16","High_HMMActual","389.6900000000023","","","","Images/WhiteBeadChoiceCorrect.png","37"
"image-keyboard-response","572","431973","0.0-4.0-0.184","16","High_HMMActual","63.464999999967404","","","","Images/NewTrialWC.png","37"
"image-keyboard-response","573","432374","0.0-4.0-1.184","16","High_HMMActual","183.605000000156","","","","Images/BlackBeadChoice.png","37"
"image-keyboard-response","574","433076","0.0-4.0-2.184","16","High_HMMActual","301.92499999998836","","","","Images/BlackBeadChoiceCorrect.png","39"
"image-keyboard-response","575","433117","0.0-4.0-0.185","16","High_HMMActual","39.85499999998137","","","","Images/NewTrialBC.png","39"
"image-keyboard-response","576","433519","0.0-4.0-1.185","16","High_HMMActual","null","","","","Images/WhiteBeadChoice.png","null"
"image-keyboard-response","577","434221","0.0-4.0-2.185","16","High_HMMActual","501.61499999987427","","","","Images/WhiteBeadChoiceWrong.png","37"
"image-keyboard-response","578","434437","0.0-4.0-0.186","16","High_HMMActual","215.11499999993248","","","","Images/NewTrialBC.png","37"
"image-keyboard-response","579","434839","0.0-4.0-1.186","16","High_HMMActual","167.3149999998859","","","","Images/BlackBeadChoice.png","37"
"image-keyboard-response","580","435542","0.0-4.0-2.186","16","High_HMMActual","420.8450000000885","","","","Images/BlackBeadChoiceWrong.png","39"
"image-keyboard-response","581","435629","0.0-4.0-0.187","16","High_HMMActual","86.61000000010245","","","","Images/NewTrialWC.png","39"
"image-keyboard-response","582","436031","0.0-4.0-1.187","16","High_HMMActual","159.38000000006286","","","","Images/WhiteBeadChoice.png","39"
"image-keyboard-response","583","436733","0.0-4.0-2.187","16","High_HMMActual","null","","","","Images/WhiteBeadChoiceWrong.png","null"
"image-keyboard-response","584","437125","0.0-4.0-0.188","16","High_HMMActual","391.4800000000396","","","","Images/NewTrialBC.png","39"
"image-keyboard-response","585","437527","0.0-4.0-1.188","16","High_HMMActual","null","","","","Images/WhiteBeadChoice.png","null"
"image-keyboard-response","586","438229","0.0-4.0-2.188","16","High_HMMActual","null","","","","Images/WhiteBeadChoiceWrong.png","null"
"image-keyboard-response","587","438245","0.0-4.0-0.189","16","High_HMMActual","15.245000000053551","","","","Images/NewTrialBC.png","37"
"image-keyboard-response","588","438647","0.0-4.0-1.189","16","High_HMMActual","167.43999999994412","","","","Images/BlackBeadChoice.png","37"
"image-keyboard-response","589","439349","0.0-4.0-2.189","16","High_HMMActual","669.3750000001746","","","","Images/BlackBeadChoiceCorrect.png","39"
"image-keyboard-response","590","439501","0.0-4.0-0.190","16","High_HMMActual","151.15999999991618","","","","Images/NewTrialBC.png","39"
"image-keyboard-response","591","439903","0.0-4.0-1.190","16","High_HMMActual","null","","","","Images/WhiteBeadChoice.png","null"
"image-keyboard-response","592","440604","0.0-4.0-2.190","16","High_HMMActual","null","","","","Images/WhiteBeadChoiceWrong.png","null"
"image-keyboard-response","593","440637","0.0-4.0-0.191","16","High_HMMActual","31.954999999899883","","","","Images/NewTrialBC.png","37"
"image-keyboard-response","594","441039","0.0-4.0-1.191","16","High_HMMActual","199.42500000004657","","","","Images/BlackBeadChoice.png","37"
"image-keyboard-response","595","441741","0.0-4.0-2.191","16","High_HMMActual","null","","","","Images/BlackBeadChoiceWrong.png","null"
"image-keyboard-response","596","441957","0.0-4.0-0.192","16","High_HMMActual","215.27499999979045","","","","Images/NewTrialWC.png","39"
"image-keyboard-response","597","442359","0.0-4.0-1.192","16","High_HMMActual","null","","","","Images/WhiteBeadChoice.png","null"
"image-keyboard-response","598","443061","0.0-4.0-2.192","16","High_HMMActual","null","","","","Images/WhiteBeadChoiceWrong.png","null"
"image-keyboard-response","599","443541","0.0-4.0-0.193","16","High_HMMActual","480.0199999999604","","","","Images/NewTrialBC.png","37"
"image-keyboard-response","600","443943","0.0-4.0-1.193","16","High_HMMActual","null","","","","Images/BlackBeadChoice.png","null"
"image-keyboard-response","601","444645","0.0-4.0-2.193","16","High_HMMActual","null","","","","Images/BlackBeadChoiceWrong.png","null"
"image-keyboard-response","602","444933","0.0-4.0-0.194","16","High_HMMActual","286.8849999999511","","","","Images/NewTrialWC.png","39"
"image-keyboard-response","603","445335","0.0-4.0-1.194","16","High_HMMActual","null","","","","Images/WhiteBeadChoice.png","null"
"image-keyboard-response","604","446037","0.0-4.0-2.194","16","High_HMMActual","null","","","","Images/WhiteBeadChoiceWrong.png","null"
"image-keyboard-response","605","446173","0.0-4.0-0.195","16","High_HMMActual","135.50000000011642","","","","Images/NewTrialBC.png","37"
"image-keyboard-response","606","446575","0.0-4.0-1.195","16","High_HMMActual","null","","","","Images/BlackBeadChoice.png","null"
"image-keyboard-response","607","447278","0.0-4.0-2.195","16","High_HMMActual","null","","","","Images/BlackBeadChoiceCorrect.png","null"
"image-keyboard-response","608","447373","0.0-4.0-0.196","16","High_HMMActual","94.92500000010477","","","","Images/NewTrialBC.png","39"
"image-keyboard-response","609","447775","0.0-4.0-1.196","16","High_HMMActual","null","","","","Images/WhiteBeadChoice.png","null"
"image-keyboard-response","610","448477","0.0-4.0-2.196","16","High_HMMActual","null","","","","Images/WhiteBeadChoiceWrong.png","null"
"image-keyboard-response","611","448517","0.0-4.0-0.197","16","High_HMMActual","38.925000000046566","","","","Images/NewTrialBC.png","37"
"image-keyboard-response","612","448918","0.0-4.0-1.197","16","High_HMMActual","null","","","","Images/BlackBeadChoice.png","null"
"image-keyboard-response","613","449619","0.0-4.0-2.197","16","High_HMMActual","null","","","","Images/BlackBeadChoiceWrong.png","null"
"image-keyboard-response","614","449773","0.0-4.0-0.198","16","High_HMMActual","152.8399999999674","","","","Images/NewTrialWC.png","39"
"image-keyboard-response","615","450175","0.0-4.0-1.198","16","High_HMMActual","null","","","","Images/WhiteBeadChoice.png","null"
"image-keyboard-response","616","450878","0.0-4.0-2.198","16","High_HMMActual","null","","","","Images/WhiteBeadChoiceWrong.png","null"
"image-keyboard-response","617","451069","0.0-4.0-0.199","16","High_HMMActual","190.8499999999185","","","","Images/NewTrialBC.png","39"
"image-keyboard-response","618","451470","0.0-4.0-1.199","16","High_HMMActual","null","","","","Images/WhiteBeadChoice.png","null"
"image-keyboard-response","619","452172","0.0-4.0-2.199","16","High_HMMActual","null","","","","Images/WhiteBeadChoiceCorrect.png","null"
"image-keyboard-response","620","452269","0.0-4.0-0.200","16","High_HMMActual","95.97000000008848","","","","Images/NewTrialWC.png","37"
"image-keyboard-response","621","452671","0.0-4.0-1.200","16","High_HMMActual","null","","","","Images/BlackBeadChoice.png","null"
"image-keyboard-response","622","453373","0.0-4.0-2.200","16","High_HMMActual","null","","","","Images/BlackBeadChoiceWrong.png","null"
"image-keyboard-response","623","453517","0.0-4.0-0.201","16","High_HMMActual","143.1500000000815","","","","Images/NewTrialWC.png","39"
"image-keyboard-response","624","453919","0.0-4.0-1.201","16","High_HMMActual","null","","","","Images/WhiteBeadChoice.png","null"
"image-keyboard-response","625","454621","0.0-4.0-2.201","16","High_HMMActual","null","","","","Images/WhiteBeadChoiceCorrect.png","null"
"image-keyboard-response","626","454869","0.0-4.0-0.202","16","High_HMMActual","247.47500000009313","","","","Images/NewTrialWC.png","39"
"image-keyboard-response","627","455270","0.0-4.0-1.202","16","High_HMMActual","null","","","","Images/WhiteBeadChoice.png","null"
"image-keyboard-response","628","455972","0.0-4.0-2.202","16","High_HMMActual","null","","","","Images/WhiteBeadChoiceCorrect.png","null"
"image-keyboard-response","629","456133","0.0-4.0-0.203","16","High_HMMActual","159.76499999989755","","","","Images/NewTrialWC.png","39"
"image-keyboard-response","630","456534","0.0-4.0-1.203","16","High_HMMActual","null","","","","Images/WhiteBeadChoice.png","null"
"image-keyboard-response","631","457235","0.0-4.0-2.203","16","High_HMMActual","null","","","","Images/WhiteBeadChoiceCorrect.png","null"
"image-keyboard-response","632","457461","0.0-4.0-0.204","16","High_HMMActual","225.14999999996508","","","","Images/NewTrialWC.png","37"
"image-keyboard-response","633","457863","0.0-4.0-1.204","16","High_HMMActual","null","","","","Images/BlackBeadChoice.png","null"
"image-keyboard-response","634","458564","0.0-4.0-2.204","16","High_HMMActual","null","","","","Images/BlackBeadChoiceWrong.png","null"
"image-keyboard-response","635","458805","0.0-4.0-0.205","16","High_HMMActual","239.90499999991152","","","","Images/NewTrialWC.png","39"
"image-keyboard-response","636","459207","0.0-4.0-1.205","16","High_HMMActual","null","","","","Images/WhiteBeadChoice.png","null"
"image-keyboard-response","637","459910","0.0-4.0-2.205","16","High_HMMActual","null","","","","Images/WhiteBeadChoiceCorrect.png","null"
"image-keyboard-response","638","460293","0.0-4.0-0.206","16","High_HMMActual","382.6500000000233","","","","Images/NewTrialWC.png","39"
"image-keyboard-response","639","460694","0.0-4.0-1.206","16","High_HMMActual","null","","","","Images/WhiteBeadChoice.png","null"
"image-keyboard-response","640","461397","0.0-4.0-2.206","16","High_HMMActual","565.7099999998463","","","","Images/WhiteBeadChoiceWrong.png","37"
"image-keyboard-response","641","461701","0.0-4.0-0.207","16","High_HMMActual","303.4499999998952","","","","Images/NewTrialBC.png","37"
"image-keyboard-response","642","462102","0.0-4.0-1.207","16","High_HMMActual","null","","","","Images/BlackBeadChoice.png","null"
"image-keyboard-response","643","462804","0.0-4.0-2.207","16","High_HMMActual","null","","","","Images/BlackBeadChoiceCorrect.png","null"
"image-keyboard-response","644","463117","0.0-4.0-0.208","16","High_HMMActual","312.0800000001327","","","","Images/NewTrialBC.png","39"
"image-keyboard-response","645","463518","0.0-4.0-1.208","16","High_HMMActual","null","","","","Images/WhiteBeadChoice.png","null"
"image-keyboard-response","646","464220","0.0-4.0-2.208","16","High_HMMActual","null","","","","Images/WhiteBeadChoiceWrong.png","null"
"image-keyboard-response","647","464701","0.0-4.0-0.209","16","High_HMMActual","480.03999999986263","","","","Images/NewTrialBC.png","37"
"image-keyboard-response","648","465104","0.0-4.0-1.209","16","High_HMMActual","null","","","","Images/BlackBeadChoice.png","null"
"image-keyboard-response","649","465807","0.0-4.0-2.209","16","High_HMMActual","null","","","","Images/BlackBeadChoiceCorrect.png","null"
"image-keyboard-response","650","466181","0.0-4.0-0.210","16","High_HMMActual","373.9250000001048","","","","Images/NewTrialBC.png","39"
"image-keyboard-response","651","466582","0.0-4.0-1.210","16","High_HMMActual","null","","","","Images/WhiteBeadChoice.png","null"
"image-keyboard-response","652","467285","0.0-4.0-2.210","16","High_HMMActual","null","","","","Images/WhiteBeadChoiceWrong.png","null"
"image-keyboard-response","653","467389","0.0-4.0-0.211","16","High_HMMActual","103.24500000005355","","","","Images/NewTrialBC.png","37"
"image-keyboard-response","654","467791","0.0-4.0-1.211","16","High_HMMActual","null","","","","Images/BlackBeadChoice.png","null"
"image-keyboard-response","655","468493","0.0-4.0-2.211","16","High_HMMActual","null","","","","Images/BlackBeadChoiceWrong.png","null"
"image-keyboard-response","656","468837","0.0-4.0-0.212","16","High_HMMActual","342.99499999993714","","","","Images/NewTrialWC.png","39"
"image-keyboard-response","657","469238","0.0-4.0-1.212","16","High_HMMActual","null","","","","Images/WhiteBeadChoice.png","null"
"image-keyboard-response","658","469940","0.0-4.0-2.212","16","High_HMMActual","null","","","","Images/WhiteBeadChoiceWrong.png","null"
"image-keyboard-response","659","470173","0.0-4.0-0.213","16","High_HMMActual","232.14000000007218","","","","Images/NewTrialBC.png","37"
"image-keyboard-response","660","470575","0.0-4.0-1.213","16","High_HMMActual","null","","","","Images/BlackBeadChoice.png","null"
"image-keyboard-response","661","471276","0.0-4.0-2.213","16","High_HMMActual","null","","","","Images/BlackBeadChoiceWrong.png","null"
"image-keyboard-response","662","471389","0.0-4.0-0.214","16","High_HMMActual","112.66499999986263","","","","Images/NewTrialWC.png","37"
"image-keyboard-response","663","471791","0.0-4.0-1.214","16","High_HMMActual","null","","","","Images/BlackBeadChoice.png","null"
"image-keyboard-response","664","472494","0.0-4.0-2.214","16","High_HMMActual","null","","","","Images/BlackBeadChoiceWrong.png","null"
"image-keyboard-response","665","472605","0.0-4.0-0.215","16","High_HMMActual","110.69999999995343","","","","Images/NewTrialWC.png","39"
"image-keyboard-response","666","473006","0.0-4.0-1.215","16","High_HMMActual","null","","","","Images/WhiteBeadChoice.png","null"
"image-keyboard-response","667","473708","0.0-4.0-2.215","16","High_HMMActual","null","","","","Images/WhiteBeadChoiceCorrect.png","null"
"image-keyboard-response","668","473821","0.0-4.0-0.216","16","High_HMMActual","112.52499999996508","","","","Images/NewTrialWC.png","39"
"image-keyboard-response","669","474223","0.0-4.0-1.216","16","High_HMMActual","null","","","","Images/WhiteBeadChoice.png","null"
"image-keyboard-response","670","474925","0.0-4.0-2.216","16","High_HMMActual","null","","","","Images/WhiteBeadChoiceCorrect.png","null"
"image-keyboard-response","671","474933","0.0-4.0-0.217","16","High_HMMActual","7.51500000001397","","","","Images/NewTrialWC.png","37"
"image-keyboard-response","672","475335","0.0-4.0-1.217","16","High_HMMActual","null","","","","Images/BlackBeadChoice.png","null"
"image-keyboard-response","673","476037","0.0-4.0-2.217","16","High_HMMActual","null","","","","Images/BlackBeadChoiceWrong.png","null"
"image-keyboard-response","674","476069","0.0-4.0-0.218","16","High_HMMActual","31.54999999993015","","","","Images/NewTrialWC.png","39"
"image-keyboard-response","675","476472","0.0-4.0-1.218","16","High_HMMActual","null","","","","Images/WhiteBeadChoice.png","null"
"image-keyboard-response","676","477174","0.0-4.0-2.218","16","High_HMMActual","580.8199999999488","","","","Images/WhiteBeadChoiceWrong.png","37"
"image-keyboard-response","677","477453","0.0-4.0-0.219","16","High_HMMActual","278.7749999999651","","","","Images/NewTrialBC.png","37"
"image-keyboard-response","678","477855","0.0-4.0-1.219","16","High_HMMActual","null","","","","Images/BlackBeadChoice.png","null"
"image-keyboard-response","679","478557","0.0-4.0-2.219","16","High_HMMActual","null","","","","Images/BlackBeadChoiceCorrect.png","null"
"image-keyboard-response","680","478685","0.0-4.0-0.220","16","High_HMMActual","127.8100000001723","","","","Images/NewTrialBC.png","37"
"image-keyboard-response","681","479087","0.0-4.0-1.220","16","High_HMMActual","null","","","","Images/BlackBeadChoice.png","null"
"image-keyboard-response","682","479789","0.0-4.0-2.220","16","High_HMMActual","null","","","","Images/BlackBeadChoiceCorrect.png","null"
"image-keyboard-response","683","479981","0.0-4.0-0.221","16","High_HMMActual","191.55500000010943","","","","Images/NewTrialBC.png","39"
"image-keyboard-response","684","480382","0.0-4.0-1.221","16","High_HMMActual","null","","","","Images/WhiteBeadChoice.png","null"
"image-keyboard-response","685","481084","0.0-4.0-2.221","16","High_HMMActual","null","","","","Images/WhiteBeadChoiceCorrect.png","null"
"image-keyboard-response","686","481405","0.0-4.0-0.222","16","High_HMMActual","320.3949999999604","","","","Images/NewTrialWC.png","37"
"image-keyboard-response","687","481807","0.0-4.0-1.222","16","High_HMMActual","null","","","","Images/BlackBeadChoice.png","null"
"image-keyboard-response","688","482509","0.0-4.0-2.222","16","High_HMMActual","null","","","","Images/BlackBeadChoiceCorrect.png","null"
"image-keyboard-response","689","482581","0.0-4.0-0.223","16","High_HMMActual","71.16500000009546","","","","Images/NewTrialBC.png","39"
"image-keyboard-response","690","482983","0.0-4.0-1.223","16","High_HMMActual","null","","","","Images/WhiteBeadChoice.png","null"
"image-keyboard-response","691","483684","0.0-4.0-2.223","16","High_HMMActual","null","","","","Images/WhiteBeadChoiceWrong.png","null"
"image-keyboard-response","692","483709","0.0-4.0-0.224","16","High_HMMActual","23.914999999979045","","","","Images/NewTrialBC.png","39"
"image-keyboard-response","693","484110","0.0-4.0-1.224","16","High_HMMActual","null","","","","Images/WhiteBeadChoice.png","null"
"image-keyboard-response","694","484812","0.0-4.0-2.224","16","High_HMMActual","653.9949999999371","","","","Images/WhiteBeadChoiceWrong.png","39"
"image-keyboard-response","695","485157","0.0-4.0-0.225","16","High_HMMActual","344.2399999999325","","","","Images/NewTrialBC.png","39"
"image-keyboard-response","696","485559","0.0-4.0-1.225","16","High_HMMActual","null","","","","Images/WhiteBeadChoice.png","null"
"image-keyboard-response","697","486260","0.0-4.0-2.225","16","High_HMMActual","693.3649999998161","","","","Images/WhiteBeadChoiceCorrect.png","39"
"image-keyboard-response","698","486606","0.0-4.0-0.226","16","High_HMMActual","344.64000000001397","","","","Images/NewTrialWC.png","39"
"image-keyboard-response","699","487007","0.0-4.0-1.226","16","High_HMMActual","null","","","","Images/WhiteBeadChoice.png","null"
"image-keyboard-response","700","487708","0.0-4.0-2.226","16","High_HMMActual","541.7750000001397","","","","Images/WhiteBeadChoiceWrong.png","37"
"image-keyboard-response","701","487806","0.0-4.0-0.227","16","High_HMMActual","96.40499999996973","","","","Images/NewTrialBC.png","37"
"image-keyboard-response","702","488207","0.0-4.0-1.227","16","High_HMMActual","null","","","","Images/BlackBeadChoice.png","null"
"image-keyboard-response","703","488909","0.0-4.0-2.227","16","High_HMMActual","null","","","","Images/BlackBeadChoiceWrong.png","null"
"image-keyboard-response","704","488957","0.0-4.0-0.228","16","High_HMMActual","47.72000000003027","","","","Images/NewTrialWC.png","37"
"image-keyboard-response","705","489358","0.0-4.0-1.228","16","High_HMMActual","null","","","","Images/BlackBeadChoice.png","null"
