"trial_type","trial_index","time_elapsed","internal_node_id","Script_Picker","Block_Type","rt","url","responses","question_order","stimulus","key_press"
"pavlovia","0","2","0.0-0.0","6","Low_HMMActual","","","","","",""
"external-html","1","41533","0.0-1.0-0.0","6","Low_HMMActual","41479.93000000133","consent.html","","","",""
"survey-multi-choice","2","81432","0.0-1.0-1.0","6","Low_HMMActual","39896.925000008196","","{""Q0"":""Male"",""Q1"":""White""}","[0,1]","",""
"survey-text","3","86503","0.0-1.0-2.0","6","Low_HMMActual","5069.5899999991525","","{""Q0"":""44""}","","",""
"survey-text","4","94411","0.0-1.0-3.0","6","Low_HMMActual","7804.8150000104215","","{""Q0"":""5cb4c1800f6de500130bede9""}","","",""
"html-keyboard-response","5","120150","0.0-2.0-0.0","6","Low_HMMActual","25637.289999984205","","","","<div class=""container"" style=""height:800px;width:800px;display:flex;flex-direction:column;justify-content:center;align-items:center;text-align:center;font-weight:normal;font-family:Arial;font-size:20px""><p>In this task you will see black or white beads being pulled from jars. <br><br>On each trial, a bead will be pulled from one of two jars. Once you see this bead, your goal is to predict the color of NEXT bead that will be pulled. <br> <br>Every time you correctly guess the color of the NEXT bead, you will get a point. <br><br>Press the SPACEBAR to continue.</p><div>","32"
"html-keyboard-response","6","135334","0.0-2.0-1.0","6","Low_HMMActual","15183.474999997998","","","","<div class=""container"" style=""height:800px;width:800px;display:flex;flex-direction:column;justify-content:center;align-items:center;text-align:center;font-weight:normal;font-family:Arial;font-size:20px""><p>Jars are filled with 85% white or black beads and 15% of the opposite color mixed in<br><br>Press the SPACEBAR to continue. </p><div>","32"
"image-keyboard-response","7","143273","0.0-2.0-2.0","6","Low_HMMActual","7938.72000000556","","","","resources/WhiteJar_HMM.png","32"
"image-keyboard-response","8","147224","0.0-2.0-3.0","6","Low_HMMActual","3950.2600000123493","","","","resources/BlackJar_HMM.png","32"
"html-keyboard-response","9","155518","0.0-2.0-4.0","6","Low_HMMActual","8293.634999979986","","","","<div class=""container"" style=""height:800px;width:800px;display:flex;flex-direction:column;justify-content:center;align-items:center;text-align:center;font-weight:normal;font-family:Arial;font-size:20px""><p>There will be two blocks of trials. Each block will contain 500 trials. <br><br>Here are examples of what you will see on each trial.<br><br>Press the SPACEBAR to continue. </p><div>","32"
"image-keyboard-response","10","159490","0.0-2.0-5.0","6","Low_HMMActual","3972.0799999777228","","","","Images/NoChoice.png","32"
"html-keyboard-response","11","190338","0.0-2.0-6.0","6","Low_HMMActual","30847.604999988107","","","","<div class=""container"" style=""height:800px;width:800px;display:flex;flex-direction:column;justify-content:center;align-items:center;text-align:center;font-weight:normal;font-family:Arial;font-size:20px""><p> The jar the beads are pulled from is NOT choosen at random on each trial.<br><br>After each prediction, there will be a chance that the jars will switch, and that the next bead will be pulled from the opposite jar as the previous trial.<br><br>In each block, the chance that a jar will switch will either be LOW (the jars will not switch very often), or HIGH (the jars will switch almost all the time).<br><br>At the start of each block, you will be told the probability that the jars will switch on each trial. This switch probability will stay constant throughout the block.<br><br>Press the SPACEBAR to continue. </p><div>","32"
"image-keyboard-response","12","193809","0.0-2.0-7.0","6","Low_HMMActual","3470.294999977341","","","","Images/TutorialWhiteJarDrawHMMC.png","32"
"image-keyboard-response","13","195460","0.0-2.0-8.0","6","Low_HMMActual","1650.4249999998137","","","","Images/TutorialBlackJarDrawHMMC.png","32"
"image-keyboard-response","14","196877","0.0-2.0-9.0","6","Low_HMMActual","1416.1949999979697","","","","Images/TutorialBlackJarDrawHMMI.png","32"
"html-keyboard-response","15","218519","0.0-2.0-10.0","6","Low_HMMActual","21641.374999977415","","","","<div class=""container"" style=""height:800px;width:800px;display:flex;flex-direction:column;justify-content:center;align-items:center;text-align:center;font-weight:normal;font-family:Arial;font-size:20px""><p> As you observed, a white bead was pulled from a 85% white jar, the jars switched and a black bead was pulled from the 85% black jar, but then low-probability white bead was pulled from the 90% black jar. <br><br>In these mixed-jar blocks, you will first have to figure out which jar the current bead was pulled from, then use the jar switch probability to predict the color of the next bead.<br><br>Press SPACEBAR to conitnue.</p><div>","32"
"html-keyboard-response","16","221761","0.0-2.0-11.0","6","Low_HMMActual","3241.8450000113808","","","","<div class=""container"" style=""height:800px;width:800px;display:flex;flex-direction:column;justify-content:center;align-items:center;text-align:center;font-weight:normal;font-family:Arial;font-size:20px""><p> You will now be given a 2 question quiz to make sure you understand the fundamentals. </p><div>","32"
"image-keyboard-response","17","465493","0.0-2.0-12.0","6","Low_HMMActual","243730.9499999974","","","","Images/TutorialQuestion1.png","39"
"image-keyboard-response","18","592793","0.0-2.0-13.0","6","Low_HMMActual","122299.4249999756","","","","Images/TutorialQuestion2.png","38"
"html-keyboard-response","19","643815","0.0-3.0","6","Low_HMMActual","48049.15500001516","","","","<div class=""container"" style=""height:800px;width:800px;display:flex;flex-direction:column;justify-content:center;align-items:center;text-align:center;font-weight:normal;font-family:Arial;font-size:20px""><p>Loading episode&hellip;</p><div>","32"
"image-keyboard-response","20","705773","0.0-4.0-0.0","6","Low_HMMActual","61957.52499997616","","","","Images/NoChoice.png","37"
"image-keyboard-response","21","706025","0.0-4.0-1.0","6","Low_HMMActual","null","","","","Images/BlackBeadChoice.png","null"
"image-keyboard-response","22","706525","0.0-4.0-2.0","6","Low_HMMActual","null","","","","Images/BlackBeadChoiceCorrect.png","null"
"image-keyboard-response","23","710533","0.0-4.0-0.1","6","Low_HMMActual","4007.2199999995064","","","","Images/NewTrialBC.png","37"
"image-keyboard-response","24","710784","0.0-4.0-1.1","6","Low_HMMActual","null","","","","Images/BlackBeadChoice.png","null"
"image-keyboard-response","25","711286","0.0-4.0-2.1","6","Low_HMMActual","null","","","","Images/BlackBeadChoiceCorrect.png","null"
"image-keyboard-response","26","716075","0.0-4.0-0.2","6","Low_HMMActual","4789.010000007693","","","","Images/NewTrialBC.png","37"
"image-keyboard-response","27","716326","0.0-4.0-1.2","6","Low_HMMActual","null","","","","Images/BlackBeadChoice.png","null"
"image-keyboard-response","28","716827","0.0-4.0-2.2","6","Low_HMMActual","null","","","","Images/BlackBeadChoiceCorrect.png","null"
"image-keyboard-response","29","722215","0.0-4.0-0.3","6","Low_HMMActual","5387.329999997746","","","","Images/NewTrialBC.png","37"
"image-keyboard-response","30","722467","0.0-4.0-1.3","6","Low_HMMActual","null","","","","Images/BlackBeadChoice.png","null"
"image-keyboard-response","31","722969","0.0-4.0-2.3","6","Low_HMMActual","null","","","","Images/BlackBeadChoiceCorrect.png","null"
"image-keyboard-response","32","725005","0.0-4.0-0.4","6","Low_HMMActual","2035.0650000036694","","","","Images/NewTrialBC.png","37"
"image-keyboard-response","33","725256","0.0-4.0-1.4","6","Low_HMMActual","null","","","","Images/BlackBeadChoice.png","null"
"image-keyboard-response","34","725757","0.0-4.0-2.4","6","Low_HMMActual","null","","","","Images/BlackBeadChoiceCorrect.png","null"
"image-keyboard-response","35","727417","0.0-4.0-0.5","6","Low_HMMActual","1659.525000024587","","","","Images/NewTrialBC.png","37"
"image-keyboard-response","36","727668","0.0-4.0-1.5","6","Low_HMMActual","null","","","","Images/BlackBeadChoice.png","null"
"image-keyboard-response","37","728169","0.0-4.0-2.5","6","Low_HMMActual","null","","","","Images/BlackBeadChoiceWrong.png","null"
"image-keyboard-response","38","732992","0.0-4.0-0.6","6","Low_HMMActual","4822.71999999648","","","","Images/NewTrialWC.png","39"
"image-keyboard-response","39","733244","0.0-4.0-1.6","6","Low_HMMActual","null","","","","Images/WhiteBeadChoice.png","null"
"image-keyboard-response","40","733745","0.0-4.0-2.6","6","Low_HMMActual","null","","","","Images/WhiteBeadChoiceCorrect.png","null"
"image-keyboard-response","41","734684","0.0-4.0-0.7","6","Low_HMMActual","938.5450000117999","","","","Images/NewTrialWC.png","39"
"image-keyboard-response","42","734935","0.0-4.0-1.7","6","Low_HMMActual","null","","","","Images/WhiteBeadChoice.png","null"
"image-keyboard-response","43","735436","0.0-4.0-2.7","6","Low_HMMActual","null","","","","Images/WhiteBeadChoiceCorrect.png","null"
"image-keyboard-response","44","737498","0.0-4.0-0.8","6","Low_HMMActual","2061.8050000048243","","","","Images/NewTrialWC.png","39"
"image-keyboard-response","45","737749","0.0-4.0-1.8","6","Low_HMMActual","null","","","","Images/WhiteBeadChoice.png","null"
"image-keyboard-response","46","738251","0.0-4.0-2.8","6","Low_HMMActual","null","","","","Images/WhiteBeadChoiceWrong.png","null"
"image-keyboard-response","47","739977","0.0-4.0-0.9","6","Low_HMMActual","1724.7299999871757","","","","Images/NewTrialBC.png","39"
"image-keyboard-response","48","740228","0.0-4.0-1.9","6","Low_HMMActual","null","","","","Images/WhiteBeadChoice.png","null"
"image-keyboard-response","49","740729","0.0-4.0-2.9","6","Low_HMMActual","null","","","","Images/WhiteBeadChoiceWrong.png","null"
"image-keyboard-response","50","741723","0.0-4.0-0.10","6","Low_HMMActual","993.4850000136066","","","","Images/NewTrialBC.png","39"
"image-keyboard-response","51","741975","0.0-4.0-1.10","6","Low_HMMActual","null","","","","Images/WhiteBeadChoice.png","null"
"image-keyboard-response","52","742476","0.0-4.0-2.10","6","Low_HMMActual","null","","","","Images/WhiteBeadChoiceCorrect.png","null"
"image-keyboard-response","53","743303","0.0-4.0-0.11","6","Low_HMMActual","826.7650000052527","","","","Images/NewTrialWC.png","39"
"image-keyboard-response","54","743554","0.0-4.0-1.11","6","Low_HMMActual","null","","","","Images/WhiteBeadChoice.png","null"
"image-keyboard-response","55","744056","0.0-4.0-2.11","6","Low_HMMActual","null","","","","Images/WhiteBeadChoiceCorrect.png","null"
"image-keyboard-response","56","745489","0.0-4.0-0.12","6","Low_HMMActual","1432.3199999926146","","","","Images/NewTrialWC.png","37"
"image-keyboard-response","57","745740","0.0-4.0-1.12","6","Low_HMMActual","null","","","","Images/BlackBeadChoice.png","null"
"image-keyboard-response","58","746241","0.0-4.0-2.12","6","Low_HMMActual","null","","","","Images/BlackBeadChoiceWrong.png","null"
"image-keyboard-response","59","747694","0.0-4.0-0.13","6","Low_HMMActual","1452.4700000183657","","","","Images/NewTrialWC.png","37"
"image-keyboard-response","60","747947","0.0-4.0-1.13","6","Low_HMMActual","null","","","","Images/BlackBeadChoice.png","null"
"image-keyboard-response","61","748448","0.0-4.0-2.13","6","Low_HMMActual","null","","","","Images/BlackBeadChoiceWrong.png","null"
"image-keyboard-response","62","753996","0.0-4.0-0.14","6","Low_HMMActual","5547.449999983655","","","","Images/NewTrialWC.png","39"
"image-keyboard-response","63","754246","0.0-4.0-1.14","6","Low_HMMActual","null","","","","Images/WhiteBeadChoice.png","null"
"image-keyboard-response","64","754748","0.0-4.0-2.14","6","Low_HMMActual","null","","","","Images/WhiteBeadChoiceCorrect.png","null"
"image-keyboard-response","65","758197","0.0-4.0-0.15","6","Low_HMMActual","3448.759999999311","","","","Images/NewTrialWC.png","39"
"image-keyboard-response","66","758449","0.0-4.0-1.15","6","Low_HMMActual","null","","","","Images/WhiteBeadChoice.png","null"
"image-keyboard-response","67","758949","0.0-4.0-2.15","6","Low_HMMActual","null","","","","Images/WhiteBeadChoiceCorrect.png","null"
"image-keyboard-response","68","760549","0.0-4.0-0.16","6","Low_HMMActual","1598.9750000007916","","","","Images/NewTrialWC.png","37"
"image-keyboard-response","69","760800","0.0-4.0-1.16","6","Low_HMMActual","null","","","","Images/BlackBeadChoice.png","null"
"image-keyboard-response","70","761301","0.0-4.0-2.16","6","Low_HMMActual","null","","","","Images/BlackBeadChoiceWrong.png","null"
"image-keyboard-response","71","762175","0.0-4.0-0.17","6","Low_HMMActual","873.2149999996182","","","","Images/NewTrialWC.png","39"
"image-keyboard-response","72","762426","0.0-4.0-1.17","6","Low_HMMActual","null","","","","Images/WhiteBeadChoice.png","null"
"image-keyboard-response","73","762927","0.0-4.0-2.17","6","Low_HMMActual","null","","","","Images/WhiteBeadChoiceCorrect.png","null"
"image-keyboard-response","74","764013","0.0-4.0-0.18","6","Low_HMMActual","1085.1149999944028","","","","Images/NewTrialWC.png","39"
"image-keyboard-response","75","764264","0.0-4.0-1.18","6","Low_HMMActual","null","","","","Images/WhiteBeadChoice.png","null"
"image-keyboard-response","76","764766","0.0-4.0-2.18","6","Low_HMMActual","null","","","","Images/WhiteBeadChoiceCorrect.png","null"
"image-keyboard-response","77","766513","0.0-4.0-0.19","6","Low_HMMActual","1746.2799999921117","","","","Images/NewTrialWC.png","37"
"image-keyboard-response","78","766764","0.0-4.0-1.19","6","Low_HMMActual","null","","","","Images/BlackBeadChoice.png","null"
"image-keyboard-response","79","767265","0.0-4.0-2.19","6","Low_HMMActual","null","","","","Images/BlackBeadChoiceWrong.png","null"
"image-keyboard-response","80","768183","0.0-4.0-0.20","6","Low_HMMActual","918.1299999763723","","","","Images/NewTrialWC.png","39"
"image-keyboard-response","81","768435","0.0-4.0-1.20","6","Low_HMMActual","null","","","","Images/WhiteBeadChoice.png","null"
"image-keyboard-response","82","768936","0.0-4.0-2.20","6","Low_HMMActual","null","","","","Images/WhiteBeadChoiceCorrect.png","null"
"image-keyboard-response","83","769577","0.0-4.0-0.21","6","Low_HMMActual","640.0500000163447","","","","Images/NewTrialWC.png","39"
"image-keyboard-response","84","769827","0.0-4.0-1.21","6","Low_HMMActual","null","","","","Images/WhiteBeadChoice.png","null"
"image-keyboard-response","85","770330","0.0-4.0-2.21","6","Low_HMMActual","null","","","","Images/WhiteBeadChoiceCorrect.png","null"
"image-keyboard-response","86","770875","0.0-4.0-0.22","6","Low_HMMActual","544.3300000042655","","","","Images/NewTrialWC.png","39"
"image-keyboard-response","87","771127","0.0-4.0-1.22","6","Low_HMMActual","null","","","","Images/WhiteBeadChoice.png","null"
"image-keyboard-response","88","771627","0.0-4.0-2.22","6","Low_HMMActual","null","","","","Images/WhiteBeadChoiceCorrect.png","null"
"image-keyboard-response","89","772421","0.0-4.0-0.23","6","Low_HMMActual","792.7199999976438","","","","Images/NewTrialWC.png","39"
"image-keyboard-response","90","772672","0.0-4.0-1.23","6","Low_HMMActual","null","","","","Images/WhiteBeadChoice.png","null"
"image-keyboard-response","91","773173","0.0-4.0-2.23","6","Low_HMMActual","null","","","","Images/WhiteBeadChoiceCorrect.png","null"
"image-keyboard-response","92","773763","0.0-4.0-0.24","6","Low_HMMActual","589.5850000088103","","","","Images/NewTrialWC.png","39"
"image-keyboard-response","93","774013","0.0-4.0-1.24","6","Low_HMMActual","null","","","","Images/WhiteBeadChoice.png","null"
"image-keyboard-response","94","774514","0.0-4.0-2.24","6","Low_HMMActual","null","","","","Images/WhiteBeadChoiceCorrect.png","null"
"image-keyboard-response","95","775427","0.0-4.0-0.25","6","Low_HMMActual","911.774999985937","","","","Images/NewTrialWC.png","39"
"image-keyboard-response","96","775677","0.0-4.0-1.25","6","Low_HMMActual","null","","","","Images/WhiteBeadChoice.png","null"
"image-keyboard-response","97","776179","0.0-4.0-2.25","6","Low_HMMActual","null","","","","Images/WhiteBeadChoiceWrong.png","null"
"image-keyboard-response","98","778876","0.0-4.0-0.26","6","Low_HMMActual","2696.3549999927636","","","","Images/NewTrialBC.png","37"
"image-keyboard-response","99","779127","0.0-4.0-1.26","6","Low_HMMActual","null","","","","Images/BlackBeadChoice.png","null"
"image-keyboard-response","100","779628","0.0-4.0-2.26","6","Low_HMMActual","null","","","","Images/BlackBeadChoiceWrong.png","null"
"image-keyboard-response","101","781077","0.0-4.0-0.27","6","Low_HMMActual","1448.2999999891035","","","","Images/NewTrialWC.png","39"
"image-keyboard-response","102","781328","0.0-4.0-1.27","6","Low_HMMActual","null","","","","Images/WhiteBeadChoice.png","null"
"image-keyboard-response","103","781829","0.0-4.0-2.27","6","Low_HMMActual","null","","","","Images/WhiteBeadChoiceCorrect.png","null"
"image-keyboard-response","104","782467","0.0-4.0-0.28","6","Low_HMMActual","637.3700000112876","","","","Images/NewTrialWC.png","39"
"image-keyboard-response","105","782719","0.0-4.0-1.28","6","Low_HMMActual","null","","","","Images/WhiteBeadChoice.png","null"
"image-keyboard-response","106","783220","0.0-4.0-2.28","6","Low_HMMActual","null","","","","Images/WhiteBeadChoiceCorrect.png","null"
"image-keyboard-response","107","783827","0.0-4.0-0.29","6","Low_HMMActual","606.419999996433","","","","Images/NewTrialWC.png","39"
"image-keyboard-response","108","784078","0.0-4.0-1.29","6","Low_HMMActual","null","","","","Images/WhiteBeadChoice.png","null"
"image-keyboard-response","109","784580","0.0-4.0-2.29","6","Low_HMMActual","null","","","","Images/WhiteBeadChoiceCorrect.png","null"
"image-keyboard-response","110","785248","0.0-4.0-0.30","6","Low_HMMActual","667.3249999876134","","","","Images/NewTrialWC.png","39"
"image-keyboard-response","111","785499","0.0-4.0-1.30","6","Low_HMMActual","null","","","","Images/WhiteBeadChoice.png","null"
"image-keyboard-response","112","786000","0.0-4.0-2.30","6","Low_HMMActual","null","","","","Images/WhiteBeadChoiceWrong.png","null"
"image-keyboard-response","113","786731","0.0-4.0-0.31","6","Low_HMMActual","731.050000002142","","","","Images/NewTrialBC.png","39"
"image-keyboard-response","114","786983","0.0-4.0-1.31","6","Low_HMMActual","null","","","","Images/WhiteBeadChoice.png","null"
"image-keyboard-response","115","787483","0.0-4.0-2.31","6","Low_HMMActual","null","","","","Images/WhiteBeadChoiceWrong.png","null"
"image-keyboard-response","116","788045","0.0-4.0-0.32","6","Low_HMMActual","561.3200000079814","","","","Images/NewTrialBC.png","39"
"image-keyboard-response","117","788296","0.0-4.0-1.32","6","Low_HMMActual","null","","","","Images/WhiteBeadChoice.png","null"
"image-keyboard-response","118","788799","0.0-4.0-2.32","6","Low_HMMActual","null","","","","Images/WhiteBeadChoiceCorrect.png","null"
"image-keyboard-response","119","789362","0.0-4.0-0.33","6","Low_HMMActual","563.1199999770615","","","","Images/NewTrialWC.png","39"
"image-keyboard-response","120","789613","0.0-4.0-1.33","6","Low_HMMActual","null","","","","Images/WhiteBeadChoice.png","null"
"image-keyboard-response","121","790114","0.0-4.0-2.33","6","Low_HMMActual","null","","","","Images/WhiteBeadChoiceWrong.png","null"
"image-keyboard-response","122","796041","0.0-4.0-0.34","6","Low_HMMActual","5925.855000008596","","","","Images/NewTrialBC.png","39"
"image-keyboard-response","123","796293","0.0-4.0-1.34","6","Low_HMMActual","null","","","","Images/WhiteBeadChoice.png","null"
"image-keyboard-response","124","796794","0.0-4.0-2.34","6","Low_HMMActual","null","","","","Images/WhiteBeadChoiceWrong.png","null"
"image-keyboard-response","125","797741","0.0-4.0-0.35","6","Low_HMMActual","946.1250000167638","","","","Images/NewTrialBC.png","37"
"image-keyboard-response","126","797992","0.0-4.0-1.35","6","Low_HMMActual","null","","","","Images/BlackBeadChoice.png","null"
"image-keyboard-response","127","798493","0.0-4.0-2.35","6","Low_HMMActual","null","","","","Images/BlackBeadChoiceCorrect.png","null"
"image-keyboard-response","128","800023","0.0-4.0-0.36","6","Low_HMMActual","1529.5049999840558","","","","Images/NewTrialBC.png","37"
"image-keyboard-response","129","800274","0.0-4.0-1.36","6","Low_HMMActual","null","","","","Images/BlackBeadChoice.png","null"
"image-keyboard-response","130","800776","0.0-4.0-2.36","6","Low_HMMActual","null","","","","Images/BlackBeadChoiceCorrect.png","null"
"image-keyboard-response","131","801920","0.0-4.0-0.37","6","Low_HMMActual","1143.51500000339","","","","Images/NewTrialBC.png","37"
"image-keyboard-response","132","802171","0.0-4.0-1.37","6","Low_HMMActual","null","","","","Images/BlackBeadChoice.png","null"
"image-keyboard-response","133","802672","0.0-4.0-2.37","6","Low_HMMActual","null","","","","Images/BlackBeadChoiceCorrect.png","null"
"image-keyboard-response","134","804093","0.0-4.0-0.38","6","Low_HMMActual","1420.0549999950454","","","","Images/NewTrialBC.png","37"
"image-keyboard-response","135","804345","0.0-4.0-1.38","6","Low_HMMActual","null","","","","Images/BlackBeadChoice.png","null"
"image-keyboard-response","136","804846","0.0-4.0-2.38","6","Low_HMMActual","null","","","","Images/BlackBeadChoiceCorrect.png","null"
"image-keyboard-response","137","806210","0.0-4.0-0.39","6","Low_HMMActual","1363.5150000045542","","","","Images/NewTrialBC.png","39"
"image-keyboard-response","138","806461","0.0-4.0-1.39","6","Low_HMMActual","null","","","","Images/WhiteBeadChoice.png","null"
"image-keyboard-response","139","806961","0.0-4.0-2.39","6","Low_HMMActual","null","","","","Images/WhiteBeadChoiceWrong.png","null"
"image-keyboard-response","140","809409","0.0-4.0-0.40","6","Low_HMMActual","2446.9000000099186","","","","Images/NewTrialBC.png","37"
"image-keyboard-response","141","809660","0.0-4.0-1.40","6","Low_HMMActual","null","","","","Images/BlackBeadChoice.png","null"
"image-keyboard-response","142","810161","0.0-4.0-2.40","6","Low_HMMActual","null","","","","Images/BlackBeadChoiceCorrect.png","null"
"image-keyboard-response","143","810901","0.0-4.0-0.41","6","Low_HMMActual","739.5200000028126","","","","Images/NewTrialBC.png","37"
"image-keyboard-response","144","811152","0.0-4.0-1.41","6","Low_HMMActual","null","","","","Images/BlackBeadChoice.png","null"
"image-keyboard-response","145","811655","0.0-4.0-2.41","6","Low_HMMActual","null","","","","Images/BlackBeadChoiceCorrect.png","null"
"image-keyboard-response","146","812489","0.0-4.0-0.42","6","Low_HMMActual","833.3799999963958","","","","Images/NewTrialBC.png","37"
"image-keyboard-response","147","812740","0.0-4.0-1.42","6","Low_HMMActual","null","","","","Images/BlackBeadChoice.png","null"
"image-keyboard-response","148","813241","0.0-4.0-2.42","6","Low_HMMActual","null","","","","Images/BlackBeadChoiceCorrect.png","null"
"image-keyboard-response","149","815295","0.0-4.0-0.43","6","Low_HMMActual","2053.090000001248","","","","Images/NewTrialBC.png","37"
"image-keyboard-response","150","815546","0.0-4.0-1.43","6","Low_HMMActual","null","","","","Images/BlackBeadChoice.png","null"
"image-keyboard-response","151","816048","0.0-4.0-2.43","6","Low_HMMActual","null","","","","Images/BlackBeadChoiceWrong.png","null"
"image-keyboard-response","152","816945","0.0-4.0-0.44","6","Low_HMMActual","896.180000010645","","","","Images/NewTrialWC.png","37"
"image-keyboard-response","153","817196","0.0-4.0-1.44","6","Low_HMMActual","null","","","","Images/BlackBeadChoice.png","null"
"image-keyboard-response","154","817697","0.0-4.0-2.44","6","Low_HMMActual","null","","","","Images/BlackBeadChoiceWrong.png","null"
"image-keyboard-response","155","818369","0.0-4.0-0.45","6","Low_HMMActual","671.4999999967404","","","","Images/NewTrialWC.png","37"
"image-keyboard-response","156","818620","0.0-4.0-1.45","6","Low_HMMActual","null","","","","Images/BlackBeadChoice.png","null"
"image-keyboard-response","157","819121","0.0-4.0-2.45","6","Low_HMMActual","null","","","","Images/BlackBeadChoiceCorrect.png","null"
"image-keyboard-response","158","819685","0.0-4.0-0.46","6","Low_HMMActual","563.3699999889359","","","","Images/NewTrialBC.png","37"
"image-keyboard-response","159","819935","0.0-4.0-1.46","6","Low_HMMActual","null","","","","Images/BlackBeadChoice.png","null"
"image-keyboard-response","160","820436","0.0-4.0-2.46","6","Low_HMMActual","null","","","","Images/BlackBeadChoiceWrong.png","null"
"image-keyboard-response","161","821899","0.0-4.0-0.47","6","Low_HMMActual","1461.7799999832641","","","","Images/NewTrialWC.png","39"
"image-keyboard-response","162","822150","0.0-4.0-1.47","6","Low_HMMActual","null","","","","Images/WhiteBeadChoice.png","null"
"image-keyboard-response","163","822650","0.0-4.0-2.47","6","Low_HMMActual","null","","","","Images/WhiteBeadChoiceCorrect.png","null"
"image-keyboard-response","164","823539","0.0-4.0-0.48","6","Low_HMMActual","888.3050000004005","","","","Images/NewTrialWC.png","39"
"image-keyboard-response","165","823790","0.0-4.0-1.48","6","Low_HMMActual","null","","","","Images/WhiteBeadChoice.png","null"
"image-keyboard-response","166","824291","0.0-4.0-2.48","6","Low_HMMActual","null","","","","Images/WhiteBeadChoiceCorrect.png","null"
"image-keyboard-response","167","825810","0.0-4.0-0.49","6","Low_HMMActual","1518.3449999894947","","","","Images/NewTrialWC.png","39"
"image-keyboard-response","168","826061","0.0-4.0-1.49","6","Low_HMMActual","null","","","","Images/WhiteBeadChoice.png","null"
"image-keyboard-response","169","826562","0.0-4.0-2.49","6","Low_HMMActual","null","","","","Images/WhiteBeadChoiceCorrect.png","null"
"image-keyboard-response","170","827557","0.0-4.0-0.50","6","Low_HMMActual","994.9999999953434","","","","Images/NewTrialWC.png","39"
"image-keyboard-response","171","827808","0.0-4.0-1.50","6","Low_HMMActual","null","","","","Images/WhiteBeadChoice.png","null"
"image-keyboard-response","172","828309","0.0-4.0-2.50","6","Low_HMMActual","null","","","","Images/WhiteBeadChoiceCorrect.png","null"
"image-keyboard-response","173","829329","0.0-4.0-0.51","6","Low_HMMActual","1019.0849999780767","","","","Images/NewTrialWC.png","39"
"image-keyboard-response","174","829581","0.0-4.0-1.51","6","Low_HMMActual","null","","","","Images/WhiteBeadChoice.png","null"
"image-keyboard-response","175","830081","0.0-4.0-2.51","6","Low_HMMActual","null","","","","Images/WhiteBeadChoiceCorrect.png","null"
"image-keyboard-response","176","831212","0.0-4.0-0.52","6","Low_HMMActual","1129.56000000122","","","","Images/NewTrialWC.png","39"
"image-keyboard-response","177","831464","0.0-4.0-1.52","6","Low_HMMActual","null","","","","Images/WhiteBeadChoice.png","null"
"image-keyboard-response","178","831964","0.0-4.0-2.52","6","Low_HMMActual","null","","","","Images/WhiteBeadChoiceCorrect.png","null"
"image-keyboard-response","179","832959","0.0-4.0-0.53","6","Low_HMMActual","994.0699999860954","","","","Images/NewTrialWC.png","39"
"image-keyboard-response","180","833210","0.0-4.0-1.53","6","Low_HMMActual","null","","","","Images/WhiteBeadChoice.png","null"
"image-keyboard-response","181","833711","0.0-4.0-2.53","6","Low_HMMActual","null","","","","Images/WhiteBeadChoiceCorrect.png","null"
"image-keyboard-response","182","835720","0.0-4.0-0.54","6","Low_HMMActual","2008.109999995213","","","","Images/NewTrialWC.png","37"
"image-keyboard-response","183","835970","0.0-4.0-1.54","6","Low_HMMActual","null","","","","Images/BlackBeadChoice.png","null"
"image-keyboard-response","184","836471","0.0-4.0-2.54","6","Low_HMMActual","null","","","","Images/BlackBeadChoiceWrong.png","null"
"image-keyboard-response","185","836672","0.0-4.0-0.55","6","Low_HMMActual","199.78999998420477","","","","Images/NewTrialWC.png","37"
"image-keyboard-response","186","836923","0.0-4.0-1.55","6","Low_HMMActual","null","","","","Images/BlackBeadChoice.png","null"
"image-keyboard-response","187","837424","0.0-4.0-2.55","6","Low_HMMActual","null","","","","Images/BlackBeadChoiceWrong.png","null"
"image-keyboard-response","188","838525","0.0-4.0-0.56","6","Low_HMMActual","1100.0699999858625","","","","Images/NewTrialWC.png","39"
"image-keyboard-response","189","838776","0.0-4.0-1.56","6","Low_HMMActual","null","","","","Images/WhiteBeadChoice.png","null"
"image-keyboard-response","190","839276","0.0-4.0-2.56","6","Low_HMMActual","null","","","","Images/WhiteBeadChoiceCorrect.png","null"
"image-keyboard-response","191","839761","0.0-4.0-0.57","6","Low_HMMActual","483.88000001432374","","","","Images/NewTrialWC.png","39"
"image-keyboard-response","192","840012","0.0-4.0-1.57","6","Low_HMMActual","null","","","","Images/WhiteBeadChoice.png","null"
"image-keyboard-response","193","840514","0.0-4.0-2.57","6","Low_HMMActual","null","","","","Images/WhiteBeadChoiceCorrect.png","null"
"image-keyboard-response","194","841273","0.0-4.0-0.58","6","Low_HMMActual","758.3900000026915","","","","Images/NewTrialWC.png","39"
"image-keyboard-response","195","841525","0.0-4.0-1.58","6","Low_HMMActual","null","","","","Images/WhiteBeadChoice.png","null"
"image-keyboard-response","196","842026","0.0-4.0-2.58","6","Low_HMMActual","null","","","","Images/WhiteBeadChoiceCorrect.png","null"
"image-keyboard-response","197","842776","0.0-4.0-0.59","6","Low_HMMActual","749.9399999796879","","","","Images/NewTrialWC.png","39"
"image-keyboard-response","198","843029","0.0-4.0-1.59","6","Low_HMMActual","null","","","","Images/WhiteBeadChoice.png","null"
"image-keyboard-response","199","843529","0.0-4.0-2.59","6","Low_HMMActual","null","","","","Images/WhiteBeadChoiceCorrect.png","null"
"image-keyboard-response","200","844504","0.0-4.0-0.60","6","Low_HMMActual","974.5049999910407","","","","Images/NewTrialWC.png","37"
"image-keyboard-response","201","844756","0.0-4.0-1.60","6","Low_HMMActual","null","","","","Images/BlackBeadChoice.png","null"
"image-keyboard-response","202","845256","0.0-4.0-2.60","6","Low_HMMActual","null","","","","Images/BlackBeadChoiceWrong.png","null"
"image-keyboard-response","203","846066","0.0-4.0-0.61","6","Low_HMMActual","808.8900000147987","","","","Images/NewTrialWC.png","39"
"image-keyboard-response","204","846318","0.0-4.0-1.61","6","Low_HMMActual","null","","","","Images/WhiteBeadChoice.png","null"
"image-keyboard-response","205","846819","0.0-4.0-2.61","6","Low_HMMActual","null","","","","Images/WhiteBeadChoiceCorrect.png","null"
"image-keyboard-response","206","847518","0.0-4.0-0.62","6","Low_HMMActual","698.0599999951664","","","","Images/NewTrialWC.png","39"
"image-keyboard-response","207","847769","0.0-4.0-1.62","6","Low_HMMActual","null","","","","Images/WhiteBeadChoice.png","null"
"image-keyboard-response","208","848270","0.0-4.0-2.62","6","Low_HMMActual","null","","","","Images/WhiteBeadChoiceCorrect.png","null"
"image-keyboard-response","209","848971","0.0-4.0-0.63","6","Low_HMMActual","700.8499999938067","","","","Images/NewTrialWC.png","39"
"image-keyboard-response","210","849223","0.0-4.0-1.63","6","Low_HMMActual","null","","","","Images/WhiteBeadChoice.png","null"
"image-keyboard-response","211","849724","0.0-4.0-2.63","6","Low_HMMActual","null","","","","Images/WhiteBeadChoiceCorrect.png","null"
"image-keyboard-response","212","850356","0.0-4.0-0.64","6","Low_HMMActual","631.0149999917485","","","","Images/NewTrialWC.png","39"
"image-keyboard-response","213","850607","0.0-4.0-1.64","6","Low_HMMActual","null","","","","Images/WhiteBeadChoice.png","null"
"image-keyboard-response","214","851109","0.0-4.0-2.64","6","Low_HMMActual","null","","","","Images/WhiteBeadChoiceCorrect.png","null"
"image-keyboard-response","215","851674","0.0-4.0-0.65","6","Low_HMMActual","564.2150000203401","","","","Images/NewTrialWC.png","39"
"image-keyboard-response","216","851925","0.0-4.0-1.65","6","Low_HMMActual","null","","","","Images/WhiteBeadChoice.png","null"
"image-keyboard-response","217","852426","0.0-4.0-2.65","6","Low_HMMActual","null","","","","Images/WhiteBeadChoiceCorrect.png","null"
"image-keyboard-response","218","852975","0.0-4.0-0.66","6","Low_HMMActual","548.5850000113714","","","","Images/NewTrialWC.png","39"
"image-keyboard-response","219","853226","0.0-4.0-1.66","6","Low_HMMActual","null","","","","Images/WhiteBeadChoice.png","null"
"image-keyboard-response","220","853727","0.0-4.0-2.66","6","Low_HMMActual","null","","","","Images/WhiteBeadChoiceWrong.png","null"
"image-keyboard-response","221","854361","0.0-4.0-0.67","6","Low_HMMActual","633.1050000153482","","","","Images/NewTrialBC.png","37"
"image-keyboard-response","222","854612","0.0-4.0-1.67","6","Low_HMMActual","null","","","","Images/BlackBeadChoice.png","null"
"image-keyboard-response","223","855112","0.0-4.0-2.67","6","Low_HMMActual","null","","","","Images/BlackBeadChoiceCorrect.png","null"
"image-keyboard-response","224","855684","0.0-4.0-0.68","6","Low_HMMActual","571.5999999956694","","","","Images/NewTrialBC.png","37"
"image-keyboard-response","225","855935","0.0-4.0-1.68","6","Low_HMMActual","null","","","","Images/BlackBeadChoice.png","null"
"image-keyboard-response","226","856436","0.0-4.0-2.68","6","Low_HMMActual","null","","","","Images/BlackBeadChoiceCorrect.png","null"
"image-keyboard-response","227","857003","0.0-4.0-0.69","6","Low_HMMActual","566.4799999794923","","","","Images/NewTrialBC.png","37"
"image-keyboard-response","228","857255","0.0-4.0-1.69","6","Low_HMMActual","null","","","","Images/BlackBeadChoice.png","null"
"image-keyboard-response","229","857758","0.0-4.0-2.69","6","Low_HMMActual","null","","","","Images/BlackBeadChoiceCorrect.png","null"
"image-keyboard-response","230","858392","0.0-4.0-0.70","6","Low_HMMActual","634.040000004461","","","","Images/NewTrialBC.png","37"
"image-keyboard-response","231","858643","0.0-4.0-1.70","6","Low_HMMActual","null","","","","Images/BlackBeadChoice.png","null"
"image-keyboard-response","232","859145","0.0-4.0-2.70","6","Low_HMMActual","null","","","","Images/BlackBeadChoiceCorrect.png","null"
"image-keyboard-response","233","859687","0.0-4.0-0.71","6","Low_HMMActual","541.5499999944586","","","","Images/NewTrialBC.png","37"
"image-keyboard-response","234","859938","0.0-4.0-1.71","6","Low_HMMActual","null","","","","Images/BlackBeadChoice.png","null"
"image-keyboard-response","235","860439","0.0-4.0-2.71","6","Low_HMMActual","null","","","","Images/BlackBeadChoiceWrong.png","null"
"image-keyboard-response","236","860977","0.0-4.0-0.72","6","Low_HMMActual","536.8749999906868","","","","Images/NewTrialWC.png","37"
"image-keyboard-response","237","861228","0.0-4.0-1.72","6","Low_HMMActual","null","","","","Images/BlackBeadChoice.png","null"
"image-keyboard-response","238","861729","0.0-4.0-2.72","6","Low_HMMActual","null","","","","Images/BlackBeadChoiceCorrect.png","null"
"image-keyboard-response","239","862317","0.0-4.0-0.73","6","Low_HMMActual","587.4900000053458","","","","Images/NewTrialBC.png","37"
"image-keyboard-response","240","862568","0.0-4.0-1.73","6","Low_HMMActual","null","","","","Images/BlackBeadChoice.png","null"
"image-keyboard-response","241","863069","0.0-4.0-2.73","6","Low_HMMActual","null","","","","Images/BlackBeadChoiceCorrect.png","null"
"image-keyboard-response","242","863685","0.0-4.0-0.74","6","Low_HMMActual","615.6499999924563","","","","Images/NewTrialBC.png","37"
"image-keyboard-response","243","863936","0.0-4.0-1.74","6","Low_HMMActual","null","","","","Images/BlackBeadChoice.png","null"
"image-keyboard-response","244","864437","0.0-4.0-2.74","6","Low_HMMActual","null","","","","Images/BlackBeadChoiceCorrect.png","null"
"image-keyboard-response","245","864971","0.0-4.0-0.75","6","Low_HMMActual","532.7000000106636","","","","Images/NewTrialBC.png","37"
"image-keyboard-response","246","865223","0.0-4.0-1.75","6","Low_HMMActual","null","","","","Images/BlackBeadChoice.png","null"
"image-keyboard-response","247","865724","0.0-4.0-2.75","6","Low_HMMActual","null","","","","Images/BlackBeadChoiceCorrect.png","null"
"image-keyboard-response","248","866250","0.0-4.0-0.76","6","Low_HMMActual","525.0050000031479","","","","Images/NewTrialBC.png","37"
"image-keyboard-response","249","866501","0.0-4.0-1.76","6","Low_HMMActual","null","","","","Images/BlackBeadChoice.png","null"
"image-keyboard-response","250","867001","0.0-4.0-2.76","6","Low_HMMActual","null","","","","Images/BlackBeadChoiceWrong.png","null"
"image-keyboard-response","251","868908","0.0-4.0-0.77","6","Low_HMMActual","1905.9950000082608","","","","Images/NewTrialWC.png","39"
"image-keyboard-response","252","869159","0.0-4.0-1.77","6","Low_HMMActual","null","","","","Images/WhiteBeadChoice.png","null"
"image-keyboard-response","253","869660","0.0-4.0-2.77","6","Low_HMMActual","null","","","","Images/WhiteBeadChoiceWrong.png","null"
"image-keyboard-response","254","870040","0.0-4.0-0.78","6","Low_HMMActual","379.7750000085216","","","","Images/NewTrialBC.png","39"
"image-keyboard-response","255","870292","0.0-4.0-1.78","6","Low_HMMActual","null","","","","Images/WhiteBeadChoice.png","null"
"image-keyboard-response","256","870793","0.0-4.0-2.78","6","Low_HMMActual","null","","","","Images/WhiteBeadChoiceWrong.png","null"
"image-keyboard-response","257","871184","0.0-4.0-0.79","6","Low_HMMActual","390.20999998319894","","","","Images/NewTrialBC.png","37"
"image-keyboard-response","258","871434","0.0-4.0-1.79","6","Low_HMMActual","null","","","","Images/BlackBeadChoice.png","null"
"image-keyboard-response","259","871935","0.0-4.0-2.79","6","Low_HMMActual","null","","","","Images/BlackBeadChoiceCorrect.png","null"
"image-keyboard-response","260","872408","0.0-4.0-0.80","6","Low_HMMActual","472.5400000170339","","","","Images/NewTrialBC.png","37"
"image-keyboard-response","261","872661","0.0-4.0-1.80","6","Low_HMMActual","null","","","","Images/BlackBeadChoice.png","null"
"image-keyboard-response","262","873163","0.0-4.0-2.80","6","Low_HMMActual","null","","","","Images/BlackBeadChoiceWrong.png","null"
"image-keyboard-response","263","873592","0.0-4.0-0.81","6","Low_HMMActual","428.37999999755993","","","","Images/NewTrialWC.png","37"
"image-keyboard-response","264","873844","0.0-4.0-1.81","6","Low_HMMActual","null","","","","Images/BlackBeadChoice.png","null"
"image-keyboard-response","265","874347","0.0-4.0-2.81","6","Low_HMMActual","null","","","","Images/BlackBeadChoiceWrong.png","null"
"image-keyboard-response","266","875091","0.0-4.0-0.82","6","Low_HMMActual","743.9750000194181","","","","Images/NewTrialWC.png","39"
"image-keyboard-response","267","875344","0.0-4.0-1.82","6","Low_HMMActual","null","","","","Images/WhiteBeadChoice.png","null"
"image-keyboard-response","268","875844","0.0-4.0-2.82","6","Low_HMMActual","null","","","","Images/WhiteBeadChoiceCorrect.png","null"
"image-keyboard-response","269","876275","0.0-4.0-0.83","6","Low_HMMActual","429.504999978235","","","","Images/NewTrialWC.png","39"
"image-keyboard-response","270","876527","0.0-4.0-1.83","6","Low_HMMActual","null","","","","Images/WhiteBeadChoice.png","null"
"image-keyboard-response","271","877028","0.0-4.0-2.83","6","Low_HMMActual","null","","","","Images/WhiteBeadChoiceCorrect.png","null"
"image-keyboard-response","272","877602","0.0-4.0-0.84","6","Low_HMMActual","573.2199999911245","","","","Images/NewTrialWC.png","39"
"image-keyboard-response","273","877853","0.0-4.0-1.84","6","Low_HMMActual","null","","","","Images/WhiteBeadChoice.png","null"
"image-keyboard-response","274","878355","0.0-4.0-2.84","6","Low_HMMActual","null","","","","Images/WhiteBeadChoiceCorrect.png","null"
"image-keyboard-response","275","878768","0.0-4.0-0.85","6","Low_HMMActual","411.8550000130199","","","","Images/NewTrialWC.png","39"
"image-keyboard-response","276","879019","0.0-4.0-1.85","6","Low_HMMActual","null","","","","Images/WhiteBeadChoice.png","null"
"image-keyboard-response","277","879520","0.0-4.0-2.85","6","Low_HMMActual","null","","","","Images/WhiteBeadChoiceCorrect.png","null"
"image-keyboard-response","278","879945","0.0-4.0-0.86","6","Low_HMMActual","424.1549999860581","","","","Images/NewTrialWC.png","39"
"image-keyboard-response","279","880196","0.0-4.0-1.86","6","Low_HMMActual","null","","","","Images/WhiteBeadChoice.png","null"
"image-keyboard-response","280","880699","0.0-4.0-2.86","6","Low_HMMActual","null","","","","Images/WhiteBeadChoiceWrong.png","null"
"image-keyboard-response","281","881365","0.0-4.0-0.87","6","Low_HMMActual","665.949999995064","","","","Images/NewTrialBC.png","37"
"image-keyboard-response","282","881618","0.0-4.0-1.87","6","Low_HMMActual","null","","","","Images/BlackBeadChoice.png","null"
"image-keyboard-response","283","882119","0.0-4.0-2.87","6","Low_HMMActual","null","","","","Images/BlackBeadChoiceCorrect.png","null"
"image-keyboard-response","284","882540","0.0-4.0-0.88","6","Low_HMMActual","421.0499999753665","","","","Images/NewTrialBC.png","37"
"image-keyboard-response","285","882792","0.0-4.0-1.88","6","Low_HMMActual","null","","","","Images/BlackBeadChoice.png","null"
"image-keyboard-response","286","883293","0.0-4.0-2.88","6","Low_HMMActual","null","","","","Images/BlackBeadChoiceWrong.png","null"
"image-keyboard-response","287","883837","0.0-4.0-0.89","6","Low_HMMActual","543.2399999990594","","","","Images/NewTrialWC.png","37"
"image-keyboard-response","288","884089","0.0-4.0-1.89","6","Low_HMMActual","null","","","","Images/BlackBeadChoice.png","null"
"image-keyboard-response","289","884590","0.0-4.0-2.89","6","Low_HMMActual","null","","","","Images/BlackBeadChoiceWrong.png","null"
"image-keyboard-response","290","885241","0.0-4.0-0.90","6","Low_HMMActual","650.0550000055227","","","","Images/NewTrialWC.png","39"
"image-keyboard-response","291","885492","0.0-4.0-1.90","6","Low_HMMActual","null","","","","Images/WhiteBeadChoice.png","null"
"image-keyboard-response","292","885994","0.0-4.0-2.90","6","Low_HMMActual","null","","","","Images/WhiteBeadChoiceCorrect.png","null"
"image-keyboard-response","293","886442","0.0-4.0-0.91","6","Low_HMMActual","446.98999999673106","","","","Images/NewTrialWC.png","39"
"image-keyboard-response","294","886693","0.0-4.0-1.91","6","Low_HMMActual","null","","","","Images/WhiteBeadChoice.png","null"
"image-keyboard-response","295","887194","0.0-4.0-2.91","6","Low_HMMActual","null","","","","Images/WhiteBeadChoiceWrong.png","null"
"image-keyboard-response","296","887897","0.0-4.0-0.92","6","Low_HMMActual","702.000000019325","","","","Images/NewTrialBC.png","37"
"image-keyboard-response","297","888148","0.0-4.0-1.92","6","Low_HMMActual","null","","","","Images/BlackBeadChoice.png","null"
"image-keyboard-response","298","888649","0.0-4.0-2.92","6","Low_HMMActual","null","","","","Images/BlackBeadChoiceWrong.png","null"
"image-keyboard-response","299","888818","0.0-4.0-0.93","6","Low_HMMActual","168.22000002139248","","","","Images/NewTrialWC.png","37"
"image-keyboard-response","300","889069","0.0-4.0-1.93","6","Low_HMMActual","null","","","","Images/BlackBeadChoice.png","null"
"image-keyboard-response","301","889570","0.0-4.0-2.93","6","Low_HMMActual","null","","","","Images/BlackBeadChoiceCorrect.png","null"
"image-keyboard-response","302","889985","0.0-4.0-0.94","6","Low_HMMActual","414.0400000032969","","","","Images/NewTrialBC.png","37"
"image-keyboard-response","303","890236","0.0-4.0-1.94","6","Low_HMMActual","null","","","","Images/BlackBeadChoice.png","null"
"image-keyboard-response","304","890737","0.0-4.0-2.94","6","Low_HMMActual","null","","","","Images/BlackBeadChoiceCorrect.png","null"
"image-keyboard-response","305","891176","0.0-4.0-0.95","6","Low_HMMActual","438.2800000021234","","","","Images/NewTrialBC.png","37"
"image-keyboard-response","306","891427","0.0-4.0-1.95","6","Low_HMMActual","null","","","","Images/BlackBeadChoice.png","null"
"image-keyboard-response","307","891929","0.0-4.0-2.95","6","Low_HMMActual","null","","","","Images/BlackBeadChoiceWrong.png","null"
"image-keyboard-response","308","892618","0.0-4.0-0.96","6","Low_HMMActual","688.6299999896437","","","","Images/NewTrialWC.png","39"
"image-keyboard-response","309","892870","0.0-4.0-1.96","6","Low_HMMActual","null","","","","Images/WhiteBeadChoice.png","null"
"image-keyboard-response","310","893372","0.0-4.0-2.96","6","Low_HMMActual","null","","","","Images/WhiteBeadChoiceCorrect.png","null"
"image-keyboard-response","311","893809","0.0-4.0-0.97","6","Low_HMMActual","436.06000000727363","","","","Images/NewTrialWC.png","39"
"image-keyboard-response","312","894060","0.0-4.0-1.97","6","Low_HMMActual","null","","","","Images/WhiteBeadChoice.png","null"
"image-keyboard-response","313","894561","0.0-4.0-2.97","6","Low_HMMActual","null","","","","Images/WhiteBeadChoiceCorrect.png","null"
"image-keyboard-response","314","894832","0.0-4.0-0.98","6","Low_HMMActual","269.5349999994505","","","","Images/NewTrialWC.png","39"
"image-keyboard-response","315","895084","0.0-4.0-1.98","6","Low_HMMActual","null","","","","Images/WhiteBeadChoice.png","null"
"image-keyboard-response","316","895585","0.0-4.0-2.98","6","Low_HMMActual","null","","","","Images/WhiteBeadChoiceCorrect.png","null"
"image-keyboard-response","317","895907","0.0-4.0-0.99","6","Low_HMMActual","321.89999998081475","","","","Images/NewTrialWC.png","39"
"image-keyboard-response","318","896158","0.0-4.0-1.99","6","Low_HMMActual","null","","","","Images/WhiteBeadChoice.png","null"
"image-keyboard-response","319","896660","0.0-4.0-2.99","6","Low_HMMActual","null","","","","Images/WhiteBeadChoiceWrong.png","null"
"image-keyboard-response","320","897473","0.0-4.0-0.100","6","Low_HMMActual","812.2700000240002","","","","Images/NewTrialBC.png","39"
"image-keyboard-response","321","897725","0.0-4.0-1.100","6","Low_HMMActual","null","","","","Images/WhiteBeadChoice.png","null"
"image-keyboard-response","322","898227","0.0-4.0-2.100","6","Low_HMMActual","null","","","","Images/WhiteBeadChoiceWrong.png","null"
"image-keyboard-response","323","898551","0.0-4.0-0.101","6","Low_HMMActual","323.4900000097696","","","","Images/NewTrialBC.png","37"
"image-keyboard-response","324","898802","0.0-4.0-1.101","6","Low_HMMActual","null","","","","Images/BlackBeadChoice.png","null"
"image-keyboard-response","325","899303","0.0-4.0-2.101","6","Low_HMMActual","null","","","","Images/BlackBeadChoiceCorrect.png","null"
"image-keyboard-response","326","899618","0.0-4.0-0.102","6","Low_HMMActual","313.6149999918416","","","","Images/NewTrialBC.png","37"
"image-keyboard-response","327","899869","0.0-4.0-1.102","6","Low_HMMActual","null","","","","Images/BlackBeadChoice.png","null"
"image-keyboard-response","328","900370","0.0-4.0-2.102","6","Low_HMMActual","null","","","","Images/BlackBeadChoiceWrong.png","null"
"image-keyboard-response","329","901024","0.0-4.0-0.103","6","Low_HMMActual","653.9800000027753","","","","Images/NewTrialWC.png","39"
"image-keyboard-response","330","901275","0.0-4.0-1.103","6","Low_HMMActual","null","","","","Images/WhiteBeadChoice.png","null"
"image-keyboard-response","331","901776","0.0-4.0-2.103","6","Low_HMMActual","null","","","","Images/WhiteBeadChoiceCorrect.png","null"
"image-keyboard-response","332","902089","0.0-4.0-0.104","6","Low_HMMActual","312.1849999879487","","","","Images/NewTrialWC.png","39"
"image-keyboard-response","333","902341","0.0-4.0-1.104","6","Low_HMMActual","null","","","","Images/WhiteBeadChoice.png","null"
"image-keyboard-response","334","902842","0.0-4.0-2.104","6","Low_HMMActual","null","","","","Images/WhiteBeadChoiceCorrect.png","null"
"image-keyboard-response","335","903138","0.0-4.0-0.105","6","Low_HMMActual","294.80500001227483","","","","Images/NewTrialWC.png","39"
"image-keyboard-response","336","903389","0.0-4.0-1.105","6","Low_HMMActual","null","","","","Images/WhiteBeadChoice.png","null"
"image-keyboard-response","337","903891","0.0-4.0-2.105","6","Low_HMMActual","null","","","","Images/WhiteBeadChoiceWrong.png","null"
"image-keyboard-response","338","904709","0.0-4.0-0.106","6","Low_HMMActual","816.9599999964703","","","","Images/NewTrialBC.png","39"
"image-keyboard-response","339","904960","0.0-4.0-1.106","6","Low_HMMActual","null","","","","Images/WhiteBeadChoice.png","null"
"image-keyboard-response","340","905462","0.0-4.0-2.106","6","Low_HMMActual","null","","","","Images/WhiteBeadChoiceCorrect.png","null"
"image-keyboard-response","341","905777","0.0-4.0-0.107","6","Low_HMMActual","313.8299999991432","","","","Images/NewTrialWC.png","39"
"image-keyboard-response","342","906027","0.0-4.0-1.107","6","Low_HMMActual","null","","","","Images/WhiteBeadChoice.png","null"
"image-keyboard-response","343","906529","0.0-4.0-2.107","6","Low_HMMActual","null","","","","Images/WhiteBeadChoiceCorrect.png","null"
"image-keyboard-response","344","907155","0.0-4.0-0.108","6","Low_HMMActual","625.8650000090711","","","","Images/NewTrialWC.png","37"
"image-keyboard-response","345","907406","0.0-4.0-1.108","6","Low_HMMActual","null","","","","Images/BlackBeadChoice.png","null"
"image-keyboard-response","346","907907","0.0-4.0-2.108","6","Low_HMMActual","null","","","","Images/BlackBeadChoiceWrong.png","null"
"image-keyboard-response","347","908740","0.0-4.0-0.109","6","Low_HMMActual","832.269999984419","","","","Images/NewTrialWC.png","39"
"image-keyboard-response","348","908992","0.0-4.0-1.109","6","Low_HMMActual","null","","","","Images/WhiteBeadChoice.png","null"
"image-keyboard-response","349","909493","0.0-4.0-2.109","6","Low_HMMActual","null","","","","Images/WhiteBeadChoiceCorrect.png","null"
"image-keyboard-response","350","910621","0.0-4.0-0.110","6","Low_HMMActual","1126.6100000066217","","","","Images/NewTrialWC.png","37"
"image-keyboard-response","351","910872","0.0-4.0-1.110","6","Low_HMMActual","null","","","","Images/BlackBeadChoice.png","null"
"image-keyboard-response","352","911373","0.0-4.0-2.110","6","Low_HMMActual","null","","","","Images/BlackBeadChoiceWrong.png","null"
"image-keyboard-response","353","911745","0.0-4.0-0.111","6","Low_HMMActual","370.73000002419576","","","","Images/NewTrialWC.png","39"
"image-keyboard-response","354","911996","0.0-4.0-1.111","6","Low_HMMActual","null","","","","Images/WhiteBeadChoice.png","null"
"image-keyboard-response","355","912497","0.0-4.0-2.111","6","Low_HMMActual","null","","","","Images/WhiteBeadChoiceCorrect.png","null"
"image-keyboard-response","356","912878","0.0-4.0-0.112","6","Low_HMMActual","381.1449999921024","","","","Images/NewTrialWC.png","39"
"image-keyboard-response","357","913130","0.0-4.0-1.112","6","Low_HMMActual","null","","","","Images/WhiteBeadChoice.png","null"
"image-keyboard-response","358","913631","0.0-4.0-2.112","6","Low_HMMActual","null","","","","Images/WhiteBeadChoiceCorrect.png","null"
"image-keyboard-response","359","914066","0.0-4.0-0.113","6","Low_HMMActual","434.43000002298504","","","","Images/NewTrialWC.png","39"
"image-keyboard-response","360","914317","0.0-4.0-1.113","6","Low_HMMActual","null","","","","Images/WhiteBeadChoice.png","null"
"image-keyboard-response","361","914818","0.0-4.0-2.113","6","Low_HMMActual","null","","","","Images/WhiteBeadChoiceCorrect.png","null"
"image-keyboard-response","362","915115","0.0-4.0-0.114","6","Low_HMMActual","296.9100000045728","","","","Images/NewTrialWC.png","39"
"image-keyboard-response","363","915366","0.0-4.0-1.114","6","Low_HMMActual","null","","","","Images/WhiteBeadChoice.png","null"
"image-keyboard-response","364","915869","0.0-4.0-2.114","6","Low_HMMActual","null","","","","Images/WhiteBeadChoiceCorrect.png","null"
"image-keyboard-response","365","916214","0.0-4.0-0.115","6","Low_HMMActual","344.3200000037905","","","","Images/NewTrialWC.png","39"
"image-keyboard-response","366","916465","0.0-4.0-1.115","6","Low_HMMActual","null","","","","Images/WhiteBeadChoice.png","null"
"image-keyboard-response","367","916966","0.0-4.0-2.115","6","Low_HMMActual","null","","","","Images/WhiteBeadChoiceCorrect.png","null"
"image-keyboard-response","368","917319","0.0-4.0-0.116","6","Low_HMMActual","352.84999999566935","","","","Images/NewTrialWC.png","39"
"image-keyboard-response","369","917570","0.0-4.0-1.116","6","Low_HMMActual","null","","","","Images/WhiteBeadChoice.png","null"
"image-keyboard-response","370","918072","0.0-4.0-2.116","6","Low_HMMActual","null","","","","Images/WhiteBeadChoiceCorrect.png","null"
"image-keyboard-response","371","918408","0.0-4.0-0.117","6","Low_HMMActual","334.9999999918509","","","","Images/NewTrialWC.png","39"
"image-keyboard-response","372","918660","0.0-4.0-1.117","6","Low_HMMActual","null","","","","Images/WhiteBeadChoice.png","null"
"image-keyboard-response","373","919162","0.0-4.0-2.117","6","Low_HMMActual","null","","","","Images/WhiteBeadChoiceCorrect.png","null"
"image-keyboard-response","374","919501","0.0-4.0-0.118","6","Low_HMMActual","338.194999989355","","","","Images/NewTrialWC.png","39"
"image-keyboard-response","375","919752","0.0-4.0-1.118","6","Low_HMMActual","null","","","","Images/WhiteBeadChoice.png","null"
"image-keyboard-response","376","920253","0.0-4.0-2.118","6","Low_HMMActual","null","","","","Images/WhiteBeadChoiceWrong.png","null"
"image-keyboard-response","377","920789","0.0-4.0-0.119","6","Low_HMMActual","534.8649999941699","","","","Images/NewTrialBC.png","37"
"image-keyboard-response","378","921039","0.0-4.0-1.119","6","Low_HMMActual","null","","","","Images/BlackBeadChoice.png","null"
"image-keyboard-response","379","921540","0.0-4.0-2.119","6","Low_HMMActual","null","","","","Images/BlackBeadChoiceCorrect.png","null"
"image-keyboard-response","380","921894","0.0-4.0-0.120","6","Low_HMMActual","353.3750000060536","","","","Images/NewTrialBC.png","37"
"image-keyboard-response","381","922145","0.0-4.0-1.120","6","Low_HMMActual","null","","","","Images/BlackBeadChoice.png","null"
"image-keyboard-response","382","922646","0.0-4.0-2.120","6","Low_HMMActual","null","","","","Images/BlackBeadChoiceWrong.png","null"
"image-keyboard-response","383","922786","0.0-4.0-0.121","6","Low_HMMActual","138.42500001192093","","","","Images/NewTrialWC.png","37"
"image-keyboard-response","384","923037","0.0-4.0-1.121","6","Low_HMMActual","null","","","","Images/BlackBeadChoice.png","null"
"image-keyboard-response","385","923538","0.0-4.0-2.121","6","Low_HMMActual","null","","","","Images/BlackBeadChoiceWrong.png","null"
"image-keyboard-response","386","923628","0.0-4.0-0.122","6","Low_HMMActual","89.26000000792556","","","","Images/NewTrialWC.png","37"
"image-keyboard-response","387","923880","0.0-4.0-1.122","6","Low_HMMActual","null","","","","Images/BlackBeadChoice.png","null"
"image-keyboard-response","388","924382","0.0-4.0-2.122","6","Low_HMMActual","null","","","","Images/BlackBeadChoiceWrong.png","null"
"image-keyboard-response","389","924666","0.0-4.0-0.123","6","Low_HMMActual","283.5600000107661","","","","Images/NewTrialWC.png","37"
"image-keyboard-response","390","924918","0.0-4.0-1.123","6","Low_HMMActual","null","","","","Images/BlackBeadChoice.png","null"
"image-keyboard-response","391","925419","0.0-4.0-2.123","6","Low_HMMActual","null","","","","Images/BlackBeadChoiceWrong.png","null"
"image-keyboard-response","392","925995","0.0-4.0-0.124","6","Low_HMMActual","575.5550000176299","","","","Images/NewTrialWC.png","39"
"image-keyboard-response","393","926246","0.0-4.0-1.124","6","Low_HMMActual","null","","","","Images/WhiteBeadChoice.png","null"
"image-keyboard-response","394","926747","0.0-4.0-2.124","6","Low_HMMActual","null","","","","Images/WhiteBeadChoiceCorrect.png","null"
"image-keyboard-response","395","927032","0.0-4.0-0.125","6","Low_HMMActual","283.6700000043493","","","","Images/NewTrialWC.png","39"
"image-keyboard-response","396","927283","0.0-4.0-1.125","6","Low_HMMActual","null","","","","Images/WhiteBeadChoice.png","null"
"image-keyboard-response","397","927784","0.0-4.0-2.125","6","Low_HMMActual","null","","","","Images/WhiteBeadChoiceWrong.png","null"
"image-keyboard-response","398","928509","0.0-4.0-0.126","6","Low_HMMActual","723.7250000180211","","","","Images/NewTrialBC.png","37"
"image-keyboard-response","399","928759","0.0-4.0-1.126","6","Low_HMMActual","null","","","","Images/BlackBeadChoice.png","null"
"image-keyboard-response","400","929260","0.0-4.0-2.126","6","Low_HMMActual","null","","","","Images/BlackBeadChoiceCorrect.png","null"
"image-keyboard-response","401","929524","0.0-4.0-0.127","6","Low_HMMActual","263.3800000185147","","","","Images/NewTrialBC.png","37"
"image-keyboard-response","402","929775","0.0-4.0-1.127","6","Low_HMMActual","null","","","","Images/BlackBeadChoice.png","null"
"image-keyboard-response","403","930276","0.0-4.0-2.127","6","Low_HMMActual","null","","","","Images/BlackBeadChoiceCorrect.png","null"
"image-keyboard-response","404","930819","0.0-4.0-0.128","6","Low_HMMActual","541.3549999939278","","","","Images/NewTrialBC.png","37"
"image-keyboard-response","405","931069","0.0-4.0-1.128","6","Low_HMMActual","null","","","","Images/BlackBeadChoice.png","null"
"image-keyboard-response","406","931570","0.0-4.0-2.128","6","Low_HMMActual","null","","","","Images/BlackBeadChoiceWrong.png","null"
"image-keyboard-response","407","932048","0.0-4.0-0.129","6","Low_HMMActual","477.06999999354593","","","","Images/NewTrialWC.png","39"
"image-keyboard-response","408","932298","0.0-4.0-1.129","6","Low_HMMActual","null","","","","Images/WhiteBeadChoice.png","null"
"image-keyboard-response","409","932800","0.0-4.0-2.129","6","Low_HMMActual","null","","","","Images/WhiteBeadChoiceWrong.png","null"
"image-keyboard-response","410","933167","0.0-4.0-0.130","6","Low_HMMActual","366.17999998270534","","","","Images/NewTrialBC.png","39"
"image-keyboard-response","411","933418","0.0-4.0-1.130","6","Low_HMMActual","null","","","","Images/WhiteBeadChoice.png","null"
"image-keyboard-response","412","933919","0.0-4.0-2.130","6","Low_HMMActual","null","","","","Images/WhiteBeadChoiceWrong.png","null"
"image-keyboard-response","413","934338","0.0-4.0-0.131","6","Low_HMMActual","418.3799999882467","","","","Images/NewTrialBC.png","39"
"image-keyboard-response","414","934588","0.0-4.0-1.131","6","Low_HMMActual","null","","","","Images/WhiteBeadChoice.png","null"
"image-keyboard-response","415","935089","0.0-4.0-2.131","6","Low_HMMActual","null","","","","Images/WhiteBeadChoiceCorrect.png","null"
"image-keyboard-response","416","935399","0.0-4.0-0.132","6","Low_HMMActual","308.84499999228865","","","","Images/NewTrialWC.png","39"
"image-keyboard-response","417","935650","0.0-4.0-1.132","6","Low_HMMActual","null","","","","Images/WhiteBeadChoice.png","null"
"image-keyboard-response","418","936151","0.0-4.0-2.132","6","Low_HMMActual","null","","","","Images/WhiteBeadChoiceWrong.png","null"
"image-keyboard-response","419","936443","0.0-4.0-0.133","6","Low_HMMActual","291.04999999981374","","","","Images/NewTrialBC.png","39"
"image-keyboard-response","420","936694","0.0-4.0-1.133","6","Low_HMMActual","null","","","","Images/WhiteBeadChoice.png","null"
"image-keyboard-response","421","937195","0.0-4.0-2.133","6","Low_HMMActual","null","","","","Images/WhiteBeadChoiceWrong.png","null"
"image-keyboard-response","422","937733","0.0-4.0-0.134","6","Low_HMMActual","537.5899999926332","","","","Images/NewTrialBC.png","37"
"image-keyboard-response","423","937984","0.0-4.0-1.134","6","Low_HMMActual","null","","","","Images/BlackBeadChoice.png","null"
"image-keyboard-response","424","938485","0.0-4.0-2.134","6","Low_HMMActual","null","","","","Images/BlackBeadChoiceCorrect.png","null"
"image-keyboard-response","425","938817","0.0-4.0-0.135","6","Low_HMMActual","331.4099999843165","","","","Images/NewTrialBC.png","37"
"image-keyboard-response","426","939069","0.0-4.0-1.135","6","Low_HMMActual","null","","","","Images/BlackBeadChoice.png","null"
"image-keyboard-response","427","939570","0.0-4.0-2.135","6","Low_HMMActual","null","","","","Images/BlackBeadChoiceCorrect.png","null"
"image-keyboard-response","428","940092","0.0-4.0-0.136","6","Low_HMMActual","520.890000014333","","","","Images/NewTrialBC.png","37"
"image-keyboard-response","429","940342","0.0-4.0-1.136","6","Low_HMMActual","null","","","","Images/BlackBeadChoice.png","null"
"image-keyboard-response","430","940843","0.0-4.0-2.136","6","Low_HMMActual","null","","","","Images/BlackBeadChoiceCorrect.png","null"
"image-keyboard-response","431","941284","0.0-4.0-0.137","6","Low_HMMActual","440.4199999989942","","","","Images/NewTrialBC.png","37"
"image-keyboard-response","432","941535","0.0-4.0-1.137","6","Low_HMMActual","null","","","","Images/BlackBeadChoice.png","null"
"image-keyboard-response","433","942036","0.0-4.0-2.137","6","Low_HMMActual","null","","","","Images/BlackBeadChoiceCorrect.png","null"
"image-keyboard-response","434","942405","0.0-4.0-0.138","6","Low_HMMActual","367.7449999959208","","","","Images/NewTrialBC.png","37"
"image-keyboard-response","435","942657","0.0-4.0-1.138","6","Low_HMMActual","null","","","","Images/BlackBeadChoice.png","null"
"image-keyboard-response","436","943158","0.0-4.0-2.138","6","Low_HMMActual","null","","","","Images/BlackBeadChoiceCorrect.png","null"
"image-keyboard-response","437","943557","0.0-4.0-0.139","6","Low_HMMActual","398.8450000179","","","","Images/NewTrialBC.png","37"
"image-keyboard-response","438","943808","0.0-4.0-1.139","6","Low_HMMActual","null","","","","Images/BlackBeadChoice.png","null"
"image-keyboard-response","439","944311","0.0-4.0-2.139","6","Low_HMMActual","null","","","","Images/BlackBeadChoiceCorrect.png","null"
"image-keyboard-response","440","944769","0.0-4.0-0.140","6","Low_HMMActual","457.5450000120327","","","","Images/NewTrialBC.png","37"
"image-keyboard-response","441","945020","0.0-4.0-1.140","6","Low_HMMActual","null","","","","Images/BlackBeadChoice.png","null"
"image-keyboard-response","442","945521","0.0-4.0-2.140","6","Low_HMMActual","null","","","","Images/BlackBeadChoiceCorrect.png","null"
"image-keyboard-response","443","945833","0.0-4.0-0.141","6","Low_HMMActual","311.2150000233669","","","","Images/NewTrialBC.png","37"
"image-keyboard-response","444","946084","0.0-4.0-1.141","6","Low_HMMActual","null","","","","Images/BlackBeadChoice.png","null"
"image-keyboard-response","445","946586","0.0-4.0-2.141","6","Low_HMMActual","null","","","","Images/BlackBeadChoiceCorrect.png","null"
"image-keyboard-response","446","946926","0.0-4.0-0.142","6","Low_HMMActual","339.380000019446","","","","Images/NewTrialBC.png","37"
"image-keyboard-response","447","947177","0.0-4.0-1.142","6","Low_HMMActual","null","","","","Images/BlackBeadChoice.png","null"
"image-keyboard-response","448","947679","0.0-4.0-2.142","6","Low_HMMActual","null","","","","Images/BlackBeadChoiceCorrect.png","null"
"image-keyboard-response","449","948199","0.0-4.0-0.143","6","Low_HMMActual","519.6099999884609","","","","Images/NewTrialBC.png","37"
"image-keyboard-response","450","948450","0.0-4.0-1.143","6","Low_HMMActual","null","","","","Images/BlackBeadChoice.png","null"
"image-keyboard-response","451","948951","0.0-4.0-2.143","6","Low_HMMActual","null","","","","Images/BlackBeadChoiceCorrect.png","null"
"image-keyboard-response","452","949318","0.0-4.0-0.144","6","Low_HMMActual","366.49499999475665","","","","Images/NewTrialBC.png","37"
"image-keyboard-response","453","949569","0.0-4.0-1.144","6","Low_HMMActual","null","","","","Images/BlackBeadChoice.png","null"
"image-keyboard-response","454","950070","0.0-4.0-2.144","6","Low_HMMActual","null","","","","Images/BlackBeadChoiceCorrect.png","null"
"image-keyboard-response","455","950473","0.0-4.0-0.145","6","Low_HMMActual","401.9100000150502","","","","Images/NewTrialBC.png","37"
"image-keyboard-response","456","950724","0.0-4.0-1.145","6","Low_HMMActual","null","","","","Images/BlackBeadChoice.png","null"
"image-keyboard-response","457","951226","0.0-4.0-2.145","6","Low_HMMActual","null","","","","Images/BlackBeadChoiceCorrect.png","null"
"image-keyboard-response","458","951612","0.0-4.0-0.146","6","Low_HMMActual","384.6649999904912","","","","Images/NewTrialBC.png","37"
"image-keyboard-response","459","951864","0.0-4.0-1.146","6","Low_HMMActual","null","","","","Images/BlackBeadChoice.png","null"
"image-keyboard-response","460","952364","0.0-4.0-2.146","6","Low_HMMActual","null","","","","Images/BlackBeadChoiceCorrect.png","null"
"image-keyboard-response","461","952779","0.0-4.0-0.147","6","Low_HMMActual","413.4100000082981","","","","Images/NewTrialBC.png","37"
"image-keyboard-response","462","953030","0.0-4.0-1.147","6","Low_HMMActual","null","","","","Images/BlackBeadChoice.png","null"
"image-keyboard-response","463","953531","0.0-4.0-2.147","6","Low_HMMActual","null","","","","Images/BlackBeadChoiceWrong.png","null"
"image-keyboard-response","464","955435","0.0-4.0-0.148","6","Low_HMMActual","1903.4450000035577","","","","Images/NewTrialWC.png","39"
"image-keyboard-response","465","955686","0.0-4.0-1.148","6","Low_HMMActual","null","","","","Images/WhiteBeadChoice.png","null"
"image-keyboard-response","466","956187","0.0-4.0-2.148","6","Low_HMMActual","null","","","","Images/WhiteBeadChoiceWrong.png","null"
"image-keyboard-response","467","956715","0.0-4.0-0.149","6","Low_HMMActual","527.7150000038091","","","","Images/NewTrialBC.png","37"
"image-keyboard-response","468","956968","0.0-4.0-1.149","6","Low_HMMActual","null","","","","Images/BlackBeadChoice.png","null"
"image-keyboard-response","469","957469","0.0-4.0-2.149","6","Low_HMMActual","null","","","","Images/BlackBeadChoiceCorrect.png","null"
"image-keyboard-response","470","957796","0.0-4.0-0.150","6","Low_HMMActual","326.2950000062119","","","","Images/NewTrialBC.png","37"
"image-keyboard-response","471","958047","0.0-4.0-1.150","6","Low_HMMActual","null","","","","Images/BlackBeadChoice.png","null"
"image-keyboard-response","472","958548","0.0-4.0-2.150","6","Low_HMMActual","null","","","","Images/BlackBeadChoiceCorrect.png","null"
"image-keyboard-response","473","958936","0.0-4.0-0.151","6","Low_HMMActual","388.0500000086613","","","","Images/NewTrialBC.png","37"
"image-keyboard-response","474","959188","0.0-4.0-1.151","6","Low_HMMActual","null","","","","Images/BlackBeadChoice.png","null"
"image-keyboard-response","475","959689","0.0-4.0-2.151","6","Low_HMMActual","null","","","","Images/BlackBeadChoiceCorrect.png","null"
"image-keyboard-response","476","960053","0.0-4.0-0.152","6","Low_HMMActual","363.8799999898765","","","","Images/NewTrialBC.png","37"
"image-keyboard-response","477","960304","0.0-4.0-1.152","6","Low_HMMActual","null","","","","Images/BlackBeadChoice.png","null"
"image-keyboard-response","478","960805","0.0-4.0-2.152","6","Low_HMMActual","null","","","","Images/BlackBeadChoiceCorrect.png","null"
"image-keyboard-response","479","961210","0.0-4.0-0.153","6","Low_HMMActual","403.8650000002235","","","","Images/NewTrialBC.png","37"
"image-keyboard-response","480","961460","0.0-4.0-1.153","6","Low_HMMActual","null","","","","Images/BlackBeadChoice.png","null"
"image-keyboard-response","481","961961","0.0-4.0-2.153","6","Low_HMMActual","null","","","","Images/BlackBeadChoiceCorrect.png","null"
"image-keyboard-response","482","962250","0.0-4.0-0.154","6","Low_HMMActual","288.10500001418404","","","","Images/NewTrialBC.png","37"
"image-keyboard-response","483","962501","0.0-4.0-1.154","6","Low_HMMActual","null","","","","Images/BlackBeadChoice.png","null"
"image-keyboard-response","484","963004","0.0-4.0-2.154","6","Low_HMMActual","null","","","","Images/BlackBeadChoiceCorrect.png","null"
"image-keyboard-response","485","963265","0.0-4.0-0.155","6","Low_HMMActual","259.66999999945983","","","","Images/NewTrialBC.png","37"
"image-keyboard-response","486","963515","0.0-4.0-1.155","6","Low_HMMActual","null","","","","Images/BlackBeadChoice.png","null"
"image-keyboard-response","487","964016","0.0-4.0-2.155","6","Low_HMMActual","null","","","","Images/BlackBeadChoiceCorrect.png","null"
"image-keyboard-response","488","964229","0.0-4.0-0.156","6","Low_HMMActual","211.50000000488944","","","","Images/NewTrialBC.png","37"
"image-keyboard-response","489","964480","0.0-4.0-1.156","6","Low_HMMActual","null","","","","Images/BlackBeadChoice.png","null"
"image-keyboard-response","490","964981","0.0-4.0-2.156","6","Low_HMMActual","null","","","","Images/BlackBeadChoiceCorrect.png","null"
"image-keyboard-response","491","965136","0.0-4.0-0.157","6","Low_HMMActual","154.3649999948684","","","","Images/NewTrialBC.png","37"
"image-keyboard-response","492","965388","0.0-4.0-1.157","6","Low_HMMActual","null","","","","Images/BlackBeadChoice.png","null"
"image-keyboard-response","493","965891","0.0-4.0-2.157","6","Low_HMMActual","null","","","","Images/BlackBeadChoiceCorrect.png","null"
"image-keyboard-response","494","966066","0.0-4.0-0.158","6","Low_HMMActual","174.284999986412","","","","Images/NewTrialBC.png","37"
"image-keyboard-response","495","966317","0.0-4.0-1.158","6","Low_HMMActual","null","","","","Images/BlackBeadChoice.png","null"
"image-keyboard-response","496","966819","0.0-4.0-2.158","6","Low_HMMActual","null","","","","Images/BlackBeadChoiceCorrect.png","null"
"image-keyboard-response","497","966993","0.0-4.0-0.159","6","Low_HMMActual","173.62999997567385","","","","Images/NewTrialBC.png","37"
"image-keyboard-response","498","967245","0.0-4.0-1.159","6","Low_HMMActual","null","","","","Images/BlackBeadChoice.png","null"
"image-keyboard-response","499","967746","0.0-4.0-2.159","6","Low_HMMActual","null","","","","Images/BlackBeadChoiceWrong.png","null"
"image-keyboard-response","500","968413","0.0-4.0-0.160","6","Low_HMMActual","666.365000011865","","","","Images/NewTrialWC.png","39"
"image-keyboard-response","501","968664","0.0-4.0-1.160","6","Low_HMMActual","null","","","","Images/WhiteBeadChoice.png","null"
"image-keyboard-response","502","969165","0.0-4.0-2.160","6","Low_HMMActual","471.53999999864027","","","","Images/WhiteBeadChoiceWrong.png","39"
"image-keyboard-response","503","969689","0.0-4.0-0.161","6","Low_HMMActual","523.2249999826308","","","","Images/NewTrialBC.png","39"
"image-keyboard-response","504","969940","0.0-4.0-1.161","6","Low_HMMActual","null","","","","Images/WhiteBeadChoice.png","null"
"image-keyboard-response","505","970441","0.0-4.0-2.161","6","Low_HMMActual","379.97000000905246","","","","Images/WhiteBeadChoiceWrong.png","39"
"image-keyboard-response","506","970840","0.0-4.0-0.162","6","Low_HMMActual","397.65499997884035","","","","Images/NewTrialBC.png","39"
"image-keyboard-response","507","971091","0.0-4.0-1.162","6","Low_HMMActual","null","","","","Images/WhiteBeadChoice.png","null"
"image-keyboard-response","508","971592","0.0-4.0-2.162","6","Low_HMMActual","null","","","","Images/WhiteBeadChoiceWrong.png","null"
"image-keyboard-response","509","972029","0.0-4.0-0.163","6","Low_HMMActual","437.04499999876134","","","","Images/NewTrialBC.png","37"
"image-keyboard-response","510","972280","0.0-4.0-1.163","6","Low_HMMActual","null","","","","Images/BlackBeadChoice.png","null"
"image-keyboard-response","511","972781","0.0-4.0-2.163","6","Low_HMMActual","null","","","","Images/BlackBeadChoiceCorrect.png","null"
"image-keyboard-response","512","972865","0.0-4.0-0.164","6","Low_HMMActual","82.86500000394881","","","","Images/NewTrialBC.png","37"
"image-keyboard-response","513","973116","0.0-4.0-1.164","6","Low_HMMActual","null","","","","Images/BlackBeadChoice.png","null"
"image-keyboard-response","514","973617","0.0-4.0-2.164","6","Low_HMMActual","null","","","","Images/BlackBeadChoiceCorrect.png","null"
"image-keyboard-response","515","974273","0.0-4.0-0.165","6","Low_HMMActual","655.3800000110641","","","","Images/NewTrialBC.png","37"
"image-keyboard-response","516","974524","0.0-4.0-1.165","6","Low_HMMActual","null","","","","Images/BlackBeadChoice.png","null"
"image-keyboard-response","517","975026","0.0-4.0-2.165","6","Low_HMMActual","null","","","","Images/BlackBeadChoiceCorrect.png","null"
"image-keyboard-response","518","975847","0.0-4.0-0.166","6","Low_HMMActual","819.8400000110269","","","","Images/NewTrialBC.png","37"
"image-keyboard-response","519","976099","0.0-4.0-1.166","6","Low_HMMActual","null","","","","Images/BlackBeadChoice.png","null"
"image-keyboard-response","520","976601","0.0-4.0-2.166","6","Low_HMMActual","null","","","","Images/BlackBeadChoiceCorrect.png","null"
"image-keyboard-response","521","976766","0.0-4.0-0.167","6","Low_HMMActual","164.50000001350418","","","","Images/NewTrialBC.png","37"
"image-keyboard-response","522","977018","0.0-4.0-1.167","6","Low_HMMActual","null","","","","Images/BlackBeadChoice.png","null"
"image-keyboard-response","523","977519","0.0-4.0-2.167","6","Low_HMMActual","null","","","","Images/BlackBeadChoiceWrong.png","null"
"image-keyboard-response","524","977657","0.0-4.0-0.168","6","Low_HMMActual","136.50000002235174","","","","Images/NewTrialWC.png","37"
"image-keyboard-response","525","977908","0.0-4.0-1.168","6","Low_HMMActual","null","","","","Images/BlackBeadChoice.png","null"
"image-keyboard-response","526","978409","0.0-4.0-2.168","6","Low_HMMActual","null","","","","Images/BlackBeadChoiceCorrect.png","null"
"image-keyboard-response","527","978727","0.0-4.0-0.169","6","Low_HMMActual","317.239999974845","","","","Images/NewTrialBC.png","37"
"image-keyboard-response","528","978979","0.0-4.0-1.169","6","Low_HMMActual","null","","","","Images/BlackBeadChoice.png","null"
"image-keyboard-response","529","979480","0.0-4.0-2.169","6","Low_HMMActual","null","","","","Images/BlackBeadChoiceCorrect.png","null"
"image-keyboard-response","530","979889","0.0-4.0-0.170","6","Low_HMMActual","408.72499998658895","","","","Images/NewTrialBC.png","37"
"image-keyboard-response","531","980142","0.0-4.0-1.170","6","Low_HMMActual","null","","","","Images/BlackBeadChoice.png","null"
"image-keyboard-response","532","980642","0.0-4.0-2.170","6","Low_HMMActual","null","","","","Images/BlackBeadChoiceCorrect.png","null"
"image-keyboard-response","533","980997","0.0-4.0-0.171","6","Low_HMMActual","354.2299999971874","","","","Images/NewTrialBC.png","37"
"image-keyboard-response","534","981248","0.0-4.0-1.171","6","Low_HMMActual","null","","","","Images/BlackBeadChoice.png","null"
"image-keyboard-response","535","981750","0.0-4.0-2.171","6","Low_HMMActual","null","","","","Images/BlackBeadChoiceCorrect.png","null"
"image-keyboard-response","536","982261","0.0-4.0-0.172","6","Low_HMMActual","510.1099999737926","","","","Images/NewTrialBC.png","37"
"image-keyboard-response","537","982512","0.0-4.0-1.172","6","Low_HMMActual","null","","","","Images/BlackBeadChoice.png","null"
"image-keyboard-response","538","983013","0.0-4.0-2.172","6","Low_HMMActual","null","","","","Images/BlackBeadChoiceCorrect.png","null"
"image-keyboard-response","539","983309","0.0-4.0-0.173","6","Low_HMMActual","295.14000000199303","","","","Images/NewTrialBC.png","37"
"image-keyboard-response","540","983560","0.0-4.0-1.173","6","Low_HMMActual","null","","","","Images/BlackBeadChoice.png","null"
"image-keyboard-response","541","984061","0.0-4.0-2.173","6","Low_HMMActual","null","","","","Images/BlackBeadChoiceCorrect.png","null"
"image-keyboard-response","542","984406","0.0-4.0-0.174","6","Low_HMMActual","344.27999999024905","","","","Images/NewTrialBC.png","37"
"image-keyboard-response","543","984658","0.0-4.0-1.174","6","Low_HMMActual","null","","","","Images/BlackBeadChoice.png","null"
"image-keyboard-response","544","985159","0.0-4.0-2.174","6","Low_HMMActual","null","","","","Images/BlackBeadChoiceWrong.png","null"
"image-keyboard-response","545","985233","0.0-4.0-0.175","6","Low_HMMActual","73.36999999824911","","","","Images/NewTrialWC.png","37"
"image-keyboard-response","546","985484","0.0-4.0-1.175","6","Low_HMMActual","null","","","","Images/BlackBeadChoice.png","null"
"image-keyboard-response","547","985985","0.0-4.0-2.175","6","Low_HMMActual","444.74500001524575","","","","Images/BlackBeadChoiceWrong.png","37"
"image-keyboard-response","548","986569","0.0-4.0-0.176","6","Low_HMMActual","582.8050000127405","","","","Images/NewTrialWC.png","37"
"image-keyboard-response","549","986819","0.0-4.0-1.176","6","Low_HMMActual","null","","","","Images/BlackBeadChoice.png","null"
"image-keyboard-response","550","987322","0.0-4.0-2.176","6","Low_HMMActual","null","","","","Images/BlackBeadChoiceCorrect.png","null"
"image-keyboard-response","551","987502","0.0-4.0-0.177","6","Low_HMMActual","179.79000002378598","","","","Images/NewTrialBC.png","37"
"image-keyboard-response","552","987753","0.0-4.0-1.177","6","Low_HMMActual","null","","","","Images/BlackBeadChoice.png","null"
"image-keyboard-response","553","988255","0.0-4.0-2.177","6","Low_HMMActual","null","","","","Images/BlackBeadChoiceCorrect.png","null"
"image-keyboard-response","554","988428","0.0-4.0-0.178","6","Low_HMMActual","171.9100000045728","","","","Images/NewTrialBC.png","37"
"image-keyboard-response","555","988678","0.0-4.0-1.178","6","Low_HMMActual","null","","","","Images/BlackBeadChoice.png","null"
"image-keyboard-response","556","989180","0.0-4.0-2.178","6","Low_HMMActual","null","","","","Images/BlackBeadChoiceWrong.png","null"
"image-keyboard-response","557","989339","0.0-4.0-0.179","6","Low_HMMActual","158.49500001058914","","","","Images/NewTrialWC.png","37"
"image-keyboard-response","558","989590","0.0-4.0-1.179","6","Low_HMMActual","null","","","","Images/BlackBeadChoice.png","null"
"image-keyboard-response","559","990091","0.0-4.0-2.179","6","Low_HMMActual","null","","","","Images/BlackBeadChoiceWrong.png","null"
"image-keyboard-response","560","990595","0.0-4.0-0.180","6","Low_HMMActual","503.2350000110455","","","","Images/NewTrialWC.png","39"
"image-keyboard-response","561","990847","0.0-4.0-1.180","6","Low_HMMActual","null","","","","Images/WhiteBeadChoice.png","null"
"image-keyboard-response","562","991349","0.0-4.0-2.180","6","Low_HMMActual","null","","","","Images/WhiteBeadChoiceCorrect.png","null"
"image-keyboard-response","563","991571","0.0-4.0-0.181","6","Low_HMMActual","220.57000000495464","","","","Images/NewTrialWC.png","39"
"image-keyboard-response","564","991823","0.0-4.0-1.181","6","Low_HMMActual","null","","","","Images/WhiteBeadChoice.png","null"
"image-keyboard-response","565","992324","0.0-4.0-2.181","6","Low_HMMActual","null","","","","Images/WhiteBeadChoiceWrong.png","null"
"image-keyboard-response","566","992602","0.0-4.0-0.182","6","Low_HMMActual","277.16999998665415","","","","Images/NewTrialBC.png","39"
"image-keyboard-response","567","992854","0.0-4.0-1.182","6","Low_HMMActual","null","","","","Images/WhiteBeadChoice.png","null"
"image-keyboard-response","568","993356","0.0-4.0-2.182","6","Low_HMMActual","null","","","","Images/WhiteBeadChoiceCorrect.png","null"
"image-keyboard-response","569","993896","0.0-4.0-0.183","6","Low_HMMActual","539.6100000070874","","","","Images/NewTrialWC.png","39"
"image-keyboard-response","570","994147","0.0-4.0-1.183","6","Low_HMMActual","null","","","","Images/WhiteBeadChoice.png","null"
"image-keyboard-response","571","994650","0.0-4.0-2.183","6","Low_HMMActual","null","","","","Images/WhiteBeadChoiceCorrect.png","null"
"image-keyboard-response","572","995062","0.0-4.0-0.184","6","Low_HMMActual","411.69999999692664","","","","Images/NewTrialWC.png","39"
"image-keyboard-response","573","995313","0.0-4.0-1.184","6","Low_HMMActual","null","","","","Images/WhiteBeadChoice.png","null"
"image-keyboard-response","574","995814","0.0-4.0-2.184","6","Low_HMMActual","null","","","","Images/WhiteBeadChoiceCorrect.png","null"
"image-keyboard-response","575","996135","0.0-4.0-0.185","6","Low_HMMActual","320.2000000164844","","","","Images/NewTrialWC.png","39"
"image-keyboard-response","576","996385","0.0-4.0-1.185","6","Low_HMMActual","null","","","","Images/WhiteBeadChoice.png","null"
"image-keyboard-response","577","996887","0.0-4.0-2.185","6","Low_HMMActual","null","","","","Images/WhiteBeadChoiceCorrect.png","null"
"image-keyboard-response","578","997207","0.0-4.0-0.186","6","Low_HMMActual","320.10499999159947","","","","Images/NewTrialWC.png","39"
"image-keyboard-response","579","997458","0.0-4.0-1.186","6","Low_HMMActual","null","","","","Images/WhiteBeadChoice.png","null"
"image-keyboard-response","580","997959","0.0-4.0-2.186","6","Low_HMMActual","null","","","","Images/WhiteBeadChoiceCorrect.png","null"
"image-keyboard-response","581","998392","0.0-4.0-0.187","6","Low_HMMActual","431.8900000071153","","","","Images/NewTrialWC.png","39"
"image-keyboard-response","582","998643","0.0-4.0-1.187","6","Low_HMMActual","null","","","","Images/WhiteBeadChoice.png","null"
"image-keyboard-response","583","999145","0.0-4.0-2.187","6","Low_HMMActual","null","","","","Images/WhiteBeadChoiceCorrect.png","null"
"image-keyboard-response","584","999512","0.0-4.0-0.188","6","Low_HMMActual","366.295000014361","","","","Images/NewTrialWC.png","39"
"image-keyboard-response","585","999762","0.0-4.0-1.188","6","Low_HMMActual","null","","","","Images/WhiteBeadChoice.png","null"
"image-keyboard-response","586","1000264","0.0-4.0-2.188","6","Low_HMMActual","null","","","","Images/WhiteBeadChoiceCorrect.png","null"
"image-keyboard-response","587","1000666","0.0-4.0-0.189","6","Low_HMMActual","400.9850000147708","","","","Images/NewTrialWC.png","39"
"image-keyboard-response","588","1000916","0.0-4.0-1.189","6","Low_HMMActual","null","","","","Images/WhiteBeadChoice.png","null"
"image-keyboard-response","589","1001418","0.0-4.0-2.189","6","Low_HMMActual","null","","","","Images/WhiteBeadChoiceCorrect.png","null"
"image-keyboard-response","590","1001855","0.0-4.0-0.190","6","Low_HMMActual","436.61500001326203","","","","Images/NewTrialWC.png","39"
"image-keyboard-response","591","1002108","0.0-4.0-1.190","6","Low_HMMActual","null","","","","Images/WhiteBeadChoice.png","null"
"image-keyboard-response","592","1002609","0.0-4.0-2.190","6","Low_HMMActual","null","","","","Images/WhiteBeadChoiceCorrect.png","null"
"image-keyboard-response","593","1003003","0.0-4.0-0.191","6","Low_HMMActual","392.89999997708946","","","","Images/NewTrialWC.png","39"
"image-keyboard-response","594","1003253","0.0-4.0-1.191","6","Low_HMMActual","null","","","","Images/WhiteBeadChoice.png","null"
"image-keyboard-response","595","1003754","0.0-4.0-2.191","6","Low_HMMActual","null","","","","Images/WhiteBeadChoiceCorrect.png","null"
"image-keyboard-response","596","1004221","0.0-4.0-0.192","6","Low_HMMActual","466.164999990724","","","","Images/NewTrialWC.png","39"
"image-keyboard-response","597","1004472","0.0-4.0-1.192","6","Low_HMMActual","null","","","","Images/WhiteBeadChoice.png","null"
"image-keyboard-response","598","1004974","0.0-4.0-2.192","6","Low_HMMActual","null","","","","Images/WhiteBeadChoiceCorrect.png","null"
"image-keyboard-response","599","1005383","0.0-4.0-0.193","6","Low_HMMActual","407.98499999800697","","","","Images/NewTrialWC.png","39"
"image-keyboard-response","600","1005635","0.0-4.0-1.193","6","Low_HMMActual","null","","","","Images/WhiteBeadChoice.png","null"
"image-keyboard-response","601","1006136","0.0-4.0-2.193","6","Low_HMMActual","null","","","","Images/WhiteBeadChoiceCorrect.png","null"
"image-keyboard-response","602","1006409","0.0-4.0-0.194","6","Low_HMMActual","271.94999999483116","","","","Images/NewTrialWC.png","39"
"image-keyboard-response","603","1006662","0.0-4.0-1.194","6","Low_HMMActual","null","","","","Images/WhiteBeadChoice.png","null"
"image-keyboard-response","604","1007163","0.0-4.0-2.194","6","Low_HMMActual","null","","","","Images/WhiteBeadChoiceWrong.png","null"
"image-keyboard-response","605","1007744","0.0-4.0-0.195","6","Low_HMMActual","579.6200000040699","","","","Images/NewTrialBC.png","37"
"image-keyboard-response","606","1007995","0.0-4.0-1.195","6","Low_HMMActual","null","","","","Images/BlackBeadChoice.png","null"
"image-keyboard-response","607","1008496","0.0-4.0-2.195","6","Low_HMMActual","null","","","","Images/BlackBeadChoiceWrong.png","null"
"image-keyboard-response","608","1009412","0.0-4.0-0.196","6","Low_HMMActual","914.9100000213366","","","","Images/NewTrialWC.png","37"
"image-keyboard-response","609","1009663","0.0-4.0-1.196","6","Low_HMMActual","null","","","","Images/BlackBeadChoice.png","null"
"image-keyboard-response","610","1010164","0.0-4.0-2.196","6","Low_HMMActual","null","","","","Images/BlackBeadChoiceWrong.png","null"
"image-keyboard-response","611","1010468","0.0-4.0-0.197","6","Low_HMMActual","303.16499999025837","","","","Images/NewTrialWC.png","39"
"image-keyboard-response","612","1010720","0.0-4.0-1.197","6","Low_HMMActual","null","","","","Images/WhiteBeadChoice.png","null"
"image-keyboard-response","613","1011222","0.0-4.0-2.197","6","Low_HMMActual","null","","","","Images/WhiteBeadChoiceWrong.png","null"
"image-keyboard-response","614","1011933","0.0-4.0-0.198","6","Low_HMMActual","710.0900000077672","","","","Images/NewTrialBC.png","37"
"image-keyboard-response","615","1012185","0.0-4.0-1.198","6","Low_HMMActual","null","","","","Images/BlackBeadChoice.png","null"
"image-keyboard-response","616","1012685","0.0-4.0-2.198","6","Low_HMMActual","null","","","","Images/BlackBeadChoiceCorrect.png","null"
"image-keyboard-response","617","1012959","0.0-4.0-0.199","6","Low_HMMActual","272.4449999805074","","","","Images/NewTrialBC.png","37"
"image-keyboard-response","618","1013209","0.0-4.0-1.199","6","Low_HMMActual","null","","","","Images/BlackBeadChoice.png","null"
"image-keyboard-response","619","1013711","0.0-4.0-2.199","6","Low_HMMActual","null","","","","Images/BlackBeadChoiceCorrect.png","null"
"image-keyboard-response","620","1014101","0.0-4.0-0.200","6","Low_HMMActual","388.6099999945145","","","","Images/NewTrialBC.png","37"
"image-keyboard-response","621","1014352","0.0-4.0-1.200","6","Low_HMMActual","null","","","","Images/BlackBeadChoice.png","null"
"image-keyboard-response","622","1014854","0.0-4.0-2.200","6","Low_HMMActual","null","","","","Images/BlackBeadChoiceCorrect.png","null"
"image-keyboard-response","623","1015115","0.0-4.0-0.201","6","Low_HMMActual","260.8399999735411","","","","Images/NewTrialBC.png","37"
"image-keyboard-response","624","1015367","0.0-4.0-1.201","6","Low_HMMActual","null","","","","Images/BlackBeadChoice.png","null"
"image-keyboard-response","625","1015868","0.0-4.0-2.201","6","Low_HMMActual","null","","","","Images/BlackBeadChoiceCorrect.png","null"
"image-keyboard-response","626","1016136","0.0-4.0-0.202","6","Low_HMMActual","267.01500001945533","","","","Images/NewTrialBC.png","37"
"image-keyboard-response","627","1016387","0.0-4.0-1.202","6","Low_HMMActual","null","","","","Images/BlackBeadChoice.png","null"
"image-keyboard-response","628","1016889","0.0-4.0-2.202","6","Low_HMMActual","null","","","","Images/BlackBeadChoiceWrong.png","null"
"image-keyboard-response","629","1017962","0.0-4.0-0.203","6","Low_HMMActual","1072.5450000027195","","","","Images/NewTrialWC.png","39"
"image-keyboard-response","630","1018214","0.0-4.0-1.203","6","Low_HMMActual","null","","","","Images/WhiteBeadChoice.png","null"
"image-keyboard-response","631","1018715","0.0-4.0-2.203","6","Low_HMMActual","null","","","","Images/WhiteBeadChoiceWrong.png","null"
"image-keyboard-response","632","1019693","0.0-4.0-0.204","6","Low_HMMActual","977.7400000020862","","","","Images/NewTrialBC.png","39"
"image-keyboard-response","633","1019944","0.0-4.0-1.204","6","Low_HMMActual","null","","","","Images/WhiteBeadChoice.png","null"
"image-keyboard-response","634","1020445","0.0-4.0-2.204","6","Low_HMMActual","null","","","","Images/WhiteBeadChoiceCorrect.png","null"
"image-keyboard-response","635","1020656","0.0-4.0-0.205","6","Low_HMMActual","210.31500000390224","","","","Images/NewTrialWC.png","39"
"image-keyboard-response","636","1020907","0.0-4.0-1.205","6","Low_HMMActual","null","","","","Images/WhiteBeadChoice.png","null"
"image-keyboard-response","637","1021408","0.0-4.0-2.205","6","Low_HMMActual","null","","","","Images/WhiteBeadChoiceWrong.png","null"
"image-keyboard-response","638","1022398","0.0-4.0-0.206","6","Low_HMMActual","989.3799999845214","","","","Images/NewTrialBC.png","37"
"image-keyboard-response","639","1022649","0.0-4.0-1.206","6","Low_HMMActual","null","","","","Images/BlackBeadChoice.png","null"
"image-keyboard-response","640","1023151","0.0-4.0-2.206","6","Low_HMMActual","null","","","","Images/BlackBeadChoiceWrong.png","null"
"image-keyboard-response","641","1023883","0.0-4.0-0.207","6","Low_HMMActual","731.9449999777135","","","","Images/NewTrialWC.png","39"
"image-keyboard-response","642","1024135","0.0-4.0-1.207","6","Low_HMMActual","null","","","","Images/WhiteBeadChoice.png","null"
"image-keyboard-response","643","1024637","0.0-4.0-2.207","6","Low_HMMActual","null","","","","Images/WhiteBeadChoiceCorrect.png","null"
"image-keyboard-response","644","1025230","0.0-4.0-0.208","6","Low_HMMActual","591.6499999875668","","","","Images/NewTrialWC.png","37"
"image-keyboard-response","645","1025481","0.0-4.0-1.208","6","Low_HMMActual","null","","","","Images/BlackBeadChoice.png","null"
"image-keyboard-response","646","1025982","0.0-4.0-2.208","6","Low_HMMActual","null","","","","Images/BlackBeadChoiceWrong.png","null"
"image-keyboard-response","647","1026690","0.0-4.0-0.209","6","Low_HMMActual","707.5299999851268","","","","Images/NewTrialWC.png","39"
"image-keyboard-response","648","1026942","0.0-4.0-1.209","6","Low_HMMActual","null","","","","Images/WhiteBeadChoice.png","null"
"image-keyboard-response","649","1027444","0.0-4.0-2.209","6","Low_HMMActual","null","","","","Images/WhiteBeadChoiceCorrect.png","null"
"image-keyboard-response","650","1027777","0.0-4.0-0.210","6","Low_HMMActual","332.4399999983143","","","","Images/NewTrialWC.png","39"
"image-keyboard-response","651","1028029","0.0-4.0-1.210","6","Low_HMMActual","null","","","","Images/WhiteBeadChoice.png","null"
"image-keyboard-response","652","1028530","0.0-4.0-2.210","6","Low_HMMActual","null","","","","Images/WhiteBeadChoiceCorrect.png","null"
"image-keyboard-response","653","1028699","0.0-4.0-0.211","6","Low_HMMActual","167.7800000179559","","","","Images/NewTrialWC.png","39"
"image-keyboard-response","654","1028951","0.0-4.0-1.211","6","Low_HMMActual","null","","","","Images/WhiteBeadChoice.png","null"
"image-keyboard-response","655","1029453","0.0-4.0-2.211","6","Low_HMMActual","null","","","","Images/WhiteBeadChoiceCorrect.png","null"
"image-keyboard-response","656","1029683","0.0-4.0-0.212","6","Low_HMMActual","229.42499999771826","","","","Images/NewTrialWC.png","39"
"image-keyboard-response","657","1029934","0.0-4.0-1.212","6","Low_HMMActual","null","","","","Images/WhiteBeadChoice.png","null"
"image-keyboard-response","658","1030435","0.0-4.0-2.212","6","Low_HMMActual","null","","","","Images/WhiteBeadChoiceCorrect.png","null"
"image-keyboard-response","659","1030708","0.0-4.0-0.213","6","Low_HMMActual","272.33999999589287","","","","Images/NewTrialWC.png","39"
"image-keyboard-response","660","1030959","0.0-4.0-1.213","6","Low_HMMActual","null","","","","Images/WhiteBeadChoice.png","null"
"image-keyboard-response","661","1031462","0.0-4.0-2.213","6","Low_HMMActual","null","","","","Images/WhiteBeadChoiceWrong.png","null"
"image-keyboard-response","662","1031958","0.0-4.0-0.214","6","Low_HMMActual","494.75499999243766","","","","Images/NewTrialBC.png","39"
"image-keyboard-response","663","1032208","0.0-4.0-1.214","6","Low_HMMActual","null","","","","Images/WhiteBeadChoice.png","null"
"image-keyboard-response","664","1032709","0.0-4.0-2.214","6","Low_HMMActual","null","","","","Images/WhiteBeadChoiceWrong.png","null"
"image-keyboard-response","665","1033454","0.0-4.0-0.215","6","Low_HMMActual","743.7600000121165","","","","Images/NewTrialBC.png","37"
"image-keyboard-response","666","1033705","0.0-4.0-1.215","6","Low_HMMActual","null","","","","Images/BlackBeadChoice.png","null"
"image-keyboard-response","667","1034207","0.0-4.0-2.215","6","Low_HMMActual","null","","","","Images/BlackBeadChoiceCorrect.png","null"
"image-keyboard-response","668","1034453","0.0-4.0-0.216","6","Low_HMMActual","245.744999992894","","","","Images/NewTrialBC.png","37"
"image-keyboard-response","669","1034704","0.0-4.0-1.216","6","Low_HMMActual","null","","","","Images/BlackBeadChoice.png","null"
"image-keyboard-response","670","1035205","0.0-4.0-2.216","6","Low_HMMActual","null","","","","Images/BlackBeadChoiceCorrect.png","null"
"image-keyboard-response","671","1035484","0.0-4.0-0.217","6","Low_HMMActual","277.92999998200685","","","","Images/NewTrialBC.png","37"
"image-keyboard-response","672","1035735","0.0-4.0-1.217","6","Low_HMMActual","null","","","","Images/BlackBeadChoice.png","null"
"image-keyboard-response","673","1036236","0.0-4.0-2.217","6","Low_HMMActual","null","","","","Images/BlackBeadChoiceCorrect.png","null"
"image-keyboard-response","674","1036498","0.0-4.0-0.218","6","Low_HMMActual","261.3149999815505","","","","Images/NewTrialBC.png","37"
"image-keyboard-response","675","1036750","0.0-4.0-1.218","6","Low_HMMActual","null","","","","Images/BlackBeadChoice.png","null"
"image-keyboard-response","676","1037251","0.0-4.0-2.218","6","Low_HMMActual","null","","","","Images/BlackBeadChoiceCorrect.png","null"
"image-keyboard-response","677","1037610","0.0-4.0-0.219","6","Low_HMMActual","358.27000002609566","","","","Images/NewTrialBC.png","37"
"image-keyboard-response","678","1037861","0.0-4.0-1.219","6","Low_HMMActual","null","","","","Images/BlackBeadChoice.png","null"
"image-keyboard-response","679","1038362","0.0-4.0-2.219","6","Low_HMMActual","null","","","","Images/BlackBeadChoiceCorrect.png","null"
"image-keyboard-response","680","1038622","0.0-4.0-0.220","6","Low_HMMActual","259.1899999824818","","","","Images/NewTrialBC.png","37"
"image-keyboard-response","681","1038873","0.0-4.0-1.220","6","Low_HMMActual","null","","","","Images/BlackBeadChoice.png","null"
"image-keyboard-response","682","1039374","0.0-4.0-2.220","6","Low_HMMActual","null","","","","Images/BlackBeadChoiceCorrect.png","null"
"image-keyboard-response","683","1039619","0.0-4.0-0.221","6","Low_HMMActual","243.82500001229346","","","","Images/NewTrialBC.png","37"
"image-keyboard-response","684","1039869","0.0-4.0-1.221","6","Low_HMMActual","null","","","","Images/BlackBeadChoice.png","null"
"image-keyboard-response","685","1040372","0.0-4.0-2.221","6","Low_HMMActual","null","","","","Images/BlackBeadChoiceCorrect.png","null"
"image-keyboard-response","686","1040617","0.0-4.0-0.222","6","Low_HMMActual","244.84500000835396","","","","Images/NewTrialBC.png","37"
"image-keyboard-response","687","1040869","0.0-4.0-1.222","6","Low_HMMActual","null","","","","Images/BlackBeadChoice.png","null"
"image-keyboard-response","688","1041370","0.0-4.0-2.222","6","Low_HMMActual","null","","","","Images/BlackBeadChoiceCorrect.png","null"
"image-keyboard-response","689","1041649","0.0-4.0-0.223","6","Low_HMMActual","278.0099999799859","","","","Images/NewTrialBC.png","37"
"image-keyboard-response","690","1041900","0.0-4.0-1.223","6","Low_HMMActual","null","","","","Images/BlackBeadChoice.png","null"
"image-keyboard-response","691","1042402","0.0-4.0-2.223","6","Low_HMMActual","null","","","","Images/BlackBeadChoiceCorrect.png","null"
"image-keyboard-response","692","1042695","0.0-4.0-0.224","6","Low_HMMActual","291.67999999481253","","","","Images/NewTrialBC.png","37"
"image-keyboard-response","693","1042947","0.0-4.0-1.224","6","Low_HMMActual","null","","","","Images/BlackBeadChoice.png","null"
"image-keyboard-response","694","1043448","0.0-4.0-2.224","6","Low_HMMActual","null","","","","Images/BlackBeadChoiceWrong.png","null"
"image-keyboard-response","695","1044155","0.0-4.0-0.225","6","Low_HMMActual","705.6949999823701","","","","Images/NewTrialWC.png","39"
"image-keyboard-response","696","1044406","0.0-4.0-1.225","6","Low_HMMActual","null","","","","Images/WhiteBeadChoice.png","null"
"image-keyboard-response","697","1044907","0.0-4.0-2.225","6","Low_HMMActual","null","","","","Images/WhiteBeadChoiceWrong.png","null"
"image-keyboard-response","698","1046814","0.0-4.0-0.226","6","Low_HMMActual","1906.9299999973737","","","","Images/NewTrialBC.png","37"
"image-keyboard-response","699","1047066","0.0-4.0-1.226","6","Low_HMMActual","null","","","","Images/BlackBeadChoice.png","null"
"image-keyboard-response","700","1047568","0.0-4.0-2.226","6","Low_HMMActual","null","","","","Images/BlackBeadChoiceCorrect.png","null"
"image-keyboard-response","701","1048010","0.0-4.0-0.227","6","Low_HMMActual","441.25499998335727","","","","Images/NewTrialBC.png","37"
"image-keyboard-response","702","1048261","0.0-4.0-1.227","6","Low_HMMActual","null","","","","Images/BlackBeadChoice.png","null"
"image-keyboard-response","703","1048763","0.0-4.0-2.227","6","Low_HMMActual","null","","","","Images/BlackBeadChoiceCorrect.png","null"
"image-keyboard-response","704","1048882","0.0-4.0-0.228","6","Low_HMMActual","117.5750000111293","","","","Images/NewTrialBC.png","37"
"image-keyboard-response","705","1049133","0.0-4.0-1.228","6","Low_HMMActual","null","","","","Images/BlackBeadChoice.png","null"
"image-keyboard-response","706","1049634","0.0-4.0-2.228","6","Low_HMMActual","491.0150000068825","","","","Images/BlackBeadChoiceCorrect.png","37"
"image-keyboard-response","707","1050230","0.0-4.0-0.229","6","Low_HMMActual","594.4600000220817","","","","Images/NewTrialBC.png","37"
"image-keyboard-response","708","1050481","0.0-4.0-1.229","6","Low_HMMActual","null","","","","Images/BlackBeadChoice.png","null"
"image-keyboard-response","709","1050982","0.0-4.0-2.229","6","Low_HMMActual","null","","","","Images/BlackBeadChoiceWrong.png","null"
"image-keyboard-response","710","1052473","0.0-4.0-0.230","6","Low_HMMActual","1490.3850000118837","","","","Images/NewTrialWC.png","39"
"image-keyboard-response","711","1052724","0.0-4.0-1.230","6","Low_HMMActual","null","","","","Images/WhiteBeadChoice.png","null"
"image-keyboard-response","712","1053225","0.0-4.0-2.230","6","Low_HMMActual","null","","","","Images/WhiteBeadChoiceWrong.png","null"
"image-keyboard-response","713","1053624","0.0-4.0-0.231","6","Low_HMMActual","398.4599999967031","","","","Images/NewTrialBC.png","39"
"image-keyboard-response","714","1053876","0.0-4.0-1.231","6","Low_HMMActual","null","","","","Images/WhiteBeadChoice.png","null"
"image-keyboard-response","715","1054377","0.0-4.0-2.231","6","Low_HMMActual","null","","","","Images/WhiteBeadChoiceWrong.png","null"
"image-keyboard-response","716","1054940","0.0-4.0-0.232","6","Low_HMMActual","562.4799999932293","","","","Images/NewTrialBC.png","37"
"image-keyboard-response","717","1055192","0.0-4.0-1.232","6","Low_HMMActual","null","","","","Images/BlackBeadChoice.png","null"
"image-keyboard-response","718","1055694","0.0-4.0-2.232","6","Low_HMMActual","null","","","","Images/BlackBeadChoiceCorrect.png","null"
"image-keyboard-response","719","1055695","0.0-4.0-0.233","6","Low_HMMActual","0.4299999854993075","","","","Images/NewTrialBC.png","37"
"image-keyboard-response","720","1055946","0.0-4.0-1.233","6","Low_HMMActual","null","","","","Images/BlackBeadChoice.png","null"
"image-keyboard-response","721","1056447","0.0-4.0-2.233","6","Low_HMMActual","null","","","","Images/BlackBeadChoiceWrong.png","null"
"image-keyboard-response","722","1057208","0.0-4.0-0.234","6","Low_HMMActual","760.2799999876879","","","","Images/NewTrialWC.png","39"
"image-keyboard-response","723","1057458","0.0-4.0-1.234","6","Low_HMMActual","null","","","","Images/WhiteBeadChoice.png","null"
"image-keyboard-response","724","1057959","0.0-4.0-2.234","6","Low_HMMActual","null","","","","Images/WhiteBeadChoiceCorrect.png","null"
"image-keyboard-response","725","1057993","0.0-4.0-0.235","6","Low_HMMActual","32.85000001778826","","","","Images/NewTrialWC.png","39"
"image-keyboard-response","726","1058244","0.0-4.0-1.235","6","Low_HMMActual","null","","","","Images/WhiteBeadChoice.png","null"
