"trial_type","trial_index","time_elapsed","internal_node_id","Script_Picker","Block_Type","rt","url","responses","question_order","stimulus","key_press"
"pavlovia","0","2","0.0-0.0","11","Low_HMMActual","","","","","",""
"external-html","1","5757","0.0-1.0-0.0","11","Low_HMMActual","5687.750000000051","consent.html","","","",""
"survey-multi-choice","2","15740","0.0-1.0-1.0","11","Low_HMMActual","9981.270000000222","","{""Q0"":""Male"",""Q1"":""White""}","[0,1]","",""
"survey-text","3","18844","0.0-1.0-2.0","11","Low_HMMActual","3101.5699999998105","","{""Q0"":""31""}","","",""
"survey-text","4","22139","0.0-1.0-3.0","11","Low_HMMActual","3193.760000000111","","{""Q0"":""5ec686d444972a06d9aeeffe""}","","",""
"html-keyboard-response","5","34044","0.0-2.0-0.0","11","Low_HMMActual","11802.504999999655","","","","<div class=""container"" style=""height:800px;width:800px;display:flex;flex-direction:column;justify-content:center;align-items:center;text-align:center;font-weight:normal;font-family:Arial;font-size:20px""><p>In this task you will see black or white beads being pulled from jars. <br><br>On each trial, a bead will be pulled from one of two jars. Once you see this bead, your goal is to predict the color of NEXT bead that will be pulled. <br> <br>Every time you correctly guess the color of the NEXT bead, you will get a point. <br><br>Press the SPACEBAR to continue.</p><div>","32"
"html-keyboard-response","6","44828","0.0-2.0-1.0","11","Low_HMMActual","10783.410000000003","","","","<div class=""container"" style=""height:800px;width:800px;display:flex;flex-direction:column;justify-content:center;align-items:center;text-align:center;font-weight:normal;font-family:Arial;font-size:20px""><p>Jars are filled with 85% white or black beads and 15% of the opposite color mixed in<br><br>Press the SPACEBAR to continue. </p><div>","32"
"image-keyboard-response","7","55149","0.0-2.0-2.0","11","Low_HMMActual","10319.760000000315","","","","resources/WhiteJar_HMM.png","32"
"image-keyboard-response","8","60373","0.0-2.0-3.0","11","Low_HMMActual","5223.160000000462","","","","resources/BlackJar_HMM.png","32"
"html-keyboard-response","9","65980","0.0-2.0-4.0","11","Low_HMMActual","5607.044999999751","","","","<div class=""container"" style=""height:800px;width:800px;display:flex;flex-direction:column;justify-content:center;align-items:center;text-align:center;font-weight:normal;font-family:Arial;font-size:20px""><p>There will be two blocks of trials. Each block will contain 500 trials. <br><br>Here are examples of what you will see on each trial.<br><br>Press the SPACEBAR to continue. </p><div>","32"
"image-keyboard-response","10","70356","0.0-2.0-5.0","11","Low_HMMActual","4375.065000000177","","","","Images/NoChoice.png","32"
"html-keyboard-response","11","88989","0.0-2.0-6.0","11","Low_HMMActual","18633.055000000226","","","","<div class=""container"" style=""height:800px;width:800px;display:flex;flex-direction:column;justify-content:center;align-items:center;text-align:center;font-weight:normal;font-family:Arial;font-size:20px""><p> The jar the beads are pulled from is NOT choosen at random on each trial.<br><br>After each prediction, there will be a chance that the jars will switch, and that the next bead will be pulled from the opposite jar as the previous trial.<br><br>In each block, the chance that a jar will switch will either be LOW (the jars will not switch very often), or HIGH (the jars will switch almost all the time).<br><br>At the start of each block, you will be told the probability that the jars will switch on each trial. This switch probability will stay constant throughout the block.<br><br>Press the SPACEBAR to continue. </p><div>","32"
"image-keyboard-response","12","100349","0.0-2.0-7.0","11","Low_HMMActual","11358.760000000068","","","","Images/TutorialWhiteJarDrawHMMC.png","32"
"image-keyboard-response","13","104869","0.0-2.0-8.0","11","Low_HMMActual","4519.769999999873","","","","Images/TutorialBlackJarDrawHMMC.png","32"
"image-keyboard-response","14","107972","0.0-2.0-9.0","11","Low_HMMActual","3102.5350000000035","","","","Images/TutorialBlackJarDrawHMMI.png","32"
"html-keyboard-response","15","121293","0.0-2.0-10.0","11","Low_HMMActual","13320.265000000305","","","","<div class=""container"" style=""height:800px;width:800px;display:flex;flex-direction:column;justify-content:center;align-items:center;text-align:center;font-weight:normal;font-family:Arial;font-size:20px""><p> As you observed, a white bead was pulled from a 85% white jar, the jars switched and a black bead was pulled from the 85% black jar, but then low-probability white bead was pulled from the 90% black jar. <br><br>In these mixed-jar blocks, you will first have to figure out which jar the current bead was pulled from, then use the jar switch probability to predict the color of the next bead.<br><br>Press SPACEBAR to conitnue.</p><div>","32"
"html-keyboard-response","16","124205","0.0-2.0-11.0","11","Low_HMMActual","2911.739999999554","","","","<div class=""container"" style=""height:800px;width:800px;display:flex;flex-direction:column;justify-content:center;align-items:center;text-align:center;font-weight:normal;font-family:Arial;font-size:20px""><p> You will now be given a 2 question quiz to make sure you understand the fundamentals. </p><div>","32"
"image-keyboard-response","17","134365","0.0-2.0-12.0","11","Low_HMMActual","10159.72499999954","","","","Images/TutorialQuestion1.png","39"
"image-keyboard-response","18","149493","0.0-2.0-13.0","11","Low_HMMActual","13095.77999999965","","","","Images/TutorialQuestion2.png","38"
"html-keyboard-response","19","160093","0.0-3.0","11","Low_HMMActual","7808.944999999774","","","","<div class=""container"" style=""height:800px;width:800px;display:flex;flex-direction:column;justify-content:center;align-items:center;text-align:center;font-weight:normal;font-family:Arial;font-size:20px""><p>Loading episode&hellip;</p><div>","32"
"image-keyboard-response","20","162492","0.0-4.0-0.0","11","Low_HMMActual","2398.2949999999546","","","","Images/NoChoice.png","39"
"image-keyboard-response","21","162744","0.0-4.0-1.0","11","Low_HMMActual","null","","","","Images/WhiteBeadChoice.png","null"
"image-keyboard-response","22","163246","0.0-4.0-2.0","11","Low_HMMActual","null","","","","Images/WhiteBeadChoiceWrong.png","null"
"image-keyboard-response","23","164620","0.0-4.0-0.1","11","Low_HMMActual","1373.7399999999907","","","","Images/NewTrialBC.png","39"
"image-keyboard-response","24","164872","0.0-4.0-1.1","11","Low_HMMActual","null","","","","Images/WhiteBeadChoice.png","null"
"image-keyboard-response","25","165373","0.0-4.0-2.1","11","Low_HMMActual","null","","","","Images/WhiteBeadChoiceWrong.png","null"
"image-keyboard-response","26","167156","0.0-4.0-0.2","11","Low_HMMActual","1783.1550000000861","","","","Images/NewTrialBC.png","39"
"image-keyboard-response","27","167407","0.0-4.0-1.2","11","Low_HMMActual","null","","","","Images/WhiteBeadChoice.png","null"
"image-keyboard-response","28","167909","0.0-4.0-2.2","11","Low_HMMActual","null","","","","Images/WhiteBeadChoiceWrong.png","null"
"image-keyboard-response","29","169516","0.0-4.0-0.3","11","Low_HMMActual","1606.2000000001863","","","","Images/NewTrialBC.png","39"
"image-keyboard-response","30","169767","0.0-4.0-1.3","11","Low_HMMActual","null","","","","Images/WhiteBeadChoice.png","null"
"image-keyboard-response","31","170269","0.0-4.0-2.3","11","Low_HMMActual","null","","","","Images/WhiteBeadChoiceWrong.png","null"
"image-keyboard-response","32","170748","0.0-4.0-0.4","11","Low_HMMActual","478.95499999960884","","","","Images/NewTrialBC.png","37"
"image-keyboard-response","33","171000","0.0-4.0-1.4","11","Low_HMMActual","null","","","","Images/BlackBeadChoice.png","null"
"image-keyboard-response","34","171502","0.0-4.0-2.4","11","Low_HMMActual","null","","","","Images/BlackBeadChoiceCorrect.png","null"
"image-keyboard-response","35","172028","0.0-4.0-0.5","11","Low_HMMActual","525.7750000000815","","","","Images/NewTrialBC.png","37"
"image-keyboard-response","36","172280","0.0-4.0-1.5","11","Low_HMMActual","null","","","","Images/BlackBeadChoice.png","null"
"image-keyboard-response","37","172782","0.0-4.0-2.5","11","Low_HMMActual","null","","","","Images/BlackBeadChoiceWrong.png","null"
"image-keyboard-response","38","172908","0.0-4.0-0.6","11","Low_HMMActual","125.26499999966472","","","","Images/NewTrialWC.png","39"
"image-keyboard-response","39","173159","0.0-4.0-1.6","11","Low_HMMActual","null","","","","Images/WhiteBeadChoice.png","null"
"image-keyboard-response","40","173661","0.0-4.0-2.6","11","Low_HMMActual","null","","","","Images/WhiteBeadChoiceWrong.png","null"
"image-keyboard-response","41","174332","0.0-4.0-0.7","11","Low_HMMActual","670.3649999999325","","","","Images/NewTrialBC.png","37"
"image-keyboard-response","42","174583","0.0-4.0-1.7","11","Low_HMMActual","null","","","","Images/BlackBeadChoice.png","null"
"image-keyboard-response","43","175085","0.0-4.0-2.7","11","Low_HMMActual","null","","","","Images/BlackBeadChoiceCorrect.png","null"
"image-keyboard-response","44","175564","0.0-4.0-0.8","11","Low_HMMActual","477.9750000006752","","","","Images/NewTrialBC.png","37"
"image-keyboard-response","45","175815","0.0-4.0-1.8","11","Low_HMMActual","null","","","","Images/BlackBeadChoice.png","null"
"image-keyboard-response","46","176317","0.0-4.0-2.8","11","Low_HMMActual","null","","","","Images/BlackBeadChoiceCorrect.png","null"
"image-keyboard-response","47","176924","0.0-4.0-0.9","11","Low_HMMActual","606.1150000004855","","","","Images/NewTrialBC.png","39"
"image-keyboard-response","48","177176","0.0-4.0-1.9","11","Low_HMMActual","null","","","","Images/WhiteBeadChoice.png","null"
"image-keyboard-response","49","177677","0.0-4.0-2.9","11","Low_HMMActual","null","","","","Images/WhiteBeadChoiceWrong.png","null"
"image-keyboard-response","50","178020","0.0-4.0-0.10","11","Low_HMMActual","342.2099999997881","","","","Images/NewTrialBC.png","37"
"image-keyboard-response","51","178272","0.0-4.0-1.10","11","Low_HMMActual","null","","","","Images/BlackBeadChoice.png","null"
"image-keyboard-response","52","178773","0.0-4.0-2.10","11","Low_HMMActual","null","","","","Images/BlackBeadChoiceCorrect.png","null"
"image-keyboard-response","53","179300","0.0-4.0-0.11","11","Low_HMMActual","525.6699999999837","","","","Images/NewTrialBC.png","37"
"image-keyboard-response","54","179551","0.0-4.0-1.11","11","Low_HMMActual","null","","","","Images/BlackBeadChoice.png","null"
"image-keyboard-response","55","180053","0.0-4.0-2.11","11","Low_HMMActual","null","","","","Images/BlackBeadChoiceCorrect.png","null"
"image-keyboard-response","56","180636","0.0-4.0-0.12","11","Low_HMMActual","582.0149999999558","","","","Images/NewTrialBC.png","37"
"image-keyboard-response","57","180887","0.0-4.0-1.12","11","Low_HMMActual","null","","","","Images/BlackBeadChoice.png","null"
"image-keyboard-response","58","181388","0.0-4.0-2.12","11","Low_HMMActual","null","","","","Images/BlackBeadChoiceCorrect.png","null"
"image-keyboard-response","59","182045","0.0-4.0-0.13","11","Low_HMMActual","655.7099999999919","","","","Images/NewTrialBC.png","37"
"image-keyboard-response","60","182296","0.0-4.0-1.13","11","Low_HMMActual","null","","","","Images/BlackBeadChoice.png","null"
"image-keyboard-response","61","182798","0.0-4.0-2.13","11","Low_HMMActual","null","","","","Images/BlackBeadChoiceCorrect.png","null"
"image-keyboard-response","62","183565","0.0-4.0-0.14","11","Low_HMMActual","766.3350000002538","","","","Images/NewTrialBC.png","37"
"image-keyboard-response","63","183816","0.0-4.0-1.14","11","Low_HMMActual","null","","","","Images/BlackBeadChoice.png","null"
"image-keyboard-response","64","184318","0.0-4.0-2.14","11","Low_HMMActual","null","","","","Images/BlackBeadChoiceCorrect.png","null"
"image-keyboard-response","65","185109","0.0-4.0-0.15","11","Low_HMMActual","790.1549999996787","","","","Images/NewTrialBC.png","37"
"image-keyboard-response","66","185360","0.0-4.0-1.15","11","Low_HMMActual","null","","","","Images/BlackBeadChoice.png","null"
"image-keyboard-response","67","185862","0.0-4.0-2.15","11","Low_HMMActual","null","","","","Images/BlackBeadChoiceWrong.png","null"
"image-keyboard-response","68","187884","0.0-4.0-0.16","11","Low_HMMActual","2021.5500000003958","","","","Images/NewTrialWC.png","39"
"image-keyboard-response","69","188137","0.0-4.0-1.16","11","Low_HMMActual","null","","","","Images/WhiteBeadChoice.png","null"
"image-keyboard-response","70","188638","0.0-4.0-2.16","11","Low_HMMActual","null","","","","Images/WhiteBeadChoiceWrong.png","null"
"image-keyboard-response","71","189116","0.0-4.0-0.17","11","Low_HMMActual","477.0600000001723","","","","Images/NewTrialBC.png","37"
"image-keyboard-response","72","189367","0.0-4.0-1.17","11","Low_HMMActual","null","","","","Images/BlackBeadChoice.png","null"
"image-keyboard-response","73","189869","0.0-4.0-2.17","11","Low_HMMActual","null","","","","Images/BlackBeadChoiceCorrect.png","null"
"image-keyboard-response","74","190245","0.0-4.0-0.18","11","Low_HMMActual","375.03000000014435","","","","Images/NewTrialBC.png","37"
"image-keyboard-response","75","190496","0.0-4.0-1.18","11","Low_HMMActual","null","","","","Images/BlackBeadChoice.png","null"
"image-keyboard-response","76","190998","0.0-4.0-2.18","11","Low_HMMActual","null","","","","Images/BlackBeadChoiceCorrect.png","null"
"image-keyboard-response","77","191277","0.0-4.0-0.19","11","Low_HMMActual","278.0899999997928","","","","Images/NewTrialBC.png","37"
"image-keyboard-response","78","191528","0.0-4.0-1.19","11","Low_HMMActual","null","","","","Images/BlackBeadChoice.png","null"
"image-keyboard-response","79","192029","0.0-4.0-2.19","11","Low_HMMActual","null","","","","Images/BlackBeadChoiceWrong.png","null"
"image-keyboard-response","80","192716","0.0-4.0-0.20","11","Low_HMMActual","686.625000000291","","","","Images/NewTrialWC.png","37"
"image-keyboard-response","81","192968","0.0-4.0-1.20","11","Low_HMMActual","null","","","","Images/BlackBeadChoice.png","null"
"image-keyboard-response","82","193469","0.0-4.0-2.20","11","Low_HMMActual","null","","","","Images/BlackBeadChoiceCorrect.png","null"
"image-keyboard-response","83","193989","0.0-4.0-0.21","11","Low_HMMActual","518.5700000001816","","","","Images/NewTrialBC.png","37"
"image-keyboard-response","84","194240","0.0-4.0-1.21","11","Low_HMMActual","null","","","","Images/BlackBeadChoice.png","null"
"image-keyboard-response","85","194742","0.0-4.0-2.21","11","Low_HMMActual","null","","","","Images/BlackBeadChoiceCorrect.png","null"
"image-keyboard-response","86","195676","0.0-4.0-0.22","11","Low_HMMActual","933.7299999997485","","","","Images/NewTrialBC.png","37"
"image-keyboard-response","87","195928","0.0-4.0-1.22","11","Low_HMMActual","null","","","","Images/BlackBeadChoice.png","null"
"image-keyboard-response","88","196430","0.0-4.0-2.22","11","Low_HMMActual","null","","","","Images/BlackBeadChoiceCorrect.png","null"
"image-keyboard-response","89","241677","0.0-4.0-0.23","11","Low_HMMActual","45246.26999999961","","","","Images/NewTrialBC.png","37"
"image-keyboard-response","90","241929","0.0-4.0-1.23","11","Low_HMMActual","null","","","","Images/BlackBeadChoice.png","null"
"image-keyboard-response","91","242430","0.0-4.0-2.23","11","Low_HMMActual","null","","","","Images/BlackBeadChoiceCorrect.png","null"
"image-keyboard-response","92","242453","0.0-4.0-0.24","11","Low_HMMActual","21.669999999168795","","","","Images/NewTrialBC.png","37"
"image-keyboard-response","93","242704","0.0-4.0-1.24","11","Low_HMMActual","null","","","","Images/BlackBeadChoice.png","null"
"image-keyboard-response","94","243205","0.0-4.0-2.24","11","Low_HMMActual","null","","","","Images/BlackBeadChoiceCorrect.png","null"
"image-keyboard-response","95","243220","0.0-4.0-0.25","11","Low_HMMActual","14.089999999676365","","","","Images/NewTrialBC.png","37"
"image-keyboard-response","96","243472","0.0-4.0-1.25","11","Low_HMMActual","null","","","","Images/BlackBeadChoice.png","null"
"image-keyboard-response","97","243973","0.0-4.0-2.25","11","Low_HMMActual","null","","","","Images/BlackBeadChoiceCorrect.png","null"
"image-keyboard-response","98","244052","0.0-4.0-0.26","11","Low_HMMActual","78.41999999983818","","","","Images/NewTrialBC.png","37"
"image-keyboard-response","99","244303","0.0-4.0-1.26","11","Low_HMMActual","null","","","","Images/BlackBeadChoice.png","null"
"image-keyboard-response","100","244804","0.0-4.0-2.26","11","Low_HMMActual","null","","","","Images/BlackBeadChoiceCorrect.png","null"
"image-keyboard-response","101","245285","0.0-4.0-0.27","11","Low_HMMActual","479.8399999999674","","","","Images/NewTrialBC.png","37"
"image-keyboard-response","102","245536","0.0-4.0-1.27","11","Low_HMMActual","null","","","","Images/BlackBeadChoice.png","null"
"image-keyboard-response","103","246037","0.0-4.0-2.27","11","Low_HMMActual","null","","","","Images/BlackBeadChoiceCorrect.png","null"
"image-keyboard-response","104","248853","0.0-4.0-0.28","11","Low_HMMActual","2814.940000000206","","","","Images/NewTrialBC.png","37"
"image-keyboard-response","105","249104","0.0-4.0-1.28","11","Low_HMMActual","null","","","","Images/BlackBeadChoice.png","null"
"image-keyboard-response","106","249606","0.0-4.0-2.28","11","Low_HMMActual","null","","","","Images/BlackBeadChoiceWrong.png","null"
"image-keyboard-response","107","249973","0.0-4.0-0.29","11","Low_HMMActual","366.7700000005425","","","","Images/NewTrialWC.png","39"
"image-keyboard-response","108","250225","0.0-4.0-1.29","11","Low_HMMActual","null","","","","Images/WhiteBeadChoice.png","null"
"image-keyboard-response","109","250726","0.0-4.0-2.29","11","Low_HMMActual","null","","","","Images/WhiteBeadChoiceCorrect.png","null"
"image-keyboard-response","110","250925","0.0-4.0-0.30","11","Low_HMMActual","197.90999999985797","","","","Images/NewTrialWC.png","39"
"image-keyboard-response","111","251176","0.0-4.0-1.30","11","Low_HMMActual","null","","","","Images/WhiteBeadChoice.png","null"
"image-keyboard-response","112","251677","0.0-4.0-2.30","11","Low_HMMActual","339.52999999930034","","","","Images/WhiteBeadChoiceCorrect.png","39"
"image-keyboard-response","113","252044","0.0-4.0-0.31","11","Low_HMMActual","366.1899999997113","","","","Images/NewTrialWC.png","39"
"image-keyboard-response","114","252296","0.0-4.0-1.31","11","Low_HMMActual","null","","","","Images/WhiteBeadChoice.png","null"
"image-keyboard-response","115","252797","0.0-4.0-2.31","11","Low_HMMActual","356.23500000018976","","","","Images/WhiteBeadChoiceCorrect.png","39"
"image-keyboard-response","116","253253","0.0-4.0-0.32","11","Low_HMMActual","455.13999999914085","","","","Images/NewTrialWC.png","39"
"image-keyboard-response","117","253505","0.0-4.0-1.32","11","Low_HMMActual","null","","","","Images/WhiteBeadChoice.png","null"
"image-keyboard-response","118","254007","0.0-4.0-2.32","11","Low_HMMActual","null","","","","Images/WhiteBeadChoiceWrong.png","null"
"image-keyboard-response","119","254845","0.0-4.0-0.33","11","Low_HMMActual","837.4949999997625","","","","Images/NewTrialBC.png","39"
"image-keyboard-response","120","255096","0.0-4.0-1.33","11","Low_HMMActual","null","","","","Images/WhiteBeadChoice.png","null"
"image-keyboard-response","121","255598","0.0-4.0-2.33","11","Low_HMMActual","null","","","","Images/WhiteBeadChoiceWrong.png","null"
"image-keyboard-response","122","255813","0.0-4.0-0.34","11","Low_HMMActual","214.83499999975902","","","","Images/NewTrialBC.png","37"
"image-keyboard-response","123","256064","0.0-4.0-1.34","11","Low_HMMActual","null","","","","Images/BlackBeadChoice.png","null"
"image-keyboard-response","124","256566","0.0-4.0-2.34","11","Low_HMMActual","null","","","","Images/BlackBeadChoiceCorrect.png","null"
"image-keyboard-response","125","257061","0.0-4.0-0.35","11","Low_HMMActual","494.4750000004424","","","","Images/NewTrialBC.png","39"
"image-keyboard-response","126","257312","0.0-4.0-1.35","11","Low_HMMActual","null","","","","Images/WhiteBeadChoice.png","null"
"image-keyboard-response","127","257814","0.0-4.0-2.35","11","Low_HMMActual","null","","","","Images/WhiteBeadChoiceCorrect.png","null"
"image-keyboard-response","128","258653","0.0-4.0-0.36","11","Low_HMMActual","838.1499999995867","","","","Images/NewTrialWC.png","39"
"image-keyboard-response","129","258904","0.0-4.0-1.36","11","Low_HMMActual","null","","","","Images/WhiteBeadChoice.png","null"
"image-keyboard-response","130","259406","0.0-4.0-2.36","11","Low_HMMActual","null","","","","Images/WhiteBeadChoiceWrong.png","null"
"image-keyboard-response","131","259596","0.0-4.0-0.37","11","Low_HMMActual","189.9100000000617","","","","Images/NewTrialBC.png","37"
"image-keyboard-response","132","259847","0.0-4.0-1.37","11","Low_HMMActual","null","","","","Images/BlackBeadChoice.png","null"
"image-keyboard-response","133","260349","0.0-4.0-2.37","11","Low_HMMActual","null","","","","Images/BlackBeadChoiceWrong.png","null"
"image-keyboard-response","134","261260","0.0-4.0-0.38","11","Low_HMMActual","910.7300000004761","","","","Images/NewTrialWC.png","39"
"image-keyboard-response","135","261511","0.0-4.0-1.38","11","Low_HMMActual","null","","","","Images/WhiteBeadChoice.png","null"
"image-keyboard-response","136","262012","0.0-4.0-2.38","11","Low_HMMActual","null","","","","Images/WhiteBeadChoiceCorrect.png","null"
"image-keyboard-response","137","262165","0.0-4.0-0.39","11","Low_HMMActual","152.01999999955297","","","","Images/NewTrialWC.png","39"
"image-keyboard-response","138","262416","0.0-4.0-1.39","11","Low_HMMActual","null","","","","Images/WhiteBeadChoice.png","null"
"image-keyboard-response","139","262917","0.0-4.0-2.39","11","Low_HMMActual","null","","","","Images/WhiteBeadChoiceCorrect.png","null"
"image-keyboard-response","140","262948","0.0-4.0-0.40","11","Low_HMMActual","30.329999999550637","","","","Images/NewTrialWC.png","39"
"image-keyboard-response","141","263199","0.0-4.0-1.40","11","Low_HMMActual","null","","","","Images/WhiteBeadChoice.png","null"
"image-keyboard-response","142","263701","0.0-4.0-2.40","11","Low_HMMActual","null","","","","Images/WhiteBeadChoiceCorrect.png","null"
"image-keyboard-response","143","264116","0.0-4.0-0.41","11","Low_HMMActual","414.30500000022585","","","","Images/NewTrialWC.png","39"
"image-keyboard-response","144","264368","0.0-4.0-1.41","11","Low_HMMActual","null","","","","Images/WhiteBeadChoice.png","null"
"image-keyboard-response","145","264869","0.0-4.0-2.41","11","Low_HMMActual","null","","","","Images/WhiteBeadChoiceCorrect.png","null"
"image-keyboard-response","146","265188","0.0-4.0-0.42","11","Low_HMMActual","318.344999999681","","","","Images/NewTrialWC.png","39"
"image-keyboard-response","147","265440","0.0-4.0-1.42","11","Low_HMMActual","null","","","","Images/WhiteBeadChoice.png","null"
"image-keyboard-response","148","265941","0.0-4.0-2.42","11","Low_HMMActual","null","","","","Images/WhiteBeadChoiceCorrect.png","null"
"image-keyboard-response","149","266205","0.0-4.0-0.43","11","Low_HMMActual","263.1200000005192","","","","Images/NewTrialWC.png","39"
"image-keyboard-response","150","266456","0.0-4.0-1.43","11","Low_HMMActual","null","","","","Images/WhiteBeadChoice.png","null"
"image-keyboard-response","151","266958","0.0-4.0-2.43","11","Low_HMMActual","null","","","","Images/WhiteBeadChoiceCorrect.png","null"
"image-keyboard-response","152","267509","0.0-4.0-0.44","11","Low_HMMActual","549.6650000005029","","","","Images/NewTrialWC.png","39"
"image-keyboard-response","153","267760","0.0-4.0-1.44","11","Low_HMMActual","103.91500000056112","","","","Images/WhiteBeadChoice.png","37"
"image-keyboard-response","154","268261","0.0-4.0-2.44","11","Low_HMMActual","227.61500000068918","","","","Images/WhiteBeadChoiceCorrect.png","39"
"image-keyboard-response","155","268340","0.0-4.0-0.45","11","Low_HMMActual","78.70000000001164","","","","Images/NewTrialWC.png","39"
"image-keyboard-response","156","268592","0.0-4.0-1.45","11","Low_HMMActual","167.57499999948777","","","","Images/WhiteBeadChoice.png","39"
"image-keyboard-response","157","269093","0.0-4.0-2.45","11","Low_HMMActual","84.26999999937834","","","","Images/WhiteBeadChoiceCorrect.png","39"
"image-keyboard-response","158","269196","0.0-4.0-0.46","11","Low_HMMActual","102.63500000018394","","","","Images/NewTrialWC.png","39"
"image-keyboard-response","159","269448","0.0-4.0-1.46","11","Low_HMMActual","176.18000000040047","","","","Images/WhiteBeadChoice.png","39"
"image-keyboard-response","160","269949","0.0-4.0-2.46","11","Low_HMMActual","252.24999999953434","","","","Images/WhiteBeadChoiceCorrect.png","39"
"image-keyboard-response","161","270053","0.0-4.0-0.47","11","Low_HMMActual","102.76999999949476","","","","Images/NewTrialWC.png","39"
"image-keyboard-response","162","270305","0.0-4.0-1.47","11","Low_HMMActual","null","","","","Images/WhiteBeadChoice.png","null"
"image-keyboard-response","163","270806","0.0-4.0-2.47","11","Low_HMMActual","null","","","","Images/WhiteBeadChoiceCorrect.png","null"
"image-keyboard-response","164","271116","0.0-4.0-0.48","11","Low_HMMActual","309.32500000018626","","","","Images/NewTrialWC.png","39"
"image-keyboard-response","165","271367","0.0-4.0-1.48","11","Low_HMMActual","null","","","","Images/WhiteBeadChoice.png","null"
"image-keyboard-response","166","271869","0.0-4.0-2.48","11","Low_HMMActual","null","","","","Images/WhiteBeadChoiceWrong.png","null"
"image-keyboard-response","167","272461","0.0-4.0-0.49","11","Low_HMMActual","591.3950000003679","","","","Images/NewTrialBC.png","39"
"image-keyboard-response","168","272712","0.0-4.0-1.49","11","Low_HMMActual","null","","","","Images/WhiteBeadChoice.png","null"
"image-keyboard-response","169","273214","0.0-4.0-2.49","11","Low_HMMActual","null","","","","Images/WhiteBeadChoiceWrong.png","null"
"image-keyboard-response","170","273452","0.0-4.0-0.50","11","Low_HMMActual","238.11999999999534","","","","Images/NewTrialBC.png","37"
"image-keyboard-response","171","273704","0.0-4.0-1.50","11","Low_HMMActual","null","","","","Images/BlackBeadChoice.png","null"
"image-keyboard-response","172","274206","0.0-4.0-2.50","11","Low_HMMActual","null","","","","Images/BlackBeadChoiceWrong.png","null"
"image-keyboard-response","173","274516","0.0-4.0-0.51","11","Low_HMMActual","309.8900000004214","","","","Images/NewTrialWC.png","37"
"image-keyboard-response","174","274767","0.0-4.0-1.51","11","Low_HMMActual","null","","","","Images/BlackBeadChoice.png","null"
"image-keyboard-response","175","275268","0.0-4.0-2.51","11","Low_HMMActual","null","","","","Images/BlackBeadChoiceWrong.png","null"
"image-keyboard-response","176","275396","0.0-4.0-0.52","11","Low_HMMActual","127.5400000003865","","","","Images/NewTrialWC.png","39"
"image-keyboard-response","177","275648","0.0-4.0-1.52","11","Low_HMMActual","null","","","","Images/WhiteBeadChoice.png","null"
"image-keyboard-response","178","276149","0.0-4.0-2.52","11","Low_HMMActual","null","","","","Images/WhiteBeadChoiceCorrect.png","null"
"image-keyboard-response","179","276284","0.0-4.0-0.53","11","Low_HMMActual","134.40500000066822","","","","Images/NewTrialWC.png","39"
"image-keyboard-response","180","276535","0.0-4.0-1.53","11","Low_HMMActual","null","","","","Images/WhiteBeadChoice.png","null"
"image-keyboard-response","181","277037","0.0-4.0-2.53","11","Low_HMMActual","null","","","","Images/WhiteBeadChoiceCorrect.png","null"
"image-keyboard-response","182","277204","0.0-4.0-0.54","11","Low_HMMActual","166.66999999957625","","","","Images/NewTrialWC.png","39"
"image-keyboard-response","183","277456","0.0-4.0-1.54","11","Low_HMMActual","null","","","","Images/WhiteBeadChoice.png","null"
"image-keyboard-response","184","277957","0.0-4.0-2.54","11","Low_HMMActual","null","","","","Images/WhiteBeadChoiceCorrect.png","null"
"image-keyboard-response","185","278301","0.0-4.0-0.55","11","Low_HMMActual","343.13999999995576","","","","Images/NewTrialWC.png","39"
"image-keyboard-response","186","278552","0.0-4.0-1.55","11","Low_HMMActual","null","","","","Images/WhiteBeadChoice.png","null"
"image-keyboard-response","187","279054","0.0-4.0-2.55","11","Low_HMMActual","null","","","","Images/WhiteBeadChoiceCorrect.png","null"
"image-keyboard-response","188","279117","0.0-4.0-0.56","11","Low_HMMActual","61.90499999956228","","","","Images/NewTrialWC.png","39"
"image-keyboard-response","189","279368","0.0-4.0-1.56","11","Low_HMMActual","null","","","","Images/WhiteBeadChoice.png","null"
"image-keyboard-response","190","279870","0.0-4.0-2.56","11","Low_HMMActual","null","","","","Images/WhiteBeadChoiceCorrect.png","null"
"image-keyboard-response","191","279917","0.0-4.0-0.57","11","Low_HMMActual","46.13499999954365","","","","Images/NewTrialWC.png","39"
"image-keyboard-response","192","280168","0.0-4.0-1.57","11","Low_HMMActual","null","","","","Images/WhiteBeadChoice.png","null"
"image-keyboard-response","193","280669","0.0-4.0-2.57","11","Low_HMMActual","null","","","","Images/WhiteBeadChoiceCorrect.png","null"
"image-keyboard-response","194","280757","0.0-4.0-0.58","11","Low_HMMActual","86.52499999973224","","","","Images/NewTrialWC.png","39"
"image-keyboard-response","195","281008","0.0-4.0-1.58","11","Low_HMMActual","null","","","","Images/WhiteBeadChoice.png","null"
"image-keyboard-response","196","281510","0.0-4.0-2.58","11","Low_HMMActual","null","","","","Images/WhiteBeadChoiceWrong.png","null"
"image-keyboard-response","197","281533","0.0-4.0-0.59","11","Low_HMMActual","22.285000000032596","","","","Images/NewTrialBC.png","37"
"image-keyboard-response","198","281785","0.0-4.0-1.59","11","Low_HMMActual","null","","","","Images/BlackBeadChoice.png","null"
"image-keyboard-response","199","282287","0.0-4.0-2.59","11","Low_HMMActual","442.3099999994156","","","","Images/BlackBeadChoiceWrong.png","39"
"image-keyboard-response","200","282868","0.0-4.0-0.60","11","Low_HMMActual","580.3249999998952","","","","Images/NewTrialWC.png","39"
"image-keyboard-response","201","283120","0.0-4.0-1.60","11","Low_HMMActual","null","","","","Images/WhiteBeadChoice.png","null"
"image-keyboard-response","202","283622","0.0-4.0-2.60","11","Low_HMMActual","null","","","","Images/WhiteBeadChoiceCorrect.png","null"
"image-keyboard-response","203","283821","0.0-4.0-0.61","11","Low_HMMActual","198.2550000002957","","","","Images/NewTrialWC.png","39"
"image-keyboard-response","204","284072","0.0-4.0-1.61","11","Low_HMMActual","null","","","","Images/WhiteBeadChoice.png","null"
"image-keyboard-response","205","284574","0.0-4.0-2.61","11","Low_HMMActual","null","","","","Images/WhiteBeadChoiceWrong.png","null"
"image-keyboard-response","206","285124","0.0-4.0-0.62","11","Low_HMMActual","549.1449999999604","","","","Images/NewTrialBC.png","39"
"image-keyboard-response","207","285375","0.0-4.0-1.62","11","Low_HMMActual","null","","","","Images/WhiteBeadChoice.png","null"
"image-keyboard-response","208","285877","0.0-4.0-2.62","11","Low_HMMActual","null","","","","Images/WhiteBeadChoiceCorrect.png","null"
"image-keyboard-response","209","285973","0.0-4.0-0.63","11","Low_HMMActual","94.9600000003702","","","","Images/NewTrialWC.png","39"
"image-keyboard-response","210","286224","0.0-4.0-1.63","11","Low_HMMActual","null","","","","Images/WhiteBeadChoice.png","null"
"image-keyboard-response","211","286725","0.0-4.0-2.63","11","Low_HMMActual","null","","","","Images/WhiteBeadChoiceCorrect.png","null"
"image-keyboard-response","212","286781","0.0-4.0-0.64","11","Low_HMMActual","54.98999999964144","","","","Images/NewTrialWC.png","39"
"image-keyboard-response","213","287031","0.0-4.0-1.64","11","Low_HMMActual","null","","","","Images/WhiteBeadChoice.png","null"
"image-keyboard-response","214","287534","0.0-4.0-2.64","11","Low_HMMActual","null","","","","Images/WhiteBeadChoiceCorrect.png","null"
"image-keyboard-response","215","287564","0.0-4.0-0.65","11","Low_HMMActual","29.84999999991851","","","","Images/NewTrialWC.png","39"
"image-keyboard-response","216","287815","0.0-4.0-1.65","11","Low_HMMActual","null","","","","Images/WhiteBeadChoice.png","null"
"image-keyboard-response","217","288316","0.0-4.0-2.65","11","Low_HMMActual","null","","","","Images/WhiteBeadChoiceCorrect.png","null"
"image-keyboard-response","218","288525","0.0-4.0-0.66","11","Low_HMMActual","207.73999999981606","","","","Images/NewTrialWC.png","39"
"image-keyboard-response","219","288776","0.0-4.0-1.66","11","Low_HMMActual","null","","","","Images/WhiteBeadChoice.png","null"
"image-keyboard-response","220","289278","0.0-4.0-2.66","11","Low_HMMActual","null","","","","Images/WhiteBeadChoiceCorrect.png","null"
"image-keyboard-response","221","289348","0.0-4.0-0.67","11","Low_HMMActual","69.62499999918509","","","","Images/NewTrialWC.png","39"
"image-keyboard-response","222","289600","0.0-4.0-1.67","11","Low_HMMActual","null","","","","Images/WhiteBeadChoice.png","null"
"image-keyboard-response","223","290101","0.0-4.0-2.67","11","Low_HMMActual","null","","","","Images/WhiteBeadChoiceCorrect.png","null"
"image-keyboard-response","224","290300","0.0-4.0-0.68","11","Low_HMMActual","198.2799999996205","","","","Images/NewTrialWC.png","39"
"image-keyboard-response","225","290551","0.0-4.0-1.68","11","Low_HMMActual","null","","","","Images/WhiteBeadChoice.png","null"
"image-keyboard-response","226","291053","0.0-4.0-2.68","11","Low_HMMActual","null","","","","Images/WhiteBeadChoiceCorrect.png","null"
"image-keyboard-response","227","291381","0.0-4.0-0.69","11","Low_HMMActual","327.26499999989755","","","","Images/NewTrialWC.png","39"
"image-keyboard-response","228","291631","0.0-4.0-1.69","11","Low_HMMActual","null","","","","Images/WhiteBeadChoice.png","null"
"image-keyboard-response","229","292133","0.0-4.0-2.69","11","Low_HMMActual","null","","","","Images/WhiteBeadChoiceCorrect.png","null"
"image-keyboard-response","230","292492","0.0-4.0-0.70","11","Low_HMMActual","358.60999999934575","","","","Images/NewTrialWC.png","39"
"image-keyboard-response","231","292744","0.0-4.0-1.70","11","Low_HMMActual","null","","","","Images/WhiteBeadChoice.png","null"
"image-keyboard-response","232","293244","0.0-4.0-2.70","11","Low_HMMActual","null","","","","Images/WhiteBeadChoiceCorrect.png","null"
"image-keyboard-response","233","293436","0.0-4.0-0.71","11","Low_HMMActual","191.50999999960186","","","","Images/NewTrialWC.png","39"
"image-keyboard-response","234","293687","0.0-4.0-1.71","11","Low_HMMActual","null","","","","Images/WhiteBeadChoice.png","null"
"image-keyboard-response","235","294188","0.0-4.0-2.71","11","Low_HMMActual","null","","","","Images/WhiteBeadChoiceCorrect.png","null"
"image-keyboard-response","236","294916","0.0-4.0-0.72","11","Low_HMMActual","727.6649999994552","","","","Images/NewTrialWC.png","39"
"image-keyboard-response","237","295168","0.0-4.0-1.72","11","Low_HMMActual","null","","","","Images/WhiteBeadChoice.png","null"
"image-keyboard-response","238","295669","0.0-4.0-2.72","11","Low_HMMActual","null","","","","Images/WhiteBeadChoiceCorrect.png","null"
"image-keyboard-response","239","295981","0.0-4.0-0.73","11","Low_HMMActual","311.265000000305","","","","Images/NewTrialWC.png","39"
"image-keyboard-response","240","296231","0.0-4.0-1.73","11","Low_HMMActual","null","","","","Images/WhiteBeadChoice.png","null"
"image-keyboard-response","241","296733","0.0-4.0-2.73","11","Low_HMMActual","null","","","","Images/WhiteBeadChoiceCorrect.png","null"
"image-keyboard-response","242","296964","0.0-4.0-0.74","11","Low_HMMActual","231.31999999989057","","","","Images/NewTrialWC.png","39"
"image-keyboard-response","243","297215","0.0-4.0-1.74","11","Low_HMMActual","null","","","","Images/WhiteBeadChoice.png","null"
"image-keyboard-response","244","297718","0.0-4.0-2.74","11","Low_HMMActual","null","","","","Images/WhiteBeadChoiceCorrect.png","null"
"image-keyboard-response","245","297981","0.0-4.0-0.75","11","Low_HMMActual","262.5650000000023","","","","Images/NewTrialWC.png","39"
"image-keyboard-response","246","298232","0.0-4.0-1.75","11","Low_HMMActual","null","","","","Images/WhiteBeadChoice.png","null"
"image-keyboard-response","247","298734","0.0-4.0-2.75","11","Low_HMMActual","null","","","","Images/WhiteBeadChoiceCorrect.png","null"
"image-keyboard-response","248","299804","0.0-4.0-0.76","11","Low_HMMActual","1069.5000000005239","","","","Images/NewTrialWC.png","39"
"image-keyboard-response","249","300056","0.0-4.0-1.76","11","Low_HMMActual","null","","","","Images/WhiteBeadChoice.png","null"
"image-keyboard-response","250","300557","0.0-4.0-2.76","11","Low_HMMActual","null","","","","Images/WhiteBeadChoiceCorrect.png","null"
"image-keyboard-response","251","300813","0.0-4.0-0.77","11","Low_HMMActual","255.43500000005588","","","","Images/NewTrialWC.png","39"
"image-keyboard-response","252","301065","0.0-4.0-1.77","11","Low_HMMActual","null","","","","Images/WhiteBeadChoice.png","null"
"image-keyboard-response","253","301566","0.0-4.0-2.77","11","Low_HMMActual","null","","","","Images/WhiteBeadChoiceCorrect.png","null"
"image-keyboard-response","254","301860","0.0-4.0-0.78","11","Low_HMMActual","293.3000000002794","","","","Images/NewTrialWC.png","39"
"image-keyboard-response","255","302111","0.0-4.0-1.78","11","Low_HMMActual","null","","","","Images/WhiteBeadChoice.png","null"
"image-keyboard-response","256","302614","0.0-4.0-2.78","11","Low_HMMActual","null","","","","Images/WhiteBeadChoiceCorrect.png","null"
"image-keyboard-response","257","302733","0.0-4.0-0.79","11","Low_HMMActual","118.39500000042608","","","","Images/NewTrialWC.png","39"
"image-keyboard-response","258","302984","0.0-4.0-1.79","11","Low_HMMActual","null","","","","Images/WhiteBeadChoice.png","null"
"image-keyboard-response","259","303486","0.0-4.0-2.79","11","Low_HMMActual","null","","","","Images/WhiteBeadChoiceCorrect.png","null"
"image-keyboard-response","260","304493","0.0-4.0-0.80","11","Low_HMMActual","1006.2749999997322","","","","Images/NewTrialWC.png","39"
"image-keyboard-response","261","304744","0.0-4.0-1.80","11","Low_HMMActual","null","","","","Images/WhiteBeadChoice.png","null"
"image-keyboard-response","262","305246","0.0-4.0-2.80","11","Low_HMMActual","null","","","","Images/WhiteBeadChoiceCorrect.png","null"
"image-keyboard-response","263","305708","0.0-4.0-0.81","11","Low_HMMActual","461.7800000005518","","","","Images/NewTrialWC.png","39"
"image-keyboard-response","264","305959","0.0-4.0-1.81","11","Low_HMMActual","null","","","","Images/WhiteBeadChoice.png","null"
"image-keyboard-response","265","306461","0.0-4.0-2.81","11","Low_HMMActual","null","","","","Images/WhiteBeadChoiceWrong.png","null"
"image-keyboard-response","266","307012","0.0-4.0-0.82","11","Low_HMMActual","550.4750000000349","","","","Images/NewTrialBC.png","37"
"image-keyboard-response","267","307264","0.0-4.0-1.82","11","Low_HMMActual","null","","","","Images/BlackBeadChoice.png","null"
"image-keyboard-response","268","307765","0.0-4.0-2.82","11","Low_HMMActual","null","","","","Images/BlackBeadChoiceWrong.png","null"
"image-keyboard-response","269","307796","0.0-4.0-0.83","11","Low_HMMActual","30.714999999909196","","","","Images/NewTrialWC.png","39"
"image-keyboard-response","270","308048","0.0-4.0-1.83","11","Low_HMMActual","null","","","","Images/WhiteBeadChoice.png","null"
"image-keyboard-response","271","308549","0.0-4.0-2.83","11","Low_HMMActual","null","","","","Images/WhiteBeadChoiceWrong.png","null"
"image-keyboard-response","272","309388","0.0-4.0-0.84","11","Low_HMMActual","838.354999999865","","","","Images/NewTrialBC.png","39"
"image-keyboard-response","273","309640","0.0-4.0-1.84","11","Low_HMMActual","null","","","","Images/WhiteBeadChoice.png","null"
"image-keyboard-response","274","310142","0.0-4.0-2.84","11","Low_HMMActual","null","","","","Images/WhiteBeadChoiceCorrect.png","null"
"image-keyboard-response","275","310381","0.0-4.0-0.85","11","Low_HMMActual","238.29500000010012","","","","Images/NewTrialWC.png","39"
"image-keyboard-response","276","310632","0.0-4.0-1.85","11","Low_HMMActual","null","","","","Images/WhiteBeadChoice.png","null"
"image-keyboard-response","277","311133","0.0-4.0-2.85","11","Low_HMMActual","null","","","","Images/WhiteBeadChoiceCorrect.png","null"
"image-keyboard-response","278","311196","0.0-4.0-0.86","11","Low_HMMActual","62.324999999895226","","","","Images/NewTrialWC.png","39"
"image-keyboard-response","279","311448","0.0-4.0-1.86","11","Low_HMMActual","null","","","","Images/WhiteBeadChoice.png","null"
"image-keyboard-response","280","311950","0.0-4.0-2.86","11","Low_HMMActual","null","","","","Images/WhiteBeadChoiceCorrect.png","null"
"image-keyboard-response","281","312173","0.0-4.0-0.87","11","Low_HMMActual","222.31500000000233","","","","Images/NewTrialWC.png","39"
"image-keyboard-response","282","312424","0.0-4.0-1.87","11","Low_HMMActual","null","","","","Images/WhiteBeadChoice.png","null"
"image-keyboard-response","283","312926","0.0-4.0-2.87","11","Low_HMMActual","null","","","","Images/WhiteBeadChoiceCorrect.png","null"
"image-keyboard-response","284","313021","0.0-4.0-0.88","11","Low_HMMActual","94.48000000067987","","","","Images/NewTrialWC.png","39"
"image-keyboard-response","285","313273","0.0-4.0-1.88","11","Low_HMMActual","null","","","","Images/WhiteBeadChoice.png","null"
"image-keyboard-response","286","313774","0.0-4.0-2.88","11","Low_HMMActual","null","","","","Images/WhiteBeadChoiceCorrect.png","null"
"image-keyboard-response","287","313925","0.0-4.0-0.89","11","Low_HMMActual","149.5400000003283","","","","Images/NewTrialWC.png","39"
"image-keyboard-response","288","314176","0.0-4.0-1.89","11","Low_HMMActual","null","","","","Images/WhiteBeadChoice.png","null"
"image-keyboard-response","289","314678","0.0-4.0-2.89","11","Low_HMMActual","null","","","","Images/WhiteBeadChoiceCorrect.png","null"
"image-keyboard-response","290","314837","0.0-4.0-0.90","11","Low_HMMActual","158.66499999992084","","","","Images/NewTrialWC.png","39"
"image-keyboard-response","291","315088","0.0-4.0-1.90","11","Low_HMMActual","null","","","","Images/WhiteBeadChoice.png","null"
"image-keyboard-response","292","315590","0.0-4.0-2.90","11","Low_HMMActual","null","","","","Images/WhiteBeadChoiceCorrect.png","null"
"image-keyboard-response","293","315836","0.0-4.0-0.91","11","Low_HMMActual","245.32499999989523","","","","Images/NewTrialWC.png","39"
"image-keyboard-response","294","316088","0.0-4.0-1.91","11","Low_HMMActual","null","","","","Images/WhiteBeadChoice.png","null"
"image-keyboard-response","295","316589","0.0-4.0-2.91","11","Low_HMMActual","null","","","","Images/WhiteBeadChoiceCorrect.png","null"
"image-keyboard-response","296","316876","0.0-4.0-0.92","11","Low_HMMActual","286.69499999977415","","","","Images/NewTrialWC.png","39"
"image-keyboard-response","297","317127","0.0-4.0-1.92","11","Low_HMMActual","null","","","","Images/WhiteBeadChoice.png","null"
"image-keyboard-response","298","317628","0.0-4.0-2.92","11","Low_HMMActual","null","","","","Images/WhiteBeadChoiceCorrect.png","null"
"image-keyboard-response","299","317756","0.0-4.0-0.93","11","Low_HMMActual","127.45499999978347","","","","Images/NewTrialWC.png","39"
"image-keyboard-response","300","318008","0.0-4.0-1.93","11","Low_HMMActual","null","","","","Images/WhiteBeadChoice.png","null"
"image-keyboard-response","301","318510","0.0-4.0-2.93","11","Low_HMMActual","null","","","","Images/WhiteBeadChoiceCorrect.png","null"
"image-keyboard-response","302","318844","0.0-4.0-0.94","11","Low_HMMActual","333.33499999932246","","","","Images/NewTrialWC.png","39"
"image-keyboard-response","303","319095","0.0-4.0-1.94","11","Low_HMMActual","null","","","","Images/WhiteBeadChoice.png","null"
"image-keyboard-response","304","319597","0.0-4.0-2.94","11","Low_HMMActual","null","","","","Images/WhiteBeadChoiceCorrect.png","null"
"image-keyboard-response","305","320254","0.0-4.0-0.95","11","Low_HMMActual","655.9900000002235","","","","Images/NewTrialWC.png","39"
"image-keyboard-response","306","320505","0.0-4.0-1.95","11","Low_HMMActual","null","","","","Images/WhiteBeadChoice.png","null"
"image-keyboard-response","307","321006","0.0-4.0-2.95","11","Low_HMMActual","null","","","","Images/WhiteBeadChoiceCorrect.png","null"
"image-keyboard-response","308","335740","0.0-4.0-0.96","11","Low_HMMActual","14732.890000000247","","","","Images/NewTrialWC.png","39"
"image-keyboard-response","309","335991","0.0-4.0-1.96","11","Low_HMMActual","null","","","","Images/WhiteBeadChoice.png","null"
"image-keyboard-response","310","336493","0.0-4.0-2.96","11","Low_HMMActual","null","","","","Images/WhiteBeadChoiceCorrect.png","null"
"image-keyboard-response","311","336796","0.0-4.0-0.97","11","Low_HMMActual","302.6700000000419","","","","Images/NewTrialWC.png","39"
"image-keyboard-response","312","337047","0.0-4.0-1.97","11","Low_HMMActual","null","","","","Images/WhiteBeadChoice.png","null"
"image-keyboard-response","313","337548","0.0-4.0-2.97","11","Low_HMMActual","null","","","","Images/WhiteBeadChoiceCorrect.png","null"
"image-keyboard-response","314","337948","0.0-4.0-0.98","11","Low_HMMActual","399.0899999999092","","","","Images/NewTrialWC.png","39"
"image-keyboard-response","315","338199","0.0-4.0-1.98","11","Low_HMMActual","null","","","","Images/WhiteBeadChoice.png","null"
"image-keyboard-response","316","338700","0.0-4.0-2.98","11","Low_HMMActual","null","","","","Images/WhiteBeadChoiceCorrect.png","null"
"image-keyboard-response","317","338948","0.0-4.0-0.99","11","Low_HMMActual","247.51500000001397","","","","Images/NewTrialWC.png","39"
"image-keyboard-response","318","339200","0.0-4.0-1.99","11","Low_HMMActual","null","","","","Images/WhiteBeadChoice.png","null"
"image-keyboard-response","319","339702","0.0-4.0-2.99","11","Low_HMMActual","null","","","","Images/WhiteBeadChoiceCorrect.png","null"
"image-keyboard-response","320","339733","0.0-4.0-0.100","11","Low_HMMActual","30.034999999741558","","","","Images/NewTrialWC.png","39"
"image-keyboard-response","321","339984","0.0-4.0-1.100","11","Low_HMMActual","null","","","","Images/WhiteBeadChoice.png","null"
"image-keyboard-response","322","340487","0.0-4.0-2.100","11","Low_HMMActual","null","","","","Images/WhiteBeadChoiceCorrect.png","null"
"image-keyboard-response","323","340572","0.0-4.0-0.101","11","Low_HMMActual","84.89499999996042","","","","Images/NewTrialWC.png","39"
"image-keyboard-response","324","340824","0.0-4.0-1.101","11","Low_HMMActual","null","","","","Images/WhiteBeadChoice.png","null"
"image-keyboard-response","325","341326","0.0-4.0-2.101","11","Low_HMMActual","null","","","","Images/WhiteBeadChoiceCorrect.png","null"
"image-keyboard-response","326","341572","0.0-4.0-0.102","11","Low_HMMActual","245.50999999971827","","","","Images/NewTrialWC.png","39"
"image-keyboard-response","327","341823","0.0-4.0-1.102","11","Low_HMMActual","null","","","","Images/WhiteBeadChoice.png","null"
"image-keyboard-response","328","342325","0.0-4.0-2.102","11","Low_HMMActual","null","","","","Images/WhiteBeadChoiceCorrect.png","null"
"image-keyboard-response","329","342621","0.0-4.0-0.103","11","Low_HMMActual","295.465000000142","","","","Images/NewTrialWC.png","39"
"image-keyboard-response","330","342873","0.0-4.0-1.103","11","Low_HMMActual","null","","","","Images/WhiteBeadChoice.png","null"
"image-keyboard-response","331","343374","0.0-4.0-2.103","11","Low_HMMActual","null","","","","Images/WhiteBeadChoiceWrong.png","null"
"image-keyboard-response","332","343652","0.0-4.0-0.104","11","Low_HMMActual","277.4849999995786","","","","Images/NewTrialBC.png","39"
"image-keyboard-response","333","343903","0.0-4.0-1.104","11","Low_HMMActual","null","","","","Images/WhiteBeadChoice.png","null"
"image-keyboard-response","334","344405","0.0-4.0-2.104","11","Low_HMMActual","null","","","","Images/WhiteBeadChoiceCorrect.png","null"
"image-keyboard-response","335","344492","0.0-4.0-0.105","11","Low_HMMActual","85.99999999930151","","","","Images/NewTrialWC.png","39"
"image-keyboard-response","336","344744","0.0-4.0-1.105","11","Low_HMMActual","null","","","","Images/WhiteBeadChoice.png","null"
"image-keyboard-response","337","345246","0.0-4.0-2.105","11","Low_HMMActual","null","","","","Images/WhiteBeadChoiceCorrect.png","null"
"image-keyboard-response","338","345436","0.0-4.0-0.106","11","Low_HMMActual","189.8750000000582","","","","Images/NewTrialWC.png","39"
"image-keyboard-response","339","345687","0.0-4.0-1.106","11","Low_HMMActual","null","","","","Images/WhiteBeadChoice.png","null"
"image-keyboard-response","340","346188","0.0-4.0-2.106","11","Low_HMMActual","null","","","","Images/WhiteBeadChoiceCorrect.png","null"
"image-keyboard-response","341","346444","0.0-4.0-0.107","11","Low_HMMActual","255.57500000012806","","","","Images/NewTrialWC.png","39"
"image-keyboard-response","342","346695","0.0-4.0-1.107","11","Low_HMMActual","null","","","","Images/WhiteBeadChoice.png","null"
"image-keyboard-response","343","347197","0.0-4.0-2.107","11","Low_HMMActual","null","","","","Images/WhiteBeadChoiceCorrect.png","null"
"image-keyboard-response","344","347220","0.0-4.0-0.108","11","Low_HMMActual","22.14499999990221","","","","Images/NewTrialWC.png","39"
"image-keyboard-response","345","347471","0.0-4.0-1.108","11","Low_HMMActual","null","","","","Images/WhiteBeadChoice.png","null"
"image-keyboard-response","346","347973","0.0-4.0-2.108","11","Low_HMMActual","null","","","","Images/WhiteBeadChoiceCorrect.png","null"
"image-keyboard-response","347","347980","0.0-4.0-0.109","11","Low_HMMActual","6.435000000230502","","","","Images/NewTrialWC.png","39"
"image-keyboard-response","348","348231","0.0-4.0-1.109","11","Low_HMMActual","null","","","","Images/WhiteBeadChoice.png","null"
"image-keyboard-response","349","348732","0.0-4.0-2.109","11","Low_HMMActual","null","","","","Images/WhiteBeadChoiceCorrect.png","null"
"image-keyboard-response","350","348788","0.0-4.0-0.110","11","Low_HMMActual","55.06999999942491","","","","Images/NewTrialWC.png","39"
"image-keyboard-response","351","349041","0.0-4.0-1.110","11","Low_HMMActual","null","","","","Images/WhiteBeadChoice.png","null"
"image-keyboard-response","352","349543","0.0-4.0-2.110","11","Low_HMMActual","null","","","","Images/WhiteBeadChoiceCorrect.png","null"
"image-keyboard-response","353","349652","0.0-4.0-0.111","11","Low_HMMActual","108.62499999982538","","","","Images/NewTrialWC.png","39"
"image-keyboard-response","354","349903","0.0-4.0-1.111","11","Low_HMMActual","null","","","","Images/WhiteBeadChoice.png","null"
"image-keyboard-response","355","350406","0.0-4.0-2.111","11","Low_HMMActual","null","","","","Images/WhiteBeadChoiceCorrect.png","null"
"image-keyboard-response","356","350501","0.0-4.0-0.112","11","Low_HMMActual","94.43499999999767","","","","Images/NewTrialWC.png","39"
"image-keyboard-response","357","350753","0.0-4.0-1.112","11","Low_HMMActual","null","","","","Images/WhiteBeadChoice.png","null"
"image-keyboard-response","358","351255","0.0-4.0-2.112","11","Low_HMMActual","null","","","","Images/WhiteBeadChoiceCorrect.png","null"
"image-keyboard-response","359","351388","0.0-4.0-0.113","11","Low_HMMActual","132.42000000085682","","","","Images/NewTrialWC.png","39"
"image-keyboard-response","360","351640","0.0-4.0-1.113","11","Low_HMMActual","null","","","","Images/WhiteBeadChoice.png","null"
"image-keyboard-response","361","352142","0.0-4.0-2.113","11","Low_HMMActual","null","","","","Images/WhiteBeadChoiceWrong.png","null"
"image-keyboard-response","362","352564","0.0-4.0-0.114","11","Low_HMMActual","421.8849999997765","","","","Images/NewTrialBC.png","37"
"image-keyboard-response","363","352815","0.0-4.0-1.114","11","Low_HMMActual","null","","","","Images/BlackBeadChoice.png","null"
"image-keyboard-response","364","353317","0.0-4.0-2.114","11","Low_HMMActual","null","","","","Images/BlackBeadChoiceCorrect.png","null"
"image-keyboard-response","365","353324","0.0-4.0-0.115","11","Low_HMMActual","6.730000000039581","","","","Images/NewTrialBC.png","37"
"image-keyboard-response","366","353576","0.0-4.0-1.115","11","Low_HMMActual","null","","","","Images/BlackBeadChoice.png","null"
"image-keyboard-response","367","354077","0.0-4.0-2.115","11","Low_HMMActual","356.0150000002468","","","","Images/BlackBeadChoiceCorrect.png","37"
"image-keyboard-response","368","354453","0.0-4.0-0.116","11","Low_HMMActual","374.78000000008615","","","","Images/NewTrialBC.png","37"
"image-keyboard-response","369","354704","0.0-4.0-1.116","11","Low_HMMActual","null","","","","Images/BlackBeadChoice.png","null"
"image-keyboard-response","370","355206","0.0-4.0-2.116","11","Low_HMMActual","null","","","","Images/BlackBeadChoiceCorrect.png","null"
"image-keyboard-response","371","355325","0.0-4.0-0.117","11","Low_HMMActual","118.3649999993504","","","","Images/NewTrialBC.png","37"
"image-keyboard-response","372","355577","0.0-4.0-1.117","11","Low_HMMActual","null","","","","Images/BlackBeadChoice.png","null"
"image-keyboard-response","373","356078","0.0-4.0-2.117","11","Low_HMMActual","491.24500000016997","","","","Images/BlackBeadChoiceWrong.png","39"
"image-keyboard-response","374","356589","0.0-4.0-0.118","11","Low_HMMActual","510.1150000000489","","","","Images/NewTrialWC.png","39"
"image-keyboard-response","375","356840","0.0-4.0-1.118","11","Low_HMMActual","null","","","","Images/WhiteBeadChoice.png","null"
"image-keyboard-response","376","357342","0.0-4.0-2.118","11","Low_HMMActual","null","","","","Images/WhiteBeadChoiceCorrect.png","null"
"image-keyboard-response","377","357653","0.0-4.0-0.119","11","Low_HMMActual","310.5049999994808","","","","Images/NewTrialWC.png","39"
"image-keyboard-response","378","357905","0.0-4.0-1.119","11","Low_HMMActual","null","","","","Images/WhiteBeadChoice.png","null"
"image-keyboard-response","379","358407","0.0-4.0-2.119","11","Low_HMMActual","null","","","","Images/WhiteBeadChoiceWrong.png","null"
"image-keyboard-response","380","358636","0.0-4.0-0.120","11","Low_HMMActual","228.45500000036554","","","","Images/NewTrialBC.png","39"
"image-keyboard-response","381","358888","0.0-4.0-1.120","11","Low_HMMActual","null","","","","Images/WhiteBeadChoice.png","null"
"image-keyboard-response","382","359390","0.0-4.0-2.120","11","Low_HMMActual","null","","","","Images/WhiteBeadChoiceCorrect.png","null"
"image-keyboard-response","383","359485","0.0-4.0-0.121","11","Low_HMMActual","94.08500000066124","","","","Images/NewTrialWC.png","39"
"image-keyboard-response","384","359737","0.0-4.0-1.121","11","Low_HMMActual","null","","","","Images/WhiteBeadChoice.png","null"
"image-keyboard-response","385","360239","0.0-4.0-2.121","11","Low_HMMActual","null","","","","Images/WhiteBeadChoiceCorrect.png","null"
"image-keyboard-response","386","360468","0.0-4.0-0.122","11","Low_HMMActual","228.45500000042375","","","","Images/NewTrialWC.png","39"
"image-keyboard-response","387","360719","0.0-4.0-1.122","11","Low_HMMActual","null","","","","Images/WhiteBeadChoice.png","null"
"image-keyboard-response","388","361221","0.0-4.0-2.122","11","Low_HMMActual","null","","","","Images/WhiteBeadChoiceCorrect.png","null"
"image-keyboard-response","389","361388","0.0-4.0-0.123","11","Low_HMMActual","166.46500000020023","","","","Images/NewTrialWC.png","39"
"image-keyboard-response","390","361640","0.0-4.0-1.123","11","Low_HMMActual","null","","","","Images/WhiteBeadChoice.png","null"
"image-keyboard-response","391","362142","0.0-4.0-2.123","11","Low_HMMActual","null","","","","Images/WhiteBeadChoiceWrong.png","null"
"image-keyboard-response","392","362692","0.0-4.0-0.124","11","Low_HMMActual","549.4950000002282","","","","Images/NewTrialBC.png","37"
"image-keyboard-response","393","362944","0.0-4.0-1.124","11","Low_HMMActual","null","","","","Images/BlackBeadChoice.png","null"
"image-keyboard-response","394","363445","0.0-4.0-2.124","11","Low_HMMActual","363.3049999998184","","","","Images/BlackBeadChoiceWrong.png","39"
"image-keyboard-response","395","363773","0.0-4.0-0.125","11","Low_HMMActual","327.4249999994645","","","","Images/NewTrialWC.png","39"
"image-keyboard-response","396","364024","0.0-4.0-1.125","11","Low_HMMActual","null","","","","Images/WhiteBeadChoice.png","null"
"image-keyboard-response","397","364525","0.0-4.0-2.125","11","Low_HMMActual","null","","","","Images/WhiteBeadChoiceCorrect.png","null"
"image-keyboard-response","398","364716","0.0-4.0-0.126","11","Low_HMMActual","190.9200000000419","","","","Images/NewTrialWC.png","39"
"image-keyboard-response","399","364967","0.0-4.0-1.126","11","Low_HMMActual","null","","","","Images/WhiteBeadChoice.png","null"
"image-keyboard-response","400","365469","0.0-4.0-2.126","11","Low_HMMActual","null","","","","Images/WhiteBeadChoiceWrong.png","null"
"image-keyboard-response","401","366140","0.0-4.0-0.127","11","Low_HMMActual","671.0149999998976","","","","Images/NewTrialBC.png","39"
"image-keyboard-response","402","366392","0.0-4.0-1.127","11","Low_HMMActual","null","","","","Images/WhiteBeadChoice.png","null"
"image-keyboard-response","403","366893","0.0-4.0-2.127","11","Low_HMMActual","null","","","","Images/WhiteBeadChoiceCorrect.png","null"
"image-keyboard-response","404","367133","0.0-4.0-0.128","11","Low_HMMActual","239.0400000003865","","","","Images/NewTrialWC.png","39"
"image-keyboard-response","405","367384","0.0-4.0-1.128","11","Low_HMMActual","null","","","","Images/WhiteBeadChoice.png","null"
"image-keyboard-response","406","367886","0.0-4.0-2.128","11","Low_HMMActual","null","","","","Images/WhiteBeadChoiceCorrect.png","null"
"image-keyboard-response","407","368117","0.0-4.0-0.129","11","Low_HMMActual","230.22999999922467","","","","Images/NewTrialWC.png","39"
"image-keyboard-response","408","368368","0.0-4.0-1.129","11","Low_HMMActual","null","","","","Images/WhiteBeadChoice.png","null"
"image-keyboard-response","409","368870","0.0-4.0-2.129","11","Low_HMMActual","null","","","","Images/WhiteBeadChoiceWrong.png","null"
"image-keyboard-response","410","369236","0.0-4.0-0.130","11","Low_HMMActual","365.86499999975786","","","","Images/NewTrialBC.png","37"
"image-keyboard-response","411","369487","0.0-4.0-1.130","11","Low_HMMActual","null","","","","Images/BlackBeadChoice.png","null"
"image-keyboard-response","412","369989","0.0-4.0-2.130","11","Low_HMMActual","412.344999999681","","","","Images/BlackBeadChoiceCorrect.png","39"
"image-keyboard-response","413","370516","0.0-4.0-0.131","11","Low_HMMActual","526.5849999996135","","","","Images/NewTrialBC.png","39"
"image-keyboard-response","414","370768","0.0-4.0-1.131","11","Low_HMMActual","null","","","","Images/WhiteBeadChoice.png","null"
"image-keyboard-response","415","371269","0.0-4.0-2.131","11","Low_HMMActual","null","","","","Images/WhiteBeadChoiceWrong.png","null"
"image-keyboard-response","416","371468","0.0-4.0-0.132","11","Low_HMMActual","199.08500000019558","","","","Images/NewTrialBC.png","37"
"image-keyboard-response","417","371720","0.0-4.0-1.132","11","Low_HMMActual","null","","","","Images/BlackBeadChoice.png","null"
"image-keyboard-response","418","372221","0.0-4.0-2.132","11","Low_HMMActual","null","","","","Images/BlackBeadChoiceCorrect.png","null"
"image-keyboard-response","419","372484","0.0-4.0-0.133","11","Low_HMMActual","263.1199999995879","","","","Images/NewTrialBC.png","39"
"image-keyboard-response","420","372737","0.0-4.0-1.133","11","Low_HMMActual","null","","","","Images/WhiteBeadChoice.png","null"
"image-keyboard-response","421","373238","0.0-4.0-2.133","11","Low_HMMActual","null","","","","Images/WhiteBeadChoiceWrong.png","null"
"image-keyboard-response","422","373508","0.0-4.0-0.134","11","Low_HMMActual","269.39500000025146","","","","Images/NewTrialBC.png","39"
"image-keyboard-response","423","373760","0.0-4.0-1.134","11","Low_HMMActual","null","","","","Images/WhiteBeadChoice.png","null"
"image-keyboard-response","424","374262","0.0-4.0-2.134","11","Low_HMMActual","null","","","","Images/WhiteBeadChoiceWrong.png","null"
"image-keyboard-response","425","374700","0.0-4.0-0.135","11","Low_HMMActual","437.8299999998417","","","","Images/NewTrialBC.png","39"
"image-keyboard-response","426","374952","0.0-4.0-1.135","11","Low_HMMActual","null","","","","Images/WhiteBeadChoice.png","null"
"image-keyboard-response","427","375454","0.0-4.0-2.135","11","Low_HMMActual","null","","","","Images/WhiteBeadChoiceWrong.png","null"
"image-keyboard-response","428","376173","0.0-4.0-0.136","11","Low_HMMActual","718.3699999995879","","","","Images/NewTrialBC.png","37"
"image-keyboard-response","429","376424","0.0-4.0-1.136","11","Low_HMMActual","null","","","","Images/BlackBeadChoice.png","null"
"image-keyboard-response","430","376926","0.0-4.0-2.136","11","Low_HMMActual","null","","","","Images/BlackBeadChoiceCorrect.png","null"
"image-keyboard-response","431","377172","0.0-4.0-0.137","11","Low_HMMActual","245.50499999983003","","","","Images/NewTrialBC.png","37"
"image-keyboard-response","432","377424","0.0-4.0-1.137","11","Low_HMMActual","null","","","","Images/BlackBeadChoice.png","null"
"image-keyboard-response","433","377926","0.0-4.0-2.137","11","Low_HMMActual","null","","","","Images/BlackBeadChoiceCorrect.png","null"
"image-keyboard-response","434","378189","0.0-4.0-0.138","11","Low_HMMActual","262.3699999994715","","","","Images/NewTrialBC.png","37"
"image-keyboard-response","435","378440","0.0-4.0-1.138","11","Low_HMMActual","null","","","","Images/BlackBeadChoice.png","null"
"image-keyboard-response","436","378941","0.0-4.0-2.138","11","Low_HMMActual","null","","","","Images/BlackBeadChoiceCorrect.png","null"
"image-keyboard-response","437","379333","0.0-4.0-0.139","11","Low_HMMActual","390.649999999383","","","","Images/NewTrialBC.png","37"
"image-keyboard-response","438","379583","0.0-4.0-1.139","11","Low_HMMActual","null","","","","Images/BlackBeadChoice.png","null"
"image-keyboard-response","439","380086","0.0-4.0-2.139","11","Low_HMMActual","null","","","","Images/BlackBeadChoiceCorrect.png","null"
"image-keyboard-response","440","380260","0.0-4.0-0.140","11","Low_HMMActual","173.24999999982538","","","","Images/NewTrialBC.png","37"
"image-keyboard-response","441","380511","0.0-4.0-1.140","11","Low_HMMActual","null","","","","Images/BlackBeadChoice.png","null"
"image-keyboard-response","442","381012","0.0-4.0-2.140","11","Low_HMMActual","null","","","","Images/BlackBeadChoiceCorrect.png","null"
"image-keyboard-response","443","381324","0.0-4.0-0.141","11","Low_HMMActual","311.03499999974156","","","","Images/NewTrialBC.png","37"
"image-keyboard-response","444","381576","0.0-4.0-1.141","11","Low_HMMActual","null","","","","Images/BlackBeadChoice.png","null"
"image-keyboard-response","445","382078","0.0-4.0-2.141","11","Low_HMMActual","null","","","","Images/BlackBeadChoiceWrong.png","null"
"image-keyboard-response","446","382924","0.0-4.0-0.142","11","Low_HMMActual","845.4150000006775","","","","Images/NewTrialWC.png","37"
"image-keyboard-response","447","383176","0.0-4.0-1.142","11","Low_HMMActual","null","","","","Images/BlackBeadChoice.png","null"
"image-keyboard-response","448","383677","0.0-4.0-2.142","11","Low_HMMActual","null","","","","Images/BlackBeadChoiceCorrect.png","null"
"image-keyboard-response","449","383781","0.0-4.0-0.143","11","Low_HMMActual","102.86499999987427","","","","Images/NewTrialBC.png","37"
"image-keyboard-response","450","384031","0.0-4.0-1.143","11","Low_HMMActual","null","","","","Images/BlackBeadChoice.png","null"
"image-keyboard-response","451","384532","0.0-4.0-2.143","11","Low_HMMActual","null","","","","Images/BlackBeadChoiceCorrect.png","null"
"image-keyboard-response","452","384748","0.0-4.0-0.144","11","Low_HMMActual","214.96000000025379","","","","Images/NewTrialBC.png","37"
"image-keyboard-response","453","385000","0.0-4.0-1.144","11","Low_HMMActual","null","","","","Images/BlackBeadChoice.png","null"
"image-keyboard-response","454","385501","0.0-4.0-2.144","11","Low_HMMActual","null","","","","Images/BlackBeadChoiceCorrect.png","null"
"image-keyboard-response","455","385892","0.0-4.0-0.145","11","Low_HMMActual","390.62999999988824","","","","Images/NewTrialBC.png","37"
"image-keyboard-response","456","386143","0.0-4.0-1.145","11","Low_HMMActual","null","","","","Images/BlackBeadChoice.png","null"
"image-keyboard-response","457","386644","0.0-4.0-2.145","11","Low_HMMActual","null","","","","Images/BlackBeadChoiceWrong.png","null"
"image-keyboard-response","458","387061","0.0-4.0-0.146","11","Low_HMMActual","416.0099999998929","","","","Images/NewTrialWC.png","39"
"image-keyboard-response","459","387312","0.0-4.0-1.146","11","Low_HMMActual","null","","","","Images/WhiteBeadChoice.png","null"
"image-keyboard-response","460","387814","0.0-4.0-2.146","11","Low_HMMActual","null","","","","Images/WhiteBeadChoiceWrong.png","null"
"image-keyboard-response","461","388084","0.0-4.0-0.147","11","Low_HMMActual","269.51000000012573","","","","Images/NewTrialBC.png","37"
"image-keyboard-response","462","388336","0.0-4.0-1.147","11","Low_HMMActual","null","","","","Images/BlackBeadChoice.png","null"
"image-keyboard-response","463","388838","0.0-4.0-2.147","11","Low_HMMActual","null","","","","Images/BlackBeadChoiceCorrect.png","null"
"image-keyboard-response","464","389068","0.0-4.0-0.148","11","Low_HMMActual","230.01000000018394","","","","Images/NewTrialBC.png","37"
"image-keyboard-response","465","389320","0.0-4.0-1.148","11","Low_HMMActual","null","","","","Images/BlackBeadChoice.png","null"
"image-keyboard-response","466","389821","0.0-4.0-2.148","11","Low_HMMActual","null","","","","Images/BlackBeadChoiceWrong.png","null"
"image-keyboard-response","467","390020","0.0-4.0-0.149","11","Low_HMMActual","198.24000000063097","","","","Images/NewTrialWC.png","39"
"image-keyboard-response","468","390272","0.0-4.0-1.149","11","Low_HMMActual","null","","","","Images/WhiteBeadChoice.png","null"
"image-keyboard-response","469","390774","0.0-4.0-2.149","11","Low_HMMActual","null","","","","Images/WhiteBeadChoiceWrong.png","null"
"image-keyboard-response","470","391004","0.0-4.0-0.150","11","Low_HMMActual","230.05000000010477","","","","Images/NewTrialBC.png","39"
"image-keyboard-response","471","391256","0.0-4.0-1.150","11","Low_HMMActual","null","","","","Images/WhiteBeadChoice.png","null"
"image-keyboard-response","472","391757","0.0-4.0-2.150","11","Low_HMMActual","null","","","","Images/WhiteBeadChoiceWrong.png","null"
"image-keyboard-response","473","392093","0.0-4.0-0.151","11","Low_HMMActual","334.7149999999674","","","","Images/NewTrialBC.png","37"
"image-keyboard-response","474","392344","0.0-4.0-1.151","11","Low_HMMActual","null","","","","Images/BlackBeadChoice.png","null"
"image-keyboard-response","475","392846","0.0-4.0-2.151","11","Low_HMMActual","null","","","","Images/BlackBeadChoiceCorrect.png","null"
"image-keyboard-response","476","393060","0.0-4.0-0.152","11","Low_HMMActual","213.99000000022352","","","","Images/NewTrialBC.png","37"
"image-keyboard-response","477","393311","0.0-4.0-1.152","11","Low_HMMActual","null","","","","Images/BlackBeadChoice.png","null"
"image-keyboard-response","478","393813","0.0-4.0-2.152","11","Low_HMMActual","null","","","","Images/BlackBeadChoiceCorrect.png","null"
"image-keyboard-response","479","393964","0.0-4.0-0.153","11","Low_HMMActual","150.49999999970896","","","","Images/NewTrialBC.png","37"
"image-keyboard-response","480","394215","0.0-4.0-1.153","11","Low_HMMActual","null","","","","Images/BlackBeadChoice.png","null"
"image-keyboard-response","481","394717","0.0-4.0-2.153","11","Low_HMMActual","null","","","","Images/BlackBeadChoiceCorrect.png","null"
"image-keyboard-response","482","394924","0.0-4.0-0.154","11","Low_HMMActual","207.09499999973923","","","","Images/NewTrialBC.png","37"
"image-keyboard-response","483","395176","0.0-4.0-1.154","11","Low_HMMActual","null","","","","Images/BlackBeadChoice.png","null"
"image-keyboard-response","484","395678","0.0-4.0-2.154","11","Low_HMMActual","null","","","","Images/BlackBeadChoiceWrong.png","null"
"image-keyboard-response","485","396628","0.0-4.0-0.155","11","Low_HMMActual","950.0449999995762","","","","Images/NewTrialWC.png","37"
"image-keyboard-response","486","396880","0.0-4.0-1.155","11","Low_HMMActual","null","","","","Images/BlackBeadChoice.png","null"
"image-keyboard-response","487","397382","0.0-4.0-2.155","11","Low_HMMActual","null","","","","Images/BlackBeadChoiceCorrect.png","null"
"image-keyboard-response","488","397844","0.0-4.0-0.156","11","Low_HMMActual","461.9099999999744","","","","Images/NewTrialBC.png","37"
"image-keyboard-response","489","398096","0.0-4.0-1.156","11","Low_HMMActual","null","","","","Images/BlackBeadChoice.png","null"
"image-keyboard-response","490","398598","0.0-4.0-2.156","11","Low_HMMActual","348.25499999988824","","","","Images/BlackBeadChoiceCorrect.png","37"
"image-keyboard-response","491","398956","0.0-4.0-0.157","11","Low_HMMActual","357.2649999996065","","","","Images/NewTrialBC.png","37"
"image-keyboard-response","492","399208","0.0-4.0-1.157","11","Low_HMMActual","null","","","","Images/BlackBeadChoice.png","null"
"image-keyboard-response","493","399709","0.0-4.0-2.157","11","Low_HMMActual","396.0249999999651","","","","Images/BlackBeadChoiceWrong.png","39"
"image-keyboard-response","494","400108","0.0-4.0-0.158","11","Low_HMMActual","398.94000000006054","","","","Images/NewTrialWC.png","39"
"image-keyboard-response","495","400361","0.0-4.0-1.158","11","Low_HMMActual","null","","","","Images/WhiteBeadChoice.png","null"
"image-keyboard-response","496","400862","0.0-4.0-2.158","11","Low_HMMActual","null","","","","Images/WhiteBeadChoiceWrong.png","null"
"image-keyboard-response","497","401076","0.0-4.0-0.159","11","Low_HMMActual","213.81500000006054","","","","Images/NewTrialBC.png","37"
"image-keyboard-response","498","401327","0.0-4.0-1.159","11","Low_HMMActual","null","","","","Images/BlackBeadChoice.png","null"
"image-keyboard-response","499","401829","0.0-4.0-2.159","11","Low_HMMActual","null","","","","Images/BlackBeadChoiceCorrect.png","null"
"image-keyboard-response","500","402429","0.0-4.0-0.160","11","Low_HMMActual","599.2599999999511","","","","Images/NewTrialBC.png","37"
"image-keyboard-response","501","402681","0.0-4.0-1.160","11","Low_HMMActual","null","","","","Images/BlackBeadChoice.png","null"
"image-keyboard-response","502","403183","0.0-4.0-2.160","11","Low_HMMActual","null","","","","Images/BlackBeadChoiceCorrect.png","null"
"image-keyboard-response","503","403732","0.0-4.0-0.161","11","Low_HMMActual","548.5099999996601","","","","Images/NewTrialBC.png","39"
"image-keyboard-response","504","403984","0.0-4.0-1.161","11","Low_HMMActual","null","","","","Images/WhiteBeadChoice.png","null"
"image-keyboard-response","505","404486","0.0-4.0-2.161","11","Low_HMMActual","null","","","","Images/WhiteBeadChoiceWrong.png","null"
"image-keyboard-response","506","404588","0.0-4.0-0.162","11","Low_HMMActual","101.47999999934109","","","","Images/NewTrialBC.png","37"
"image-keyboard-response","507","404839","0.0-4.0-1.162","11","Low_HMMActual","null","","","","Images/BlackBeadChoice.png","null"
"image-keyboard-response","508","405341","0.0-4.0-2.162","11","Low_HMMActual","null","","","","Images/BlackBeadChoiceCorrect.png","null"
"image-keyboard-response","509","405380","0.0-4.0-0.163","11","Low_HMMActual","37.68000000040047","","","","Images/NewTrialBC.png","37"
"image-keyboard-response","510","405632","0.0-4.0-1.163","11","Low_HMMActual","null","","","","Images/BlackBeadChoice.png","null"
"image-keyboard-response","511","406134","0.0-4.0-2.163","11","Low_HMMActual","null","","","","Images/BlackBeadChoiceWrong.png","null"
"image-keyboard-response","512","406420","0.0-4.0-0.164","11","Low_HMMActual","285.86499999987427","","","","Images/NewTrialWC.png","39"
"image-keyboard-response","513","406672","0.0-4.0-1.164","11","Low_HMMActual","null","","","","Images/WhiteBeadChoice.png","null"
"image-keyboard-response","514","407174","0.0-4.0-2.164","11","Low_HMMActual","null","","","","Images/WhiteBeadChoiceWrong.png","null"
"image-keyboard-response","515","407396","0.0-4.0-0.165","11","Low_HMMActual","222.13999999983935","","","","Images/NewTrialBC.png","39"
"image-keyboard-response","516","407647","0.0-4.0-1.165","11","Low_HMMActual","null","","","","Images/WhiteBeadChoice.png","null"
"image-keyboard-response","517","408149","0.0-4.0-2.165","11","Low_HMMActual","null","","","","Images/WhiteBeadChoiceWrong.png","null"
"image-keyboard-response","518","408229","0.0-4.0-0.166","11","Low_HMMActual","79.41500000015367","","","","Images/NewTrialBC.png","37"
"image-keyboard-response","519","408481","0.0-4.0-1.166","11","Low_HMMActual","null","","","","Images/BlackBeadChoice.png","null"
"image-keyboard-response","520","408982","0.0-4.0-2.166","11","Low_HMMActual","null","","","","Images/BlackBeadChoiceCorrect.png","null"
"image-keyboard-response","521","410317","0.0-4.0-0.167","11","Low_HMMActual","1334.5600000002305","","","","Images/NewTrialBC.png","37"
"image-keyboard-response","522","410568","0.0-4.0-1.167","11","Low_HMMActual","null","","","","Images/BlackBeadChoice.png","null"
"image-keyboard-response","523","411069","0.0-4.0-2.167","11","Low_HMMActual","null","","","","Images/BlackBeadChoiceWrong.png","null"
"image-keyboard-response","524","411252","0.0-4.0-0.168","11","Low_HMMActual","182.38500000006752","","","","Images/NewTrialWC.png","37"
"image-keyboard-response","525","411504","0.0-4.0-1.168","11","Low_HMMActual","null","","","","Images/BlackBeadChoice.png","null"
"image-keyboard-response","526","412006","0.0-4.0-2.168","11","Low_HMMActual","null","","","","Images/BlackBeadChoiceWrong.png","null"
"image-keyboard-response","527","412061","0.0-4.0-0.169","11","Low_HMMActual","54.31999999930849","","","","Images/NewTrialWC.png","39"
"image-keyboard-response","528","412312","0.0-4.0-1.169","11","Low_HMMActual","null","","","","Images/WhiteBeadChoice.png","null"
"image-keyboard-response","529","412814","0.0-4.0-2.169","11","Low_HMMActual","null","","","","Images/WhiteBeadChoiceWrong.png","null"
"image-keyboard-response","530","413060","0.0-4.0-0.170","11","Low_HMMActual","246.0599999994738","","","","Images/NewTrialBC.png","39"
"image-keyboard-response","531","413313","0.0-4.0-1.170","11","Low_HMMActual","null","","","","Images/WhiteBeadChoice.png","null"
"image-keyboard-response","532","413815","0.0-4.0-2.170","11","Low_HMMActual","null","","","","Images/WhiteBeadChoiceCorrect.png","null"
"image-keyboard-response","533","414060","0.0-4.0-0.171","11","Low_HMMActual","244.44500000029802","","","","Images/NewTrialWC.png","39"
"image-keyboard-response","534","414312","0.0-4.0-1.171","11","Low_HMMActual","null","","","","Images/WhiteBeadChoice.png","null"
"image-keyboard-response","535","414814","0.0-4.0-2.171","11","Low_HMMActual","null","","","","Images/WhiteBeadChoiceCorrect.png","null"
"image-keyboard-response","536","414997","0.0-4.0-0.172","11","Low_HMMActual","182.37500000034925","","","","Images/NewTrialWC.png","39"
"image-keyboard-response","537","415248","0.0-4.0-1.172","11","Low_HMMActual","null","","","","Images/WhiteBeadChoice.png","null"
"image-keyboard-response","538","415750","0.0-4.0-2.172","11","Low_HMMActual","null","","","","Images/WhiteBeadChoiceCorrect.png","null"
"image-keyboard-response","539","416028","0.0-4.0-0.173","11","Low_HMMActual","277.6849999999977","","","","Images/NewTrialWC.png","39"
"image-keyboard-response","540","416279","0.0-4.0-1.173","11","Low_HMMActual","null","","","","Images/WhiteBeadChoice.png","null"
"image-keyboard-response","541","416781","0.0-4.0-2.173","11","Low_HMMActual","null","","","","Images/WhiteBeadChoiceCorrect.png","null"
"image-keyboard-response","542","417068","0.0-4.0-0.174","11","Low_HMMActual","287.1999999997788","","","","Images/NewTrialWC.png","39"
"image-keyboard-response","543","417321","0.0-4.0-1.174","11","Low_HMMActual","null","","","","Images/WhiteBeadChoice.png","null"
"image-keyboard-response","544","417823","0.0-4.0-2.174","11","Low_HMMActual","null","","","","Images/WhiteBeadChoiceCorrect.png","null"
"image-keyboard-response","545","418020","0.0-4.0-0.175","11","Low_HMMActual","196.4649999999674","","","","Images/NewTrialWC.png","39"
"image-keyboard-response","546","418272","0.0-4.0-1.175","11","Low_HMMActual","null","","","","Images/WhiteBeadChoice.png","null"
"image-keyboard-response","547","418773","0.0-4.0-2.175","11","Low_HMMActual","null","","","","Images/WhiteBeadChoiceCorrect.png","null"
"image-keyboard-response","548","419085","0.0-4.0-0.176","11","Low_HMMActual","311.5250000000815","","","","Images/NewTrialWC.png","39"
"image-keyboard-response","549","419337","0.0-4.0-1.176","11","Low_HMMActual","null","","","","Images/WhiteBeadChoice.png","null"
"image-keyboard-response","550","419839","0.0-4.0-2.176","11","Low_HMMActual","null","","","","Images/WhiteBeadChoiceCorrect.png","null"
"image-keyboard-response","551","420164","0.0-4.0-0.177","11","Low_HMMActual","324.8149999999441","","","","Images/NewTrialWC.png","39"
"image-keyboard-response","552","420415","0.0-4.0-1.177","11","Low_HMMActual","null","","","","Images/WhiteBeadChoice.png","null"
"image-keyboard-response","553","420917","0.0-4.0-2.177","11","Low_HMMActual","null","","","","Images/WhiteBeadChoiceCorrect.png","null"
"image-keyboard-response","554","421213","0.0-4.0-0.178","11","Low_HMMActual","295.2749999994412","","","","Images/NewTrialWC.png","39"
"image-keyboard-response","555","421464","0.0-4.0-1.178","11","Low_HMMActual","null","","","","Images/WhiteBeadChoice.png","null"
"image-keyboard-response","556","421966","0.0-4.0-2.178","11","Low_HMMActual","null","","","","Images/WhiteBeadChoiceCorrect.png","null"
"image-keyboard-response","557","423180","0.0-4.0-0.179","11","Low_HMMActual","1214.00999999966","","","","Images/NewTrialWC.png","39"
"image-keyboard-response","558","423433","0.0-4.0-1.179","11","Low_HMMActual","null","","","","Images/WhiteBeadChoice.png","null"
"image-keyboard-response","559","423935","0.0-4.0-2.179","11","Low_HMMActual","null","","","","Images/WhiteBeadChoiceCorrect.png","null"
"image-keyboard-response","560","424228","0.0-4.0-0.180","11","Low_HMMActual","292.9249999996973","","","","Images/NewTrialWC.png","39"
"image-keyboard-response","561","424479","0.0-4.0-1.180","11","Low_HMMActual","null","","","","Images/WhiteBeadChoice.png","null"
"image-keyboard-response","562","424981","0.0-4.0-2.180","11","Low_HMMActual","null","","","","Images/WhiteBeadChoiceCorrect.png","null"
"image-keyboard-response","563","425317","0.0-4.0-0.181","11","Low_HMMActual","335.59999999945285","","","","Images/NewTrialWC.png","39"
"image-keyboard-response","564","425568","0.0-4.0-1.181","11","Low_HMMActual","null","","","","Images/WhiteBeadChoice.png","null"
"image-keyboard-response","565","426070","0.0-4.0-2.181","11","Low_HMMActual","null","","","","Images/WhiteBeadChoiceCorrect.png","null"
"image-keyboard-response","566","426220","0.0-4.0-0.182","11","Low_HMMActual","150.12500000011642","","","","Images/NewTrialWC.png","39"
"image-keyboard-response","567","426473","0.0-4.0-1.182","11","Low_HMMActual","null","","","","Images/WhiteBeadChoice.png","null"
"image-keyboard-response","568","426975","0.0-4.0-2.182","11","Low_HMMActual","null","","","","Images/WhiteBeadChoiceCorrect.png","null"
"image-keyboard-response","569","427196","0.0-4.0-0.183","11","Low_HMMActual","220.72500000009313","","","","Images/NewTrialWC.png","39"
"image-keyboard-response","570","427447","0.0-4.0-1.183","11","Low_HMMActual","null","","","","Images/WhiteBeadChoice.png","null"
"image-keyboard-response","571","427949","0.0-4.0-2.183","11","Low_HMMActual","null","","","","Images/WhiteBeadChoiceCorrect.png","null"
"image-keyboard-response","572","428381","0.0-4.0-0.184","11","Low_HMMActual","431.78499999974156","","","","Images/NewTrialWC.png","39"
"image-keyboard-response","573","428632","0.0-4.0-1.184","11","Low_HMMActual","null","","","","Images/WhiteBeadChoice.png","null"
"image-keyboard-response","574","429133","0.0-4.0-2.184","11","Low_HMMActual","null","","","","Images/WhiteBeadChoiceCorrect.png","null"
"image-keyboard-response","575","430317","0.0-4.0-0.185","11","Low_HMMActual","1183.6050000002142","","","","Images/NewTrialWC.png","39"
"image-keyboard-response","576","430568","0.0-4.0-1.185","11","Low_HMMActual","null","","","","Images/WhiteBeadChoice.png","null"
"image-keyboard-response","577","431070","0.0-4.0-2.185","11","Low_HMMActual","null","","","","Images/WhiteBeadChoiceCorrect.png","null"
"image-keyboard-response","578","431572","0.0-4.0-0.186","11","Low_HMMActual","502.08500000007916","","","","Images/NewTrialWC.png","39"
"image-keyboard-response","579","431824","0.0-4.0-1.186","11","Low_HMMActual","null","","","","Images/WhiteBeadChoice.png","null"
"image-keyboard-response","580","432327","0.0-4.0-2.186","11","Low_HMMActual","null","","","","Images/WhiteBeadChoiceCorrect.png","null"
"image-keyboard-response","581","432565","0.0-4.0-0.187","11","Low_HMMActual","236.89000000013039","","","","Images/NewTrialWC.png","39"
"image-keyboard-response","582","432817","0.0-4.0-1.187","11","Low_HMMActual","null","","","","Images/WhiteBeadChoice.png","null"
"image-keyboard-response","583","433318","0.0-4.0-2.187","11","Low_HMMActual","null","","","","Images/WhiteBeadChoiceCorrect.png","null"
"image-keyboard-response","584","433380","0.0-4.0-0.188","11","Low_HMMActual","61.494999999937136","","","","Images/NewTrialWC.png","39"
"image-keyboard-response","585","433632","0.0-4.0-1.188","11","Low_HMMActual","null","","","","Images/WhiteBeadChoice.png","null"
"image-keyboard-response","586","434133","0.0-4.0-2.188","11","Low_HMMActual","null","","","","Images/WhiteBeadChoiceWrong.png","null"
"image-keyboard-response","587","434356","0.0-4.0-0.189","11","Low_HMMActual","222.99000000022352","","","","Images/NewTrialBC.png","37"
"image-keyboard-response","588","434608","0.0-4.0-1.189","11","Low_HMMActual","null","","","","Images/BlackBeadChoice.png","null"
"image-keyboard-response","589","435109","0.0-4.0-2.189","11","Low_HMMActual","null","","","","Images/BlackBeadChoiceWrong.png","null"
"image-keyboard-response","590","435268","0.0-4.0-0.190","11","Low_HMMActual","158.62000000016997","","","","Images/NewTrialWC.png","39"
"image-keyboard-response","591","435519","0.0-4.0-1.190","11","Low_HMMActual","null","","","","Images/WhiteBeadChoice.png","null"
"image-keyboard-response","592","436021","0.0-4.0-2.190","11","Low_HMMActual","null","","","","Images/WhiteBeadChoiceCorrect.png","null"
"image-keyboard-response","593","436053","0.0-4.0-0.191","11","Low_HMMActual","31.22499999968568","","","","Images/NewTrialWC.png","39"
"image-keyboard-response","594","436304","0.0-4.0-1.191","11","Low_HMMActual","null","","","","Images/WhiteBeadChoice.png","null"
"image-keyboard-response","595","436805","0.0-4.0-2.191","11","Low_HMMActual","null","","","","Images/WhiteBeadChoiceWrong.png","null"
"image-keyboard-response","596","437916","0.0-4.0-0.192","11","Low_HMMActual","1110.4350000005215","","","","Images/NewTrialBC.png","39"
"image-keyboard-response","597","438168","0.0-4.0-1.192","11","Low_HMMActual","null","","","","Images/WhiteBeadChoice.png","null"
"image-keyboard-response","598","438670","0.0-4.0-2.192","11","Low_HMMActual","null","","","","Images/WhiteBeadChoiceWrong.png","null"
"image-keyboard-response","599","439300","0.0-4.0-0.193","11","Low_HMMActual","629.3900000000722","","","","Images/NewTrialBC.png","37"
"image-keyboard-response","600","439553","0.0-4.0-1.193","11","Low_HMMActual","null","","","","Images/BlackBeadChoice.png","null"
"image-keyboard-response","601","440055","0.0-4.0-2.193","11","Low_HMMActual","null","","","","Images/BlackBeadChoiceWrong.png","null"
"image-keyboard-response","602","440893","0.0-4.0-0.194","11","Low_HMMActual","837.3150000006426","","","","Images/NewTrialWC.png","39"
"image-keyboard-response","603","441144","0.0-4.0-1.194","11","Low_HMMActual","null","","","","Images/WhiteBeadChoice.png","null"
"image-keyboard-response","604","441646","0.0-4.0-2.194","11","Low_HMMActual","363.38000000070315","","","","Images/WhiteBeadChoiceCorrect.png","39"
"image-keyboard-response","605","442028","0.0-4.0-0.195","11","Low_HMMActual","381.5750000003609","","","","Images/NewTrialWC.png","39"
"image-keyboard-response","606","442280","0.0-4.0-1.195","11","Low_HMMActual","null","","","","Images/WhiteBeadChoice.png","null"
"image-keyboard-response","607","442781","0.0-4.0-2.195","11","Low_HMMActual","null","","","","Images/WhiteBeadChoiceCorrect.png","null"
"image-keyboard-response","608","443596","0.0-4.0-0.196","11","Low_HMMActual","814.3300000001909","","","","Images/NewTrialWC.png","39"
"image-keyboard-response","609","443848","0.0-4.0-1.196","11","Low_HMMActual","null","","","","Images/WhiteBeadChoice.png","null"
"image-keyboard-response","610","444349","0.0-4.0-2.196","11","Low_HMMActual","null","","","","Images/WhiteBeadChoiceWrong.png","null"
"image-keyboard-response","611","444588","0.0-4.0-0.197","11","Low_HMMActual","238.43000000034226","","","","Images/NewTrialBC.png","37"
"image-keyboard-response","612","444839","0.0-4.0-1.197","11","Low_HMMActual","null","","","","Images/BlackBeadChoice.png","null"
"image-keyboard-response","613","445340","0.0-4.0-2.197","11","Low_HMMActual","null","","","","Images/BlackBeadChoiceWrong.png","null"
"image-keyboard-response","614","445732","0.0-4.0-0.198","11","Low_HMMActual","391.41500000003725","","","","Images/NewTrialWC.png","37"
"image-keyboard-response","615","445983","0.0-4.0-1.198","11","Low_HMMActual","null","","","","Images/BlackBeadChoice.png","null"
"image-keyboard-response","616","446485","0.0-4.0-2.198","11","Low_HMMActual","null","","","","Images/BlackBeadChoiceWrong.png","null"
"image-keyboard-response","617","447068","0.0-4.0-0.199","11","Low_HMMActual","582.3100000006962","","","","Images/NewTrialWC.png","37"
"image-keyboard-response","618","447319","0.0-4.0-1.199","11","Low_HMMActual","null","","","","Images/BlackBeadChoice.png","null"
"image-keyboard-response","619","447821","0.0-4.0-2.199","11","Low_HMMActual","null","","","","Images/BlackBeadChoiceWrong.png","null"
"image-keyboard-response","620","447941","0.0-4.0-0.200","11","Low_HMMActual","119.32500000053551","","","","Images/NewTrialWC.png","39"
"image-keyboard-response","621","448193","0.0-4.0-1.200","11","Low_HMMActual","null","","","","Images/WhiteBeadChoice.png","null"
"image-keyboard-response","622","448695","0.0-4.0-2.200","11","Low_HMMActual","363.245000000461","","","","Images/WhiteBeadChoiceCorrect.png","39"
"image-keyboard-response","623","448844","0.0-4.0-0.201","11","Low_HMMActual","149.1249999999418","","","","Images/NewTrialWC.png","39"
"image-keyboard-response","624","449097","0.0-4.0-1.201","11","Low_HMMActual","175.7200000002049","","","","Images/WhiteBeadChoice.png","39"
"image-keyboard-response","625","449598","0.0-4.0-2.201","11","Low_HMMActual","290.6800000000512","","","","Images/WhiteBeadChoiceCorrect.png","39"
"image-keyboard-response","626","449772","0.0-4.0-0.202","11","Low_HMMActual","173.20999999996275","","","","Images/NewTrialWC.png","39"
"image-keyboard-response","627","450023","0.0-4.0-1.202","11","Low_HMMActual","208.34500000003027","","","","Images/WhiteBeadChoice.png","39"
"image-keyboard-response","628","450524","0.0-4.0-2.202","11","Low_HMMActual","132.9900000001071","","","","Images/WhiteBeadChoiceCorrect.png","39"
"image-keyboard-response","629","450556","0.0-4.0-0.203","11","Low_HMMActual","31.970000000030268","","","","Images/NewTrialWC.png","39"
"image-keyboard-response","630","450808","0.0-4.0-1.203","11","Low_HMMActual","null","","","","Images/WhiteBeadChoice.png","null"
"image-keyboard-response","631","451309","0.0-4.0-2.203","11","Low_HMMActual","3.5100000004749745","","","","Images/WhiteBeadChoiceCorrect.png","37"
"image-keyboard-response","632","451420","0.0-4.0-0.204","11","Low_HMMActual","111.17000000015832","","","","Images/NewTrialWC.png","37"
"image-keyboard-response","633","451672","0.0-4.0-1.204","11","Low_HMMActual","183.56500000023516","","","","Images/BlackBeadChoice.png","37"
"image-keyboard-response","634","452174","0.0-4.0-2.204","11","Low_HMMActual","null","","","","Images/BlackBeadChoiceWrong.png","null"
"image-keyboard-response","635","452869","0.0-4.0-0.205","11","Low_HMMActual","694.2499999995343","","","","Images/NewTrialWC.png","39"
"image-keyboard-response","636","453120","0.0-4.0-1.205","11","Low_HMMActual","null","","","","Images/WhiteBeadChoice.png","null"
"image-keyboard-response","637","453621","0.0-4.0-2.205","11","Low_HMMActual","null","","","","Images/WhiteBeadChoiceCorrect.png","null"
"image-keyboard-response","638","454068","0.0-4.0-0.206","11","Low_HMMActual","446.69499999959953","","","","Images/NewTrialWC.png","39"
"image-keyboard-response","639","454319","0.0-4.0-1.206","11","Low_HMMActual","null","","","","Images/WhiteBeadChoice.png","null"
"image-keyboard-response","640","454820","0.0-4.0-2.206","11","Low_HMMActual","null","","","","Images/WhiteBeadChoiceWrong.png","null"
"image-keyboard-response","641","455332","0.0-4.0-0.207","11","Low_HMMActual","511.33500000013737","","","","Images/NewTrialBC.png","39"
"image-keyboard-response","642","455583","0.0-4.0-1.207","11","Low_HMMActual","null","","","","Images/WhiteBeadChoice.png","null"
"image-keyboard-response","643","456085","0.0-4.0-2.207","11","Low_HMMActual","null","","","","Images/WhiteBeadChoiceCorrect.png","null"
"image-keyboard-response","644","456476","0.0-4.0-0.208","11","Low_HMMActual","391.1499999994994","","","","Images/NewTrialWC.png","39"
"image-keyboard-response","645","456729","0.0-4.0-1.208","11","Low_HMMActual","null","","","","Images/WhiteBeadChoice.png","null"
"image-keyboard-response","646","457230","0.0-4.0-2.208","11","Low_HMMActual","null","","","","Images/WhiteBeadChoiceCorrect.png","null"
"image-keyboard-response","647","457612","0.0-4.0-0.209","11","Low_HMMActual","381.87000000016997","","","","Images/NewTrialWC.png","39"
"image-keyboard-response","648","457863","0.0-4.0-1.209","11","Low_HMMActual","null","","","","Images/WhiteBeadChoice.png","null"
"image-keyboard-response","649","458364","0.0-4.0-2.209","11","Low_HMMActual","null","","","","Images/WhiteBeadChoiceWrong.png","null"
"image-keyboard-response","650","458948","0.0-4.0-0.210","11","Low_HMMActual","583.4150000000955","","","","Images/NewTrialBC.png","37"
"image-keyboard-response","651","459200","0.0-4.0-1.210","11","Low_HMMActual","null","","","","Images/BlackBeadChoice.png","null"
"image-keyboard-response","652","459702","0.0-4.0-2.210","11","Low_HMMActual","null","","","","Images/BlackBeadChoiceWrong.png","null"
"image-keyboard-response","653","460156","0.0-4.0-0.211","11","Low_HMMActual","453.6200000002282","","","","Images/NewTrialWC.png","39"
"image-keyboard-response","654","460408","0.0-4.0-1.211","11","Low_HMMActual","null","","","","Images/WhiteBeadChoice.png","null"
"image-keyboard-response","655","460910","0.0-4.0-2.211","11","Low_HMMActual","null","","","","Images/WhiteBeadChoiceWrong.png","null"
"image-keyboard-response","656","461852","0.0-4.0-0.212","11","Low_HMMActual","941.6350000001257","","","","Images/NewTrialBC.png","39"
"image-keyboard-response","657","462103","0.0-4.0-1.212","11","Low_HMMActual","null","","","","Images/WhiteBeadChoice.png","null"
"image-keyboard-response","658","462604","0.0-4.0-2.212","11","Low_HMMActual","null","","","","Images/WhiteBeadChoiceWrong.png","null"
"image-keyboard-response","659","463172","0.0-4.0-0.213","11","Low_HMMActual","566.7949999997509","","","","Images/NewTrialBC.png","37"
"image-keyboard-response","660","463423","0.0-4.0-1.213","11","Low_HMMActual","null","","","","Images/BlackBeadChoice.png","null"
"image-keyboard-response","661","463925","0.0-4.0-2.213","11","Low_HMMActual","null","","","","Images/BlackBeadChoiceCorrect.png","null"
"image-keyboard-response","662","464172","0.0-4.0-0.214","11","Low_HMMActual","246.34999999945285","","","","Images/NewTrialBC.png","37"
"image-keyboard-response","663","464423","0.0-4.0-1.214","11","Low_HMMActual","null","","","","Images/BlackBeadChoice.png","null"
"image-keyboard-response","664","464925","0.0-4.0-2.214","11","Low_HMMActual","null","","","","Images/BlackBeadChoiceCorrect.png","null"
"image-keyboard-response","665","465132","0.0-4.0-0.215","11","Low_HMMActual","206.80999999970663","","","","Images/NewTrialBC.png","39"
"image-keyboard-response","666","465384","0.0-4.0-1.215","11","Low_HMMActual","null","","","","Images/WhiteBeadChoice.png","null"
"image-keyboard-response","667","465885","0.0-4.0-2.215","11","Low_HMMActual","null","","","","Images/WhiteBeadChoiceWrong.png","null"
"image-keyboard-response","668","466181","0.0-4.0-0.216","11","Low_HMMActual","295.5300000003772","","","","Images/NewTrialBC.png","37"
"image-keyboard-response","669","466433","0.0-4.0-1.216","11","Low_HMMActual","null","","","","Images/BlackBeadChoice.png","null"
"image-keyboard-response","670","466935","0.0-4.0-2.216","11","Low_HMMActual","null","","","","Images/BlackBeadChoiceCorrect.png","null"
"image-keyboard-response","671","467436","0.0-4.0-0.217","11","Low_HMMActual","501.1749999994645","","","","Images/NewTrialBC.png","39"
"image-keyboard-response","672","467688","0.0-4.0-1.217","11","Low_HMMActual","null","","","","Images/WhiteBeadChoice.png","null"
"image-keyboard-response","673","468189","0.0-4.0-2.217","11","Low_HMMActual","null","","","","Images/WhiteBeadChoiceWrong.png","null"
"image-keyboard-response","674","468796","0.0-4.0-0.218","11","Low_HMMActual","606.7999999995809","","","","Images/NewTrialBC.png","37"
"image-keyboard-response","675","469048","0.0-4.0-1.218","11","Low_HMMActual","null","","","","Images/BlackBeadChoice.png","null"
"image-keyboard-response","676","469549","0.0-4.0-2.218","11","Low_HMMActual","null","","","","Images/BlackBeadChoiceWrong.png","null"
"image-keyboard-response","677","470284","0.0-4.0-0.219","11","Low_HMMActual","734.6600000000908","","","","Images/NewTrialWC.png","39"
"image-keyboard-response","678","470535","0.0-4.0-1.219","11","Low_HMMActual","null","","","","Images/WhiteBeadChoice.png","null"
"image-keyboard-response","679","471038","0.0-4.0-2.219","11","Low_HMMActual","null","","","","Images/WhiteBeadChoiceWrong.png","null"
"image-keyboard-response","680","471757","0.0-4.0-0.220","11","Low_HMMActual","718.2800000000861","","","","Images/NewTrialBC.png","39"
"image-keyboard-response","681","472008","0.0-4.0-1.220","11","Low_HMMActual","null","","","","Images/WhiteBeadChoice.png","null"
"image-keyboard-response","682","472509","0.0-4.0-2.220","11","Low_HMMActual","null","","","","Images/WhiteBeadChoiceWrong.png","null"
"image-keyboard-response","683","473093","0.0-4.0-0.221","11","Low_HMMActual","583.6499999995576","","","","Images/NewTrialBC.png","39"
"image-keyboard-response","684","473344","0.0-4.0-1.221","11","Low_HMMActual","null","","","","Images/WhiteBeadChoice.png","null"
"image-keyboard-response","685","473846","0.0-4.0-2.221","11","Low_HMMActual","null","","","","Images/WhiteBeadChoiceWrong.png","null"
"image-keyboard-response","686","474917","0.0-4.0-0.222","11","Low_HMMActual","1070.2399999999907","","","","Images/NewTrialBC.png","39"
"image-keyboard-response","687","475169","0.0-4.0-1.222","11","Low_HMMActual","null","","","","Images/WhiteBeadChoice.png","null"
"image-keyboard-response","688","475671","0.0-4.0-2.222","11","Low_HMMActual","null","","","","Images/WhiteBeadChoiceCorrect.png","null"
"image-keyboard-response","689","475781","0.0-4.0-0.223","11","Low_HMMActual","109.43000000040047","","","","Images/NewTrialWC.png","39"
"image-keyboard-response","690","476033","0.0-4.0-1.223","11","Low_HMMActual","null","","","","Images/WhiteBeadChoice.png","null"
"image-keyboard-response","691","476534","0.0-4.0-2.223","11","Low_HMMActual","null","","","","Images/WhiteBeadChoiceWrong.png","null"
"image-keyboard-response","692","477021","0.0-4.0-0.224","11","Low_HMMActual","486.4299999999348","","","","Images/NewTrialBC.png","39"
"image-keyboard-response","693","477273","0.0-4.0-1.224","11","Low_HMMActual","null","","","","Images/WhiteBeadChoice.png","null"
"image-keyboard-response","694","477775","0.0-4.0-2.224","11","Low_HMMActual","null","","","","Images/WhiteBeadChoiceWrong.png","null"
"image-keyboard-response","695","478269","0.0-4.0-0.225","11","Low_HMMActual","493.4800000000396","","","","Images/NewTrialBC.png","39"
"image-keyboard-response","696","478520","0.0-4.0-1.225","11","Low_HMMActual","null","","","","Images/WhiteBeadChoice.png","null"
"image-keyboard-response","697","479022","0.0-4.0-2.225","11","Low_HMMActual","null","","","","Images/WhiteBeadChoiceWrong.png","null"
"image-keyboard-response","698","479420","0.0-4.0-0.226","11","Low_HMMActual","397.7500000001164","","","","Images/NewTrialBC.png","37"
"image-keyboard-response","699","479671","0.0-4.0-1.226","11","Low_HMMActual","null","","","","Images/BlackBeadChoice.png","null"
"image-keyboard-response","700","480173","0.0-4.0-2.226","11","Low_HMMActual","null","","","","Images/BlackBeadChoiceCorrect.png","null"
"image-keyboard-response","701","480932","0.0-4.0-0.227","11","Low_HMMActual","758.6450000007753","","","","Images/NewTrialBC.png","39"
"image-keyboard-response","702","481183","0.0-4.0-1.227","11","Low_HMMActual","null","","","","Images/WhiteBeadChoice.png","null"
"image-keyboard-response","703","481685","0.0-4.0-2.227","11","Low_HMMActual","null","","","","Images/WhiteBeadChoiceWrong.png","null"
"image-keyboard-response","704","482076","0.0-4.0-0.228","11","Low_HMMActual","390.96000000060303","","","","Images/NewTrialBC.png","37"
"image-keyboard-response","705","482328","0.0-4.0-1.228","11","Low_HMMActual","null","","","","Images/BlackBeadChoice.png","null"
"image-keyboard-response","706","482830","0.0-4.0-2.228","11","Low_HMMActual","null","","","","Images/BlackBeadChoiceCorrect.png","null"
"image-keyboard-response","707","482996","0.0-4.0-0.229","11","Low_HMMActual","165.31999999913387","","","","Images/NewTrialBC.png","37"
"image-keyboard-response","708","483247","0.0-4.0-1.229","11","Low_HMMActual","null","","","","Images/BlackBeadChoice.png","null"
"image-keyboard-response","709","483748","0.0-4.0-2.229","11","Low_HMMActual","null","","","","Images/BlackBeadChoiceCorrect.png","null"
"image-keyboard-response","710","484116","0.0-4.0-0.230","11","Low_HMMActual","367.6350000005332","","","","Images/NewTrialBC.png","37"
"image-keyboard-response","711","484368","0.0-4.0-1.230","11","Low_HMMActual","null","","","","Images/BlackBeadChoice.png","null"
"image-keyboard-response","712","484870","0.0-4.0-2.230","11","Low_HMMActual","null","","","","Images/BlackBeadChoiceWrong.png","null"
"image-keyboard-response","713","500157","0.0-4.0-0.231","11","Low_HMMActual","15286.455000000366","","","","Images/NewTrialWC.png","39"
"image-keyboard-response","714","500408","0.0-4.0-1.231","11","Low_HMMActual","null","","","","Images/WhiteBeadChoice.png","null"
"image-keyboard-response","715","500910","0.0-4.0-2.231","11","Low_HMMActual","null","","","","Images/WhiteBeadChoiceWrong.png","null"
"image-keyboard-response","716","501180","0.0-4.0-0.232","11","Low_HMMActual","269.9099999999744","","","","Images/NewTrialBC.png","39"
"image-keyboard-response","717","501432","0.0-4.0-1.232","11","Low_HMMActual","null","","","","Images/WhiteBeadChoice.png","null"
"image-keyboard-response","718","501933","0.0-4.0-2.232","11","Low_HMMActual","444.16499999992084","","","","Images/WhiteBeadChoiceWrong.png","39"
"image-keyboard-response","719","503365","0.0-4.0-0.233","11","Low_HMMActual","1431.6449999996694","","","","Images/NewTrialBC.png","39"
"image-keyboard-response","720","503616","0.0-4.0-1.233","11","Low_HMMActual","null","","","","Images/WhiteBeadChoice.png","null"
