"trial_type","trial_index","time_elapsed","internal_node_id","Script_Picker","Block_Type","rt","url","responses","question_order","stimulus","key_press"
"pavlovia","0","6","0.0-0.0","18","High_HMMActual","","","","","",""
"external-html","1","70602","0.0-1.0-0.0","18","High_HMMActual","70446.70999998925","consent.html","","","",""
"survey-multi-choice","2","84595","0.0-1.0-1.0","18","High_HMMActual","13989.290000026813","","{""Q0"":""Female"",""Q1"":""White""}","[0,1]","",""
"survey-text","3","88840","0.0-1.0-2.0","18","High_HMMActual","4233.2100000057835","","{""Q0"":""30""}","","",""
"survey-text","4","102933","0.0-1.0-3.0","18","High_HMMActual","13983.715000009397","","{""Q0"":""5edb7e7808def60009fd1693""}","","",""
"html-keyboard-response","5","191071","0.0-2.0-0.0","18","High_HMMActual","88033.11499999836","","","","<div class=""container"" style=""height:800px;width:800px;display:flex;flex-direction:column;justify-content:center;align-items:center;text-align:center;font-weight:normal;font-family:Arial;font-size:20px""><p>In this task you will see black or white beads being pulled from jars. <br><br>On each trial, a bead will be pulled from one of two jars. Once you see this bead, your goal is to predict the color of NEXT bead that will be pulled. <br> <br>Every time you correctly guess the color of the NEXT bead, you will get a point. <br><br>Press the SPACEBAR to continue.</p><div>","32"
"html-keyboard-response","6","207651","0.0-2.0-1.0","18","High_HMMActual","16579.105000011623","","","","<div class=""container"" style=""height:800px;width:800px;display:flex;flex-direction:column;justify-content:center;align-items:center;text-align:center;font-weight:normal;font-family:Arial;font-size:20px""><p>Jars are filled with 85% white or black beads and 15% of the opposite color mixed in<br><br>Press the SPACEBAR to continue. </p><div>","32"
"image-keyboard-response","7","218858","0.0-2.0-2.0","18","High_HMMActual","11205.235000001267","","","","resources/WhiteJar_HMM.png","32"
"image-keyboard-response","8","226091","0.0-2.0-3.0","18","High_HMMActual","7232.514999981504","","","","resources/BlackJar_HMM.png","32"
"html-keyboard-response","9","241511","0.0-2.0-4.0","18","High_HMMActual","15418.870000023162","","","","<div class=""container"" style=""height:800px;width:800px;display:flex;flex-direction:column;justify-content:center;align-items:center;text-align:center;font-weight:normal;font-family:Arial;font-size:20px""><p>There will be two blocks of trials. Each block will contain 500 trials. <br><br>Here are examples of what you will see on each trial.<br><br>Press the SPACEBAR to continue. </p><div>","32"
"image-keyboard-response","10","255845","0.0-2.0-5.0","18","High_HMMActual","14332.670000003418","","","","Images/NoChoice.png","32"
"html-keyboard-response","11","353326","0.0-2.0-6.0","18","High_HMMActual","97480.08000000846","","","","<div class=""container"" style=""height:800px;width:800px;display:flex;flex-direction:column;justify-content:center;align-items:center;text-align:center;font-weight:normal;font-family:Arial;font-size:20px""><p> The jar the beads are pulled from is NOT choosen at random on each trial.<br><br>After each prediction, there will be a chance that the jars will switch, and that the next bead will be pulled from the opposite jar as the previous trial.<br><br>In each block, the chance that a jar will switch will either be LOW (the jars will not switch very often), or HIGH (the jars will switch almost all the time).<br><br>At the start of each block, you will be told the probability that the jars will switch on each trial. This switch probability will stay constant throughout the block.<br><br>Press the SPACEBAR to continue. </p><div>","32"
"image-keyboard-response","12","404458","0.0-2.0-7.0","18","High_HMMActual","51131.80000000284","","","","Images/TutorialWhiteJarDrawHMMC.png","32"
"image-keyboard-response","13","410240","0.0-2.0-8.0","18","High_HMMActual","5779.875000007451","","","","Images/TutorialBlackJarDrawHMMC.png","32"
"image-keyboard-response","14","413810","0.0-2.0-9.0","18","High_HMMActual","3568.9450000063516","","","","Images/TutorialBlackJarDrawHMMI.png","32"
"html-keyboard-response","15","437251","0.0-2.0-10.0","18","High_HMMActual","23440.34999998985","","","","<div class=""container"" style=""height:800px;width:800px;display:flex;flex-direction:column;justify-content:center;align-items:center;text-align:center;font-weight:normal;font-family:Arial;font-size:20px""><p> As you observed, a white bead was pulled from a 85% white jar, the jars switched and a black bead was pulled from the 85% black jar, but then low-probability white bead was pulled from the 90% black jar. <br><br>In these mixed-jar blocks, you will first have to figure out which jar the current bead was pulled from, then use the jar switch probability to predict the color of the next bead.<br><br>Press SPACEBAR to conitnue.</p><div>","32"
"html-keyboard-response","16","445203","0.0-2.0-11.0","18","High_HMMActual","7951.260000001639","","","","<div class=""container"" style=""height:800px;width:800px;display:flex;flex-direction:column;justify-content:center;align-items:center;text-align:center;font-weight:normal;font-family:Arial;font-size:20px""><p> You will now be given a 2 question quiz to make sure you understand the fundamentals. </p><div>","32"
"image-keyboard-response","17","544022","0.0-2.0-12.0","18","High_HMMActual","98818.02499998594","","","","Images/TutorialQuestion1.png","39"
"image-keyboard-response","18","585775","0.0-2.0-13.0","18","High_HMMActual","32078.99500001804","","","","Images/TutorialQuestion2.png","38"
"html-keyboard-response","19","614205","0.0-3.0","18","High_HMMActual","23098.375000001397","","","","<div class=""container"" style=""height:800px;width:800px;display:flex;flex-direction:column;justify-content:center;align-items:center;text-align:center;font-weight:normal;font-family:Arial;font-size:20px""><p>Loading episode&hellip;</p><div>","32"
"image-keyboard-response","20","625989","0.0-4.0-0.0","18","High_HMMActual","11782.124999997905","","","","Images/NoChoice.png","39"
"image-keyboard-response","21","626245","0.0-4.0-1.0","18","High_HMMActual","null","","","","Images/WhiteBeadChoice.png","null"
"image-keyboard-response","22","626756","0.0-4.0-2.0","18","High_HMMActual","null","","","","Images/WhiteBeadChoiceWrong.png","null"
"image-keyboard-response","23","628647","0.0-4.0-0.1","18","High_HMMActual","1889.6700000041164","","","","Images/NewTrialBC.png","37"
"image-keyboard-response","24","628908","0.0-4.0-1.1","18","High_HMMActual","null","","","","Images/BlackBeadChoice.png","null"
"image-keyboard-response","25","629424","0.0-4.0-2.1","18","High_HMMActual","null","","","","Images/BlackBeadChoiceCorrect.png","null"
"image-keyboard-response","26","632420","0.0-4.0-0.2","18","High_HMMActual","2995.584999996936","","","","Images/NewTrialBC.png","39"
"image-keyboard-response","27","632674","0.0-4.0-1.2","18","High_HMMActual","null","","","","Images/WhiteBeadChoice.png","null"
"image-keyboard-response","28","633186","0.0-4.0-2.2","18","High_HMMActual","null","","","","Images/WhiteBeadChoiceCorrect.png","null"
"image-keyboard-response","29","636351","0.0-4.0-0.3","18","High_HMMActual","3163.1150000030175","","","","Images/NewTrialWC.png","39"
"image-keyboard-response","30","636607","0.0-4.0-1.3","18","High_HMMActual","null","","","","Images/WhiteBeadChoice.png","null"
"image-keyboard-response","31","637122","0.0-4.0-2.3","18","High_HMMActual","null","","","","Images/WhiteBeadChoiceWrong.png","null"
"image-keyboard-response","32","637797","0.0-4.0-0.4","18","High_HMMActual","673.0650000099558","","","","Images/NewTrialBC.png","37"
"image-keyboard-response","33","638057","0.0-4.0-1.4","18","High_HMMActual","null","","","","Images/BlackBeadChoice.png","null"
"image-keyboard-response","34","638570","0.0-4.0-2.4","18","High_HMMActual","null","","","","Images/BlackBeadChoiceWrong.png","null"
"image-keyboard-response","35","640500","0.0-4.0-0.5","18","High_HMMActual","1928.9600000192877","","","","Images/NewTrialWC.png","37"
"image-keyboard-response","36","640752","0.0-4.0-1.5","18","High_HMMActual","null","","","","Images/BlackBeadChoice.png","null"
"image-keyboard-response","37","641268","0.0-4.0-2.5","18","High_HMMActual","null","","","","Images/BlackBeadChoiceCorrect.png","null"
"image-keyboard-response","38","645845","0.0-4.0-0.6","18","High_HMMActual","4575.329999992391","","","","Images/NewTrialBC.png","37"
"image-keyboard-response","39","646102","0.0-4.0-1.6","18","High_HMMActual","null","","","","Images/BlackBeadChoice.png","null"
"image-keyboard-response","40","646619","0.0-4.0-2.6","18","High_HMMActual","null","","","","Images/BlackBeadChoiceWrong.png","null"
"image-keyboard-response","41","648188","0.0-4.0-0.7","18","High_HMMActual","1568.070000008447","","","","Images/NewTrialWC.png","39"
"image-keyboard-response","42","648452","0.0-4.0-1.7","18","High_HMMActual","null","","","","Images/WhiteBeadChoice.png","null"
"image-keyboard-response","43","648965","0.0-4.0-2.7","18","High_HMMActual","null","","","","Images/WhiteBeadChoiceWrong.png","null"
"image-keyboard-response","44","651111","0.0-4.0-0.8","18","High_HMMActual","2144.815000006929","","","","Images/NewTrialBC.png","39"
"image-keyboard-response","45","651369","0.0-4.0-1.8","18","High_HMMActual","null","","","","Images/WhiteBeadChoice.png","null"
"image-keyboard-response","46","651871","0.0-4.0-2.8","18","High_HMMActual","null","","","","Images/WhiteBeadChoiceCorrect.png","null"
"image-keyboard-response","47","652731","0.0-4.0-0.9","18","High_HMMActual","858.9499999943655","","","","Images/NewTrialWC.png","37"
"image-keyboard-response","48","652988","0.0-4.0-1.9","18","High_HMMActual","null","","","","Images/BlackBeadChoice.png","null"
"image-keyboard-response","49","653491","0.0-4.0-2.9","18","High_HMMActual","null","","","","Images/BlackBeadChoiceWrong.png","null"
"image-keyboard-response","50","654493","0.0-4.0-0.10","18","High_HMMActual","1000.5200000014156","","","","Images/NewTrialWC.png","39"
"image-keyboard-response","51","654758","0.0-4.0-1.10","18","High_HMMActual","null","","","","Images/WhiteBeadChoice.png","null"
"image-keyboard-response","52","655275","0.0-4.0-2.10","18","High_HMMActual","null","","","","Images/WhiteBeadChoiceCorrect.png","null"
"image-keyboard-response","53","656143","0.0-4.0-0.11","18","High_HMMActual","866.554999985965","","","","Images/NewTrialWC.png","39"
"image-keyboard-response","54","656409","0.0-4.0-1.11","18","High_HMMActual","null","","","","Images/WhiteBeadChoice.png","null"
"image-keyboard-response","55","656921","0.0-4.0-2.11","18","High_HMMActual","null","","","","Images/WhiteBeadChoiceWrong.png","null"
"image-keyboard-response","56","657683","0.0-4.0-0.12","18","High_HMMActual","761.2150000059046","","","","Images/NewTrialBC.png","37"
"image-keyboard-response","57","657939","0.0-4.0-1.12","18","High_HMMActual","null","","","","Images/BlackBeadChoice.png","null"
"image-keyboard-response","58","658455","0.0-4.0-2.12","18","High_HMMActual","null","","","","Images/BlackBeadChoiceWrong.png","null"
"image-keyboard-response","59","659225","0.0-4.0-0.13","18","High_HMMActual","769.2899999965448","","","","Images/NewTrialWC.png","37"
"image-keyboard-response","60","659478","0.0-4.0-1.13","18","High_HMMActual","null","","","","Images/BlackBeadChoice.png","null"
"image-keyboard-response","61","659980","0.0-4.0-2.13","18","High_HMMActual","null","","","","Images/BlackBeadChoiceCorrect.png","null"
"image-keyboard-response","62","671606","0.0-4.0-0.14","18","High_HMMActual","11624.385000002803","","","","Images/NewTrialBC.png","37"
"image-keyboard-response","63","671868","0.0-4.0-1.14","18","High_HMMActual","null","","","","Images/BlackBeadChoice.png","null"
"image-keyboard-response","64","672376","0.0-4.0-2.14","18","High_HMMActual","null","","","","Images/BlackBeadChoiceWrong.png","null"
"image-keyboard-response","65","672949","0.0-4.0-0.15","18","High_HMMActual","571.5949999867007","","","","Images/NewTrialWC.png","39"
"image-keyboard-response","66","673208","0.0-4.0-1.15","18","High_HMMActual","null","","","","Images/WhiteBeadChoice.png","null"
"image-keyboard-response","67","673721","0.0-4.0-2.15","18","High_HMMActual","null","","","","Images/WhiteBeadChoiceWrong.png","null"
"image-keyboard-response","68","675133","0.0-4.0-0.16","18","High_HMMActual","1410.6150000006892","","","","Images/NewTrialBC.png","37"
"image-keyboard-response","69","675392","0.0-4.0-1.16","18","High_HMMActual","139.06499999575317","","","","Images/BlackBeadChoice.png","39"
"image-keyboard-response","70","675909","0.0-4.0-2.16","18","High_HMMActual","null","","","","Images/BlackBeadChoiceWrong.png","null"
"image-keyboard-response","71","677021","0.0-4.0-0.17","18","High_HMMActual","1110.979999997653","","","","Images/NewTrialWC.png","37"
"image-keyboard-response","72","677276","0.0-4.0-1.17","18","High_HMMActual","null","","","","Images/BlackBeadChoice.png","null"
"image-keyboard-response","73","677778","0.0-4.0-2.17","18","High_HMMActual","null","","","","Images/BlackBeadChoiceCorrect.png","null"
"image-keyboard-response","74","678479","0.0-4.0-0.18","18","High_HMMActual","699.2350000073202","","","","Images/NewTrialBC.png","37"
"image-keyboard-response","75","678735","0.0-4.0-1.18","18","High_HMMActual","null","","","","Images/BlackBeadChoice.png","null"
"image-keyboard-response","76","679240","0.0-4.0-2.18","18","High_HMMActual","null","","","","Images/BlackBeadChoiceWrong.png","null"
"image-keyboard-response","77","679814","0.0-4.0-0.19","18","High_HMMActual","573.5400000121444","","","","Images/NewTrialWC.png","39"
"image-keyboard-response","78","680066","0.0-4.0-1.19","18","High_HMMActual","null","","","","Images/WhiteBeadChoice.png","null"
"image-keyboard-response","79","680583","0.0-4.0-2.19","18","High_HMMActual","null","","","","Images/WhiteBeadChoiceWrong.png","null"
"image-keyboard-response","80","694210","0.0-4.0-0.20","18","High_HMMActual","13626.390000019455","","","","Images/NewTrialBC.png","39"
"image-keyboard-response","81","694465","0.0-4.0-1.20","18","High_HMMActual","null","","","","Images/WhiteBeadChoice.png","null"
"image-keyboard-response","82","694970","0.0-4.0-2.20","18","High_HMMActual","null","","","","Images/WhiteBeadChoiceCorrect.png","null"
"image-keyboard-response","83","695682","0.0-4.0-0.21","18","High_HMMActual","705.2450000192039","","","","Images/NewTrialWC.png","37"
"image-keyboard-response","84","695939","0.0-4.0-1.21","18","High_HMMActual","null","","","","Images/BlackBeadChoice.png","null"
"image-keyboard-response","85","696440","0.0-4.0-2.21","18","High_HMMActual","null","","","","Images/BlackBeadChoiceCorrect.png","null"
"image-keyboard-response","86","702067","0.0-4.0-0.22","18","High_HMMActual","5625.059999991208","","","","Images/NewTrialBC.png","37"
"image-keyboard-response","87","702324","0.0-4.0-1.22","18","High_HMMActual","null","","","","Images/BlackBeadChoice.png","null"
"image-keyboard-response","88","702829","0.0-4.0-2.22","18","High_HMMActual","null","","","","Images/BlackBeadChoiceWrong.png","null"
"image-keyboard-response","89","704201","0.0-4.0-0.23","18","High_HMMActual","1371.0600000049453","","","","Images/NewTrialWC.png","39"
"image-keyboard-response","90","704461","0.0-4.0-1.23","18","High_HMMActual","null","","","","Images/WhiteBeadChoice.png","null"
"image-keyboard-response","91","704965","0.0-4.0-2.23","18","High_HMMActual","null","","","","Images/WhiteBeadChoiceWrong.png","null"
"image-keyboard-response","92","705863","0.0-4.0-0.24","18","High_HMMActual","896.7100000008941","","","","Images/NewTrialBC.png","39"
"image-keyboard-response","93","706129","0.0-4.0-1.24","18","High_HMMActual","null","","","","Images/WhiteBeadChoice.png","null"
"image-keyboard-response","94","706632","0.0-4.0-2.24","18","High_HMMActual","null","","","","Images/WhiteBeadChoiceCorrect.png","null"
"image-keyboard-response","95","709234","0.0-4.0-0.25","18","High_HMMActual","2600.895000010496","","","","Images/NewTrialWC.png","39"
"image-keyboard-response","96","709500","0.0-4.0-1.25","18","High_HMMActual","null","","","","Images/WhiteBeadChoice.png","null"
"image-keyboard-response","97","710004","0.0-4.0-2.25","18","High_HMMActual","null","","","","Images/WhiteBeadChoiceWrong.png","null"
"image-keyboard-response","98","711021","0.0-4.0-0.26","18","High_HMMActual","1016.364999988582","","","","Images/NewTrialBC.png","37"
"image-keyboard-response","99","711287","0.0-4.0-1.26","18","High_HMMActual","null","","","","Images/BlackBeadChoice.png","null"
"image-keyboard-response","100","711789","0.0-4.0-2.26","18","High_HMMActual","null","","","","Images/BlackBeadChoiceCorrect.png","null"
"image-keyboard-response","101","715401","0.0-4.0-0.27","18","High_HMMActual","3610.9449999930803","","","","Images/NewTrialBC.png","39"
"image-keyboard-response","102","715658","0.0-4.0-1.27","18","High_HMMActual","null","","","","Images/WhiteBeadChoice.png","null"
"image-keyboard-response","103","716174","0.0-4.0-2.27","18","High_HMMActual","null","","","","Images/WhiteBeadChoiceWrong.png","null"
"image-keyboard-response","104","718425","0.0-4.0-0.28","18","High_HMMActual","2249.794999981532","","","","Images/NewTrialBC.png","37"
"image-keyboard-response","105","718679","0.0-4.0-1.28","18","High_HMMActual","null","","","","Images/BlackBeadChoice.png","null"
"image-keyboard-response","106","719196","0.0-4.0-2.28","18","High_HMMActual","483.9100000099279","","","","Images/BlackBeadChoiceWrong.png","39"
"image-keyboard-response","107","721294","0.0-4.0-0.29","18","High_HMMActual","2096.644999983255","","","","Images/NewTrialWC.png","37"
"image-keyboard-response","108","721553","0.0-4.0-1.29","18","High_HMMActual","null","","","","Images/BlackBeadChoice.png","null"
"image-keyboard-response","109","722054","0.0-4.0-2.29","18","High_HMMActual","null","","","","Images/BlackBeadChoiceCorrect.png","null"
"image-keyboard-response","110","723340","0.0-4.0-0.30","18","High_HMMActual","1284.4850000110455","","","","Images/NewTrialBC.png","39"
"image-keyboard-response","111","723594","0.0-4.0-1.30","18","High_HMMActual","null","","","","Images/WhiteBeadChoice.png","null"
"image-keyboard-response","112","724096","0.0-4.0-2.30","18","High_HMMActual","null","","","","Images/WhiteBeadChoiceCorrect.png","null"
"image-keyboard-response","113","724766","0.0-4.0-0.31","18","High_HMMActual","668.3349999948405","","","","Images/NewTrialWC.png","39"
"image-keyboard-response","114","725030","0.0-4.0-1.31","18","High_HMMActual","null","","","","Images/WhiteBeadChoice.png","null"
"image-keyboard-response","115","725532","0.0-4.0-2.31","18","High_HMMActual","null","","","","Images/WhiteBeadChoiceWrong.png","null"
"image-keyboard-response","116","726281","0.0-4.0-0.32","18","High_HMMActual","747.4350000265986","","","","Images/NewTrialBC.png","39"
"image-keyboard-response","117","726542","0.0-4.0-1.32","18","High_HMMActual","null","","","","Images/WhiteBeadChoice.png","null"
"image-keyboard-response","118","727045","0.0-4.0-2.32","18","High_HMMActual","null","","","","Images/WhiteBeadChoiceWrong.png","null"
"image-keyboard-response","119","730675","0.0-4.0-0.33","18","High_HMMActual","3629.690000001574","","","","Images/NewTrialBC.png","39"
"image-keyboard-response","120","730930","0.0-4.0-1.33","18","High_HMMActual","null","","","","Images/WhiteBeadChoice.png","null"
"image-keyboard-response","121","731433","0.0-4.0-2.33","18","High_HMMActual","null","","","","Images/WhiteBeadChoiceCorrect.png","null"
"image-keyboard-response","122","746839","0.0-4.0-0.34","18","High_HMMActual","15405.70000000298","","","","Images/NewTrialWC.png","39"
"image-keyboard-response","123","747091","0.0-4.0-1.34","18","High_HMMActual","null","","","","Images/WhiteBeadChoice.png","null"
"image-keyboard-response","124","747593","0.0-4.0-2.34","18","High_HMMActual","null","","","","Images/WhiteBeadChoiceCorrect.png","null"
"image-keyboard-response","125","748761","0.0-4.0-0.35","18","High_HMMActual","1167.0499999891035","","","","Images/NewTrialWC.png","39"
"image-keyboard-response","126","749016","0.0-4.0-1.35","18","High_HMMActual","null","","","","Images/WhiteBeadChoice.png","null"
"image-keyboard-response","127","749518","0.0-4.0-2.35","18","High_HMMActual","null","","","","Images/WhiteBeadChoiceWrong.png","null"
"image-keyboard-response","128","750573","0.0-4.0-0.36","18","High_HMMActual","1053.4449999977369","","","","Images/NewTrialBC.png","39"
"image-keyboard-response","129","750824","0.0-4.0-1.36","18","High_HMMActual","null","","","","Images/WhiteBeadChoice.png","null"
"image-keyboard-response","130","751327","0.0-4.0-2.36","18","High_HMMActual","null","","","","Images/WhiteBeadChoiceCorrect.png","null"
"image-keyboard-response","131","751647","0.0-4.0-0.37","18","High_HMMActual","318.78999999025837","","","","Images/NewTrialWC.png","39"
"image-keyboard-response","132","751900","0.0-4.0-1.37","18","High_HMMActual","null","","","","Images/WhiteBeadChoice.png","null"
"image-keyboard-response","133","752404","0.0-4.0-2.37","18","High_HMMActual","null","","","","Images/WhiteBeadChoiceWrong.png","null"
"image-keyboard-response","134","752926","0.0-4.0-0.38","18","High_HMMActual","520.9800000011455","","","","Images/NewTrialBC.png","39"
"image-keyboard-response","135","753179","0.0-4.0-1.38","18","High_HMMActual","null","","","","Images/WhiteBeadChoice.png","null"
"image-keyboard-response","136","753683","0.0-4.0-2.38","18","High_HMMActual","null","","","","Images/WhiteBeadChoiceCorrect.png","null"
"image-keyboard-response","137","754509","0.0-4.0-0.39","18","High_HMMActual","825.1149999850895","","","","Images/NewTrialWC.png","39"
"image-keyboard-response","138","754774","0.0-4.0-1.39","18","High_HMMActual","null","","","","Images/WhiteBeadChoice.png","null"
"image-keyboard-response","139","755290","0.0-4.0-2.39","18","High_HMMActual","null","","","","Images/WhiteBeadChoiceWrong.png","null"
"image-keyboard-response","140","755634","0.0-4.0-0.40","18","High_HMMActual","342.94500001124106","","","","Images/NewTrialBC.png","39"
"image-keyboard-response","141","755895","0.0-4.0-1.40","18","High_HMMActual","null","","","","Images/WhiteBeadChoice.png","null"
"image-keyboard-response","142","756401","0.0-4.0-2.40","18","High_HMMActual","null","","","","Images/WhiteBeadChoiceCorrect.png","null"
"image-keyboard-response","143","757330","0.0-4.0-0.41","18","High_HMMActual","927.9850000166334","","","","Images/NewTrialWC.png","39"
"image-keyboard-response","144","757591","0.0-4.0-1.41","18","High_HMMActual","null","","","","Images/WhiteBeadChoice.png","null"
"image-keyboard-response","145","758096","0.0-4.0-2.41","18","High_HMMActual","null","","","","Images/WhiteBeadChoiceWrong.png","null"
"image-keyboard-response","146","758717","0.0-4.0-0.42","18","High_HMMActual","619.3849999981467","","","","Images/NewTrialBC.png","39"
"image-keyboard-response","147","758972","0.0-4.0-1.42","18","High_HMMActual","null","","","","Images/WhiteBeadChoice.png","null"
"image-keyboard-response","148","759475","0.0-4.0-2.42","18","High_HMMActual","293.1899999966845","","","","Images/WhiteBeadChoiceCorrect.png","39"
"image-keyboard-response","149","759713","0.0-4.0-0.43","18","High_HMMActual","237.0799999916926","","","","Images/NewTrialWC.png","39"
"image-keyboard-response","150","759973","0.0-4.0-1.43","18","High_HMMActual","null","","","","Images/WhiteBeadChoice.png","null"
"image-keyboard-response","151","760478","0.0-4.0-2.43","18","High_HMMActual","null","","","","Images/WhiteBeadChoiceWrong.png","null"
"image-keyboard-response","152","762312","0.0-4.0-0.44","18","High_HMMActual","1832.525000005262","","","","Images/NewTrialBC.png","39"
"image-keyboard-response","153","762571","0.0-4.0-1.44","18","High_HMMActual","null","","","","Images/WhiteBeadChoice.png","null"
"image-keyboard-response","154","763078","0.0-4.0-2.44","18","High_HMMActual","126.69499998446554","","","","Images/WhiteBeadChoiceCorrect.png","39"
"image-keyboard-response","155","765305","0.0-4.0-0.45","18","High_HMMActual","2226.295000000391","","","","Images/NewTrialWC.png","39"
"image-keyboard-response","156","765572","0.0-4.0-1.45","18","High_HMMActual","null","","","","Images/WhiteBeadChoice.png","null"
"image-keyboard-response","157","766079","0.0-4.0-2.45","18","High_HMMActual","null","","","","Images/WhiteBeadChoiceWrong.png","null"
"image-keyboard-response","158","767119","0.0-4.0-0.46","18","High_HMMActual","1038.780000002589","","","","Images/NewTrialBC.png","37"
"image-keyboard-response","159","767372","0.0-4.0-1.46","18","High_HMMActual","null","","","","Images/BlackBeadChoice.png","null"
"image-keyboard-response","160","767878","0.0-4.0-2.46","18","High_HMMActual","null","","","","Images/BlackBeadChoiceWrong.png","null"
"image-keyboard-response","161","769331","0.0-4.0-0.47","18","High_HMMActual","1451.7850000120234","","","","Images/NewTrialWC.png","39"
"image-keyboard-response","162","769591","0.0-4.0-1.47","18","High_HMMActual","null","","","","Images/WhiteBeadChoice.png","null"
"image-keyboard-response","163","770100","0.0-4.0-2.47","18","High_HMMActual","null","","","","Images/WhiteBeadChoiceWrong.png","null"
"image-keyboard-response","164","772234","0.0-4.0-0.48","18","High_HMMActual","2132.6700000208803","","","","Images/NewTrialBC.png","39"
"image-keyboard-response","165","772493","0.0-4.0-1.48","18","High_HMMActual","null","","","","Images/WhiteBeadChoice.png","null"
"image-keyboard-response","166","773000","0.0-4.0-2.48","18","High_HMMActual","null","","","","Images/WhiteBeadChoiceWrong.png","null"
"image-keyboard-response","167","774531","0.0-4.0-0.49","18","High_HMMActual","1529.9200000008568","","","","Images/NewTrialBC.png","39"
"image-keyboard-response","168","774797","0.0-4.0-1.49","18","High_HMMActual","null","","","","Images/WhiteBeadChoice.png","null"
"image-keyboard-response","169","775302","0.0-4.0-2.49","18","High_HMMActual","null","","","","Images/WhiteBeadChoiceCorrect.png","null"
"image-keyboard-response","170","777903","0.0-4.0-0.50","18","High_HMMActual","2600.444999989122","","","","Images/NewTrialWC.png","37"
"image-keyboard-response","171","778155","0.0-4.0-1.50","18","High_HMMActual","null","","","","Images/BlackBeadChoice.png","null"
"image-keyboard-response","172","778660","0.0-4.0-2.50","18","High_HMMActual","null","","","","Images/BlackBeadChoiceCorrect.png","null"
"image-keyboard-response","173","783661","0.0-4.0-0.51","18","High_HMMActual","5000.005000008969","","","","Images/NewTrialBC.png","39"
"image-keyboard-response","174","783920","0.0-4.0-1.51","18","High_HMMActual","null","","","","Images/WhiteBeadChoice.png","null"
"image-keyboard-response","175","784426","0.0-4.0-2.51","18","High_HMMActual","null","","","","Images/WhiteBeadChoiceCorrect.png","null"
"image-keyboard-response","176","785666","0.0-4.0-0.52","18","High_HMMActual","1239.239999995334","","","","Images/NewTrialWC.png","39"
"image-keyboard-response","177","785926","0.0-4.0-1.52","18","High_HMMActual","null","","","","Images/WhiteBeadChoice.png","null"
"image-keyboard-response","178","786432","0.0-4.0-2.52","18","High_HMMActual","null","","","","Images/WhiteBeadChoiceWrong.png","null"
"image-keyboard-response","179","787520","0.0-4.0-0.53","18","High_HMMActual","1086.47499998915","","","","Images/NewTrialBC.png","37"
"image-keyboard-response","180","787780","0.0-4.0-1.53","18","High_HMMActual","null","","","","Images/BlackBeadChoice.png","null"
"image-keyboard-response","181","788290","0.0-4.0-2.53","18","High_HMMActual","null","","","","Images/BlackBeadChoiceWrong.png","null"
"image-keyboard-response","182","788722","0.0-4.0-0.54","18","High_HMMActual","430.95000000903383","","","","Images/NewTrialWC.png","39"
"image-keyboard-response","183","788985","0.0-4.0-1.54","18","High_HMMActual","null","","","","Images/WhiteBeadChoice.png","null"
"image-keyboard-response","184","789495","0.0-4.0-2.54","18","High_HMMActual","null","","","","Images/WhiteBeadChoiceWrong.png","null"
"image-keyboard-response","185","791215","0.0-4.0-0.55","18","High_HMMActual","1718.815000000177","","","","Images/NewTrialBC.png","39"
"image-keyboard-response","186","791477","0.0-4.0-1.55","18","High_HMMActual","null","","","","Images/WhiteBeadChoice.png","null"
"image-keyboard-response","187","791986","0.0-4.0-2.55","18","High_HMMActual","null","","","","Images/WhiteBeadChoiceCorrect.png","null"
"image-keyboard-response","188","793136","0.0-4.0-0.56","18","High_HMMActual","1148.860000015702","","","","Images/NewTrialWC.png","39"
"image-keyboard-response","189","793395","0.0-4.0-1.56","18","High_HMMActual","null","","","","Images/WhiteBeadChoice.png","null"
"image-keyboard-response","190","793903","0.0-4.0-2.56","18","High_HMMActual","null","","","","Images/WhiteBeadChoiceWrong.png","null"
"image-keyboard-response","191","795601","0.0-4.0-0.57","18","High_HMMActual","1696.2150000035763","","","","Images/NewTrialBC.png","39"
"image-keyboard-response","192","795868","0.0-4.0-1.57","18","High_HMMActual","null","","","","Images/WhiteBeadChoice.png","null"
"image-keyboard-response","193","796380","0.0-4.0-2.57","18","High_HMMActual","null","","","","Images/WhiteBeadChoiceCorrect.png","null"
"image-keyboard-response","194","801561","0.0-4.0-0.58","18","High_HMMActual","5180.129999993369","","","","Images/NewTrialWC.png","39"
"image-keyboard-response","195","801823","0.0-4.0-1.58","18","High_HMMActual","null","","","","Images/WhiteBeadChoice.png","null"
"image-keyboard-response","196","802331","0.0-4.0-2.58","18","High_HMMActual","null","","","","Images/WhiteBeadChoiceWrong.png","null"
"image-keyboard-response","197","803036","0.0-4.0-0.59","18","High_HMMActual","704.2599999986123","","","","Images/NewTrialBC.png","37"
"image-keyboard-response","198","803298","0.0-4.0-1.59","18","High_HMMActual","null","","","","Images/BlackBeadChoice.png","null"
"image-keyboard-response","199","803806","0.0-4.0-2.59","18","High_HMMActual","345.01499999896623","","","","Images/BlackBeadChoiceWrong.png","39"
"image-keyboard-response","200","805278","0.0-4.0-0.60","18","High_HMMActual","1471.0349999950267","","","","Images/NewTrialWC.png","39"
"image-keyboard-response","201","805542","0.0-4.0-1.60","18","High_HMMActual","null","","","","Images/WhiteBeadChoice.png","null"
"image-keyboard-response","202","806050","0.0-4.0-2.60","18","High_HMMActual","null","","","","Images/WhiteBeadChoiceWrong.png","null"
"image-keyboard-response","203","806637","0.0-4.0-0.61","18","High_HMMActual","585.640000004787","","","","Images/NewTrialBC.png","39"
"image-keyboard-response","204","806890","0.0-4.0-1.61","18","High_HMMActual","null","","","","Images/WhiteBeadChoice.png","null"
"image-keyboard-response","205","807399","0.0-4.0-2.61","18","High_HMMActual","null","","","","Images/WhiteBeadChoiceCorrect.png","null"
"image-keyboard-response","206","808011","0.0-4.0-0.62","18","High_HMMActual","611.1000000091735","","","","Images/NewTrialWC.png","39"
"image-keyboard-response","207","808265","0.0-4.0-1.62","18","High_HMMActual","null","","","","Images/WhiteBeadChoice.png","null"
"image-keyboard-response","208","808774","0.0-4.0-2.62","18","High_HMMActual","null","","","","Images/WhiteBeadChoiceWrong.png","null"
"image-keyboard-response","209","809890","0.0-4.0-0.63","18","High_HMMActual","1114.8950000060722","","","","Images/NewTrialBC.png","39"
"image-keyboard-response","210","810156","0.0-4.0-1.63","18","High_HMMActual","null","","","","Images/WhiteBeadChoice.png","null"
"image-keyboard-response","211","810666","0.0-4.0-2.63","18","High_HMMActual","null","","","","Images/WhiteBeadChoiceCorrect.png","null"
"image-keyboard-response","212","811038","0.0-4.0-0.64","18","High_HMMActual","371.37999999686144","","","","Images/NewTrialWC.png","39"
"image-keyboard-response","213","811304","0.0-4.0-1.64","18","High_HMMActual","null","","","","Images/WhiteBeadChoice.png","null"
"image-keyboard-response","214","811812","0.0-4.0-2.64","18","High_HMMActual","null","","","","Images/WhiteBeadChoiceWrong.png","null"
"image-keyboard-response","215","812247","0.0-4.0-0.65","18","High_HMMActual","433.54500000714324","","","","Images/NewTrialBC.png","39"
"image-keyboard-response","216","812499","0.0-4.0-1.65","18","High_HMMActual","null","","","","Images/WhiteBeadChoice.png","null"
"image-keyboard-response","217","813008","0.0-4.0-2.65","18","High_HMMActual","null","","","","Images/WhiteBeadChoiceWrong.png","null"
"image-keyboard-response","218","813066","0.0-4.0-0.66","18","High_HMMActual","55.26999998255633","","","","Images/NewTrialBC.png","39"
"image-keyboard-response","219","813329","0.0-4.0-1.66","18","High_HMMActual","null","","","","Images/WhiteBeadChoice.png","null"
"image-keyboard-response","220","813838","0.0-4.0-2.66","18","High_HMMActual","null","","","","Images/WhiteBeadChoiceCorrect.png","null"
"image-keyboard-response","221","813859","0.0-4.0-0.67","18","High_HMMActual","19.85500002047047","","","","Images/NewTrialWC.png","39"
"image-keyboard-response","222","814113","0.0-4.0-1.67","18","High_HMMActual","null","","","","Images/WhiteBeadChoice.png","null"
"image-keyboard-response","223","814623","0.0-4.0-2.67","18","High_HMMActual","null","","","","Images/WhiteBeadChoiceWrong.png","null"
"image-keyboard-response","224","817419","0.0-4.0-0.68","18","High_HMMActual","2794.8449999967124","","","","Images/NewTrialBC.png","39"
"image-keyboard-response","225","817680","0.0-4.0-1.68","18","High_HMMActual","211.1600000062026","","","","Images/WhiteBeadChoice.png","39"
"image-keyboard-response","226","818196","0.0-4.0-2.68","18","High_HMMActual","217.3299999849405","","","","Images/WhiteBeadChoiceCorrect.png","39"
"image-keyboard-response","227","819396","0.0-4.0-0.69","18","High_HMMActual","1198.035000008531","","","","Images/NewTrialWC.png","39"
"image-keyboard-response","228","819659","0.0-4.0-1.69","18","High_HMMActual","null","","","","Images/WhiteBeadChoice.png","null"
"image-keyboard-response","229","820172","0.0-4.0-2.69","18","High_HMMActual","null","","","","Images/WhiteBeadChoiceWrong.png","null"
"image-keyboard-response","230","821237","0.0-4.0-0.70","18","High_HMMActual","1063.3149999775924","","","","Images/NewTrialBC.png","37"
"image-keyboard-response","231","821493","0.0-4.0-1.70","18","High_HMMActual","null","","","","Images/BlackBeadChoice.png","null"
"image-keyboard-response","232","822003","0.0-4.0-2.70","18","High_HMMActual","null","","","","Images/BlackBeadChoiceWrong.png","null"
"image-keyboard-response","233","823424","0.0-4.0-0.71","18","High_HMMActual","1419.5100000069942","","","","Images/NewTrialWC.png","39"
"image-keyboard-response","234","823689","0.0-4.0-1.71","18","High_HMMActual","null","","","","Images/WhiteBeadChoice.png","null"
"image-keyboard-response","235","824200","0.0-4.0-2.71","18","High_HMMActual","null","","","","Images/WhiteBeadChoiceWrong.png","null"
"image-keyboard-response","236","838286","0.0-4.0-0.72","18","High_HMMActual","14084.579999995185","","","","Images/NewTrialBC.png","37"
"image-keyboard-response","237","838541","0.0-4.0-1.72","18","High_HMMActual","null","","","","Images/BlackBeadChoice.png","null"
"image-keyboard-response","238","839049","0.0-4.0-2.72","18","High_HMMActual","null","","","","Images/BlackBeadChoiceWrong.png","null"
"image-keyboard-response","239","841648","0.0-4.0-0.73","18","High_HMMActual","2597.6800000062212","","","","Images/NewTrialWC.png","39"
"image-keyboard-response","240","841905","0.0-4.0-1.73","18","High_HMMActual","null","","","","Images/WhiteBeadChoice.png","null"
"image-keyboard-response","241","842418","0.0-4.0-2.73","18","High_HMMActual","null","","","","Images/WhiteBeadChoiceWrong.png","null"
"image-keyboard-response","242","844809","0.0-4.0-0.74","18","High_HMMActual","2389.3450000032317","","","","Images/NewTrialBC.png","39"
"image-keyboard-response","243","845070","0.0-4.0-1.74","18","High_HMMActual","null","","","","Images/WhiteBeadChoice.png","null"
"image-keyboard-response","244","845581","0.0-4.0-2.74","18","High_HMMActual","null","","","","Images/WhiteBeadChoiceCorrect.png","null"
"image-keyboard-response","245","847198","0.0-4.0-0.75","18","High_HMMActual","1616.4799999969546","","","","Images/NewTrialWC.png","37"
"image-keyboard-response","246","847454","0.0-4.0-1.75","18","High_HMMActual","null","","","","Images/BlackBeadChoice.png","null"
"image-keyboard-response","247","847963","0.0-4.0-2.75","18","High_HMMActual","null","","","","Images/BlackBeadChoiceCorrect.png","null"
"image-keyboard-response","248","848741","0.0-4.0-0.76","18","High_HMMActual","777.299999987008","","","","Images/NewTrialBC.png","39"
"image-keyboard-response","249","849000","0.0-4.0-1.76","18","High_HMMActual","null","","","","Images/WhiteBeadChoice.png","null"
"image-keyboard-response","250","849510","0.0-4.0-2.76","18","High_HMMActual","null","","","","Images/WhiteBeadChoiceCorrect.png","null"
"image-keyboard-response","251","851040","0.0-4.0-0.77","18","High_HMMActual","1529.3599999858998","","","","Images/NewTrialWC.png","37"
"image-keyboard-response","252","851296","0.0-4.0-1.77","18","High_HMMActual","null","","","","Images/BlackBeadChoice.png","null"
"image-keyboard-response","253","851805","0.0-4.0-2.77","18","High_HMMActual","null","","","","Images/BlackBeadChoiceCorrect.png","null"
"image-keyboard-response","254","852860","0.0-4.0-0.78","18","High_HMMActual","1053.9599999901839","","","","Images/NewTrialBC.png","39"
"image-keyboard-response","255","853114","0.0-4.0-1.78","18","High_HMMActual","null","","","","Images/WhiteBeadChoice.png","null"
"image-keyboard-response","256","853629","0.0-4.0-2.78","18","High_HMMActual","null","","","","Images/WhiteBeadChoiceCorrect.png","null"
"image-keyboard-response","257","855081","0.0-4.0-0.79","18","High_HMMActual","1450.95999998739","","","","Images/NewTrialWC.png","39"
"image-keyboard-response","258","855335","0.0-4.0-1.79","18","High_HMMActual","null","","","","Images/WhiteBeadChoice.png","null"
"image-keyboard-response","259","855848","0.0-4.0-2.79","18","High_HMMActual","null","","","","Images/WhiteBeadChoiceWrong.png","null"
"image-keyboard-response","260","856918","0.0-4.0-0.80","18","High_HMMActual","1069.3750000209548","","","","Images/NewTrialBC.png","37"
"image-keyboard-response","261","857173","0.0-4.0-1.80","18","High_HMMActual","null","","","","Images/BlackBeadChoice.png","null"
"image-keyboard-response","262","857686","0.0-4.0-2.80","18","High_HMMActual","null","","","","Images/BlackBeadChoiceWrong.png","null"
"image-keyboard-response","263","858912","0.0-4.0-0.81","18","High_HMMActual","1224.9350000056438","","","","Images/NewTrialWC.png","37"
"image-keyboard-response","264","859174","0.0-4.0-1.81","18","High_HMMActual","null","","","","Images/BlackBeadChoice.png","null"
"image-keyboard-response","265","859686","0.0-4.0-2.81","18","High_HMMActual","null","","","","Images/BlackBeadChoiceCorrect.png","null"
"image-keyboard-response","266","860772","0.0-4.0-0.82","18","High_HMMActual","1084.7350000112783","","","","Images/NewTrialBC.png","39"
"image-keyboard-response","267","861025","0.0-4.0-1.82","18","High_HMMActual","null","","","","Images/WhiteBeadChoice.png","null"
"image-keyboard-response","268","861538","0.0-4.0-2.82","18","High_HMMActual","null","","","","Images/WhiteBeadChoiceCorrect.png","null"
"image-keyboard-response","269","862458","0.0-4.0-0.83","18","High_HMMActual","918.7549999915063","","","","Images/NewTrialWC.png","37"
"image-keyboard-response","270","862725","0.0-4.0-1.83","18","High_HMMActual","null","","","","Images/BlackBeadChoice.png","null"
"image-keyboard-response","271","863240","0.0-4.0-2.83","18","High_HMMActual","null","","","","Images/BlackBeadChoiceCorrect.png","null"
"image-keyboard-response","272","864323","0.0-4.0-0.84","18","High_HMMActual","1081.6199999826495","","","","Images/NewTrialBC.png","39"
"image-keyboard-response","273","864584","0.0-4.0-1.84","18","High_HMMActual","null","","","","Images/WhiteBeadChoice.png","null"
"image-keyboard-response","274","865096","0.0-4.0-2.84","18","High_HMMActual","null","","","","Images/WhiteBeadChoiceCorrect.png","null"
"image-keyboard-response","275","866270","0.0-4.0-0.85","18","High_HMMActual","1172.5199999928009","","","","Images/NewTrialWC.png","37"
"image-keyboard-response","276","866523","0.0-4.0-1.85","18","High_HMMActual","null","","","","Images/BlackBeadChoice.png","null"
"image-keyboard-response","277","867035","0.0-4.0-2.85","18","High_HMMActual","null","","","","Images/BlackBeadChoiceWrong.png","null"
"image-keyboard-response","278","867570","0.0-4.0-0.86","18","High_HMMActual","533.9450000028592","","","","Images/NewTrialWC.png","39"
"image-keyboard-response","279","867825","0.0-4.0-1.86","18","High_HMMActual","null","","","","Images/WhiteBeadChoice.png","null"
"image-keyboard-response","280","868336","0.0-4.0-2.86","18","High_HMMActual","null","","","","Images/WhiteBeadChoiceWrong.png","null"
"image-keyboard-response","281","870225","0.0-4.0-0.87","18","High_HMMActual","1887.6499999896623","","","","Images/NewTrialBC.png","37"
"image-keyboard-response","282","870493","0.0-4.0-1.87","18","High_HMMActual","null","","","","Images/BlackBeadChoice.png","null"
"image-keyboard-response","283","871005","0.0-4.0-2.87","18","High_HMMActual","null","","","","Images/BlackBeadChoiceWrong.png","null"
"image-keyboard-response","284","871722","0.0-4.0-0.88","18","High_HMMActual","715.8099999942351","","","","Images/NewTrialWC.png","39"
"image-keyboard-response","285","871982","0.0-4.0-1.88","18","High_HMMActual","null","","","","Images/WhiteBeadChoice.png","null"
"image-keyboard-response","286","872493","0.0-4.0-2.88","18","High_HMMActual","null","","","","Images/WhiteBeadChoiceWrong.png","null"
"image-keyboard-response","287","873534","0.0-4.0-0.89","18","High_HMMActual","1039.714999991702","","","","Images/NewTrialBC.png","39"
"image-keyboard-response","288","873789","0.0-4.0-1.89","18","High_HMMActual","null","","","","Images/WhiteBeadChoice.png","null"
"image-keyboard-response","289","874300","0.0-4.0-2.89","18","High_HMMActual","null","","","","Images/WhiteBeadChoiceCorrect.png","null"
"image-keyboard-response","290","875020","0.0-4.0-0.90","18","High_HMMActual","718.9599999983329","","","","Images/NewTrialWC.png","37"
"image-keyboard-response","291","875279","0.0-4.0-1.90","18","High_HMMActual","null","","","","Images/BlackBeadChoice.png","null"
"image-keyboard-response","292","875793","0.0-4.0-2.90","18","High_HMMActual","null","","","","Images/BlackBeadChoiceWrong.png","null"
"image-keyboard-response","293","877519","0.0-4.0-0.91","18","High_HMMActual","1725.064999976894","","","","Images/NewTrialWC.png","37"
"image-keyboard-response","294","877772","0.0-4.0-1.91","18","High_HMMActual","null","","","","Images/BlackBeadChoice.png","null"
"image-keyboard-response","295","878285","0.0-4.0-2.91","18","High_HMMActual","null","","","","Images/BlackBeadChoiceWrong.png","null"
"image-keyboard-response","296","879288","0.0-4.0-0.92","18","High_HMMActual","1001.7900000093505","","","","Images/NewTrialWC.png","39"
"image-keyboard-response","297","879546","0.0-4.0-1.92","18","High_HMMActual","null","","","","Images/WhiteBeadChoice.png","null"
"image-keyboard-response","298","880058","0.0-4.0-2.92","18","High_HMMActual","null","","","","Images/WhiteBeadChoiceWrong.png","null"
"image-keyboard-response","299","881156","0.0-4.0-0.93","18","High_HMMActual","1097.1150000113994","","","","Images/NewTrialBC.png","37"
"image-keyboard-response","300","881420","0.0-4.0-1.93","18","High_HMMActual","null","","","","Images/BlackBeadChoice.png","null"
"image-keyboard-response","301","881933","0.0-4.0-2.93","18","High_HMMActual","null","","","","Images/BlackBeadChoiceWrong.png","null"
"image-keyboard-response","302","882576","0.0-4.0-0.94","18","High_HMMActual","641.4399999775924","","","","Images/NewTrialWC.png","37"
"image-keyboard-response","303","882830","0.0-4.0-1.94","18","High_HMMActual","null","","","","Images/BlackBeadChoice.png","null"
"image-keyboard-response","304","883345","0.0-4.0-2.94","18","High_HMMActual","null","","","","Images/BlackBeadChoiceCorrect.png","null"
"image-keyboard-response","305","884684","0.0-4.0-0.95","18","High_HMMActual","1338.1499999959487","","","","Images/NewTrialBC.png","37"
"image-keyboard-response","306","884940","0.0-4.0-1.95","18","High_HMMActual","null","","","","Images/BlackBeadChoice.png","null"
"image-keyboard-response","307","885452","0.0-4.0-2.95","18","High_HMMActual","null","","","","Images/BlackBeadChoiceWrong.png","null"
"image-keyboard-response","308","886366","0.0-4.0-0.96","18","High_HMMActual","912.3449999897275","","","","Images/NewTrialWC.png","37"
"image-keyboard-response","309","886631","0.0-4.0-1.96","18","High_HMMActual","null","","","","Images/BlackBeadChoice.png","null"
"image-keyboard-response","310","887148","0.0-4.0-2.96","18","High_HMMActual","null","","","","Images/BlackBeadChoiceCorrect.png","null"
"image-keyboard-response","311","887921","0.0-4.0-0.97","18","High_HMMActual","771.5949999983422","","","","Images/NewTrialBC.png","39"
"image-keyboard-response","312","888179","0.0-4.0-1.97","18","High_HMMActual","null","","","","Images/WhiteBeadChoice.png","null"
"image-keyboard-response","313","888694","0.0-4.0-2.97","18","High_HMMActual","null","","","","Images/WhiteBeadChoiceCorrect.png","null"
"image-keyboard-response","314","890335","0.0-4.0-0.98","18","High_HMMActual","1638.95500000217","","","","Images/NewTrialWC.png","39"
"image-keyboard-response","315","890588","0.0-4.0-1.98","18","High_HMMActual","null","","","","Images/WhiteBeadChoice.png","null"
"image-keyboard-response","316","891103","0.0-4.0-2.98","18","High_HMMActual","null","","","","Images/WhiteBeadChoiceWrong.png","null"
"image-keyboard-response","317","892460","0.0-4.0-0.99","18","High_HMMActual","1356.2650000094436","","","","Images/NewTrialBC.png","37"
"image-keyboard-response","318","892716","0.0-4.0-1.99","18","High_HMMActual","null","","","","Images/BlackBeadChoice.png","null"
"image-keyboard-response","319","893219","0.0-4.0-2.99","18","High_HMMActual","null","","","","Images/BlackBeadChoiceWrong.png","null"
"image-keyboard-response","320","894676","0.0-4.0-0.100","18","High_HMMActual","1456.1549999925774","","","","Images/NewTrialWC.png","39"
"image-keyboard-response","321","894929","0.0-4.0-1.100","18","High_HMMActual","null","","","","Images/WhiteBeadChoice.png","null"
"image-keyboard-response","322","895443","0.0-4.0-2.100","18","High_HMMActual","null","","","","Images/WhiteBeadChoiceWrong.png","null"
"image-keyboard-response","323","896541","0.0-4.0-0.101","18","High_HMMActual","1096.9150000019","","","","Images/NewTrialBC.png","37"
"image-keyboard-response","324","896807","0.0-4.0-1.101","18","High_HMMActual","null","","","","Images/BlackBeadChoice.png","null"
"image-keyboard-response","325","897322","0.0-4.0-2.101","18","High_HMMActual","null","","","","Images/BlackBeadChoiceWrong.png","null"
"image-keyboard-response","326","898302","0.0-4.0-0.102","18","High_HMMActual","978.7300000025425","","","","Images/NewTrialWC.png","39"
"image-keyboard-response","327","898557","0.0-4.0-1.102","18","High_HMMActual","null","","","","Images/WhiteBeadChoice.png","null"
"image-keyboard-response","328","899073","0.0-4.0-2.102","18","High_HMMActual","null","","","","Images/WhiteBeadChoiceCorrect.png","null"
"image-keyboard-response","329","899461","0.0-4.0-0.103","18","High_HMMActual","386.80000000749715","","","","Images/NewTrialWC.png","39"
"image-keyboard-response","330","899717","0.0-4.0-1.103","18","High_HMMActual","null","","","","Images/WhiteBeadChoice.png","null"
"image-keyboard-response","331","900232","0.0-4.0-2.103","18","High_HMMActual","null","","","","Images/WhiteBeadChoiceCorrect.png","null"
"image-keyboard-response","332","901210","0.0-4.0-0.104","18","High_HMMActual","977.149999991525","","","","Images/NewTrialWC.png","39"
"image-keyboard-response","333","901464","0.0-4.0-1.104","18","High_HMMActual","null","","","","Images/WhiteBeadChoice.png","null"
"image-keyboard-response","334","901979","0.0-4.0-2.104","18","High_HMMActual","null","","","","Images/WhiteBeadChoiceCorrect.png","null"
"image-keyboard-response","335","902858","0.0-4.0-0.105","18","High_HMMActual","877.6599999982864","","","","Images/NewTrialWC.png","39"
"image-keyboard-response","336","903111","0.0-4.0-1.105","18","High_HMMActual","null","","","","Images/WhiteBeadChoice.png","null"
"image-keyboard-response","337","903627","0.0-4.0-2.105","18","High_HMMActual","null","","","","Images/WhiteBeadChoiceWrong.png","null"
"image-keyboard-response","338","904596","0.0-4.0-0.106","18","High_HMMActual","967.3449999827426","","","","Images/NewTrialBC.png","37"
"image-keyboard-response","339","904859","0.0-4.0-1.106","18","High_HMMActual","null","","","","Images/BlackBeadChoice.png","null"
"image-keyboard-response","340","905375","0.0-4.0-2.106","18","High_HMMActual","null","","","","Images/BlackBeadChoiceWrong.png","null"
"image-keyboard-response","341","906746","0.0-4.0-0.107","18","High_HMMActual","1370.0499999977183","","","","Images/NewTrialWC.png","39"
"image-keyboard-response","342","907002","0.0-4.0-1.107","18","High_HMMActual","null","","","","Images/WhiteBeadChoice.png","null"
"image-keyboard-response","343","907519","0.0-4.0-2.107","18","High_HMMActual","null","","","","Images/WhiteBeadChoiceWrong.png","null"
"image-keyboard-response","344","908606","0.0-4.0-0.108","18","High_HMMActual","1086.0149999789428","","","","Images/NewTrialBC.png","37"
"image-keyboard-response","345","908866","0.0-4.0-1.108","18","High_HMMActual","null","","","","Images/BlackBeadChoice.png","null"
"image-keyboard-response","346","909383","0.0-4.0-2.108","18","High_HMMActual","null","","","","Images/BlackBeadChoiceWrong.png","null"
"image-keyboard-response","347","910773","0.0-4.0-0.109","18","High_HMMActual","1388.3300000161398","","","","Images/NewTrialWC.png","39"
"image-keyboard-response","348","911030","0.0-4.0-1.109","18","High_HMMActual","null","","","","Images/WhiteBeadChoice.png","null"
"image-keyboard-response","349","911545","0.0-4.0-2.109","18","High_HMMActual","null","","","","Images/WhiteBeadChoiceWrong.png","null"
"image-keyboard-response","350","913997","0.0-4.0-0.110","18","High_HMMActual","2450.1300000119954","","","","Images/NewTrialBC.png","37"
"image-keyboard-response","351","914251","0.0-4.0-1.110","18","High_HMMActual","null","","","","Images/BlackBeadChoice.png","null"
"image-keyboard-response","352","914763","0.0-4.0-2.110","18","High_HMMActual","null","","","","Images/BlackBeadChoiceWrong.png","null"
"image-keyboard-response","353","915653","0.0-4.0-0.111","18","High_HMMActual","888.8199999928474","","","","Images/NewTrialWC.png","39"
"image-keyboard-response","354","915908","0.0-4.0-1.111","18","High_HMMActual","null","","","","Images/WhiteBeadChoice.png","null"
"image-keyboard-response","355","916423","0.0-4.0-2.111","18","High_HMMActual","null","","","","Images/WhiteBeadChoiceWrong.png","null"
"image-keyboard-response","356","917835","0.0-4.0-0.112","18","High_HMMActual","1411.3349999825004","","","","Images/NewTrialBC.png","37"
"image-keyboard-response","357","918087","0.0-4.0-1.112","18","High_HMMActual","null","","","","Images/BlackBeadChoice.png","null"
"image-keyboard-response","358","918603","0.0-4.0-2.112","18","High_HMMActual","null","","","","Images/BlackBeadChoiceWrong.png","null"
"image-keyboard-response","359","920105","0.0-4.0-0.113","18","High_HMMActual","1501.8049999780487","","","","Images/NewTrialWC.png","39"
"image-keyboard-response","360","920370","0.0-4.0-1.113","18","High_HMMActual","null","","","","Images/WhiteBeadChoice.png","null"
"image-keyboard-response","361","920886","0.0-4.0-2.113","18","High_HMMActual","null","","","","Images/WhiteBeadChoiceWrong.png","null"
"image-keyboard-response","362","922324","0.0-4.0-0.114","18","High_HMMActual","1436.5850000176579","","","","Images/NewTrialBC.png","37"
"image-keyboard-response","363","922577","0.0-4.0-1.114","18","High_HMMActual","null","","","","Images/BlackBeadChoice.png","null"
"image-keyboard-response","364","923093","0.0-4.0-2.114","18","High_HMMActual","null","","","","Images/BlackBeadChoiceWrong.png","null"
"image-keyboard-response","365","924739","0.0-4.0-0.115","18","High_HMMActual","1644.3450000078883","","","","Images/NewTrialWC.png","39"
"image-keyboard-response","366","924994","0.0-4.0-1.115","18","High_HMMActual","null","","","","Images/WhiteBeadChoice.png","null"
"image-keyboard-response","367","925511","0.0-4.0-2.115","18","High_HMMActual","null","","","","Images/WhiteBeadChoiceWrong.png","null"
"image-keyboard-response","368","926779","0.0-4.0-0.116","18","High_HMMActual","1266.0449999966659","","","","Images/NewTrialBC.png","37"
"image-keyboard-response","369","927032","0.0-4.0-1.116","18","High_HMMActual","null","","","","Images/BlackBeadChoice.png","null"
"image-keyboard-response","370","927549","0.0-4.0-2.116","18","High_HMMActual","213.39000001898967","","","","Images/BlackBeadChoiceWrong.png","37"
"image-keyboard-response","371","928714","0.0-4.0-0.117","18","High_HMMActual","1164.664999989327","","","","Images/NewTrialWC.png","37"
"image-keyboard-response","372","928980","0.0-4.0-1.117","18","High_HMMActual","null","","","","Images/BlackBeadChoice.png","null"
"image-keyboard-response","373","929497","0.0-4.0-2.117","18","High_HMMActual","null","","","","Images/BlackBeadChoiceCorrect.png","null"
"image-keyboard-response","374","930343","0.0-4.0-0.118","18","High_HMMActual","844.7900000028312","","","","Images/NewTrialBC.png","39"
"image-keyboard-response","375","930598","0.0-4.0-1.118","18","High_HMMActual","null","","","","Images/WhiteBeadChoice.png","null"
"image-keyboard-response","376","931114","0.0-4.0-2.118","18","High_HMMActual","266.3849999953527","","","","Images/WhiteBeadChoiceCorrect.png","37"
"image-keyboard-response","377","932115","0.0-4.0-0.119","18","High_HMMActual","999.7600000060629","","","","Images/NewTrialWC.png","39"
"image-keyboard-response","378","932382","0.0-4.0-1.119","18","High_HMMActual","null","","","","Images/WhiteBeadChoice.png","null"
"image-keyboard-response","379","932898","0.0-4.0-2.119","18","High_HMMActual","196.45999997737817","","","","Images/WhiteBeadChoiceWrong.png","39"
"image-keyboard-response","380","933461","0.0-4.0-0.120","18","High_HMMActual","562.3600000108127","","","","Images/NewTrialBC.png","37"
"image-keyboard-response","381","933723","0.0-4.0-1.120","18","High_HMMActual","null","","","","Images/BlackBeadChoice.png","null"
"image-keyboard-response","382","934239","0.0-4.0-2.120","18","High_HMMActual","null","","","","Images/BlackBeadChoiceWrong.png","null"
"image-keyboard-response","383","934801","0.0-4.0-0.121","18","High_HMMActual","560.4300000122748","","","","Images/NewTrialWC.png","39"
"image-keyboard-response","384","935054","0.0-4.0-1.121","18","High_HMMActual","null","","","","Images/WhiteBeadChoice.png","null"
"image-keyboard-response","385","935570","0.0-4.0-2.121","18","High_HMMActual","null","","","","Images/WhiteBeadChoiceWrong.png","null"
"image-keyboard-response","386","936399","0.0-4.0-0.122","18","High_HMMActual","827.6599999808241","","","","Images/NewTrialBC.png","37"
"image-keyboard-response","387","936655","0.0-4.0-1.122","18","High_HMMActual","null","","","","Images/BlackBeadChoice.png","null"
"image-keyboard-response","388","937167","0.0-4.0-2.122","18","High_HMMActual","null","","","","Images/BlackBeadChoiceWrong.png","null"
"image-keyboard-response","389","938162","0.0-4.0-0.123","18","High_HMMActual","993.6750000051688","","","","Images/NewTrialWC.png","39"
"image-keyboard-response","390","938423","0.0-4.0-1.123","18","High_HMMActual","null","","","","Images/WhiteBeadChoice.png","null"
"image-keyboard-response","391","938938","0.0-4.0-2.123","18","High_HMMActual","null","","","","Images/WhiteBeadChoiceWrong.png","null"
"image-keyboard-response","392","941797","0.0-4.0-0.124","18","High_HMMActual","2858.269999996992","","","","Images/NewTrialBC.png","37"
"image-keyboard-response","393","942052","0.0-4.0-1.124","18","High_HMMActual","null","","","","Images/BlackBeadChoice.png","null"
"image-keyboard-response","394","942568","0.0-4.0-2.124","18","High_HMMActual","null","","","","Images/BlackBeadChoiceWrong.png","null"
"image-keyboard-response","395","943908","0.0-4.0-0.125","18","High_HMMActual","1338.404999987688","","","","Images/NewTrialWC.png","39"
"image-keyboard-response","396","944167","0.0-4.0-1.125","18","High_HMMActual","null","","","","Images/WhiteBeadChoice.png","null"
"image-keyboard-response","397","944681","0.0-4.0-2.125","18","High_HMMActual","null","","","","Images/WhiteBeadChoiceWrong.png","null"
"image-keyboard-response","398","945294","0.0-4.0-0.126","18","High_HMMActual","612.2149999719113","","","","Images/NewTrialBC.png","39"
"image-keyboard-response","399","945549","0.0-4.0-1.126","18","High_HMMActual","null","","","","Images/WhiteBeadChoice.png","null"
"image-keyboard-response","400","946063","0.0-4.0-2.126","18","High_HMMActual","null","","","","Images/WhiteBeadChoiceWrong.png","null"
"image-keyboard-response","401","947055","0.0-4.0-0.127","18","High_HMMActual","991.665000008652","","","","Images/NewTrialBC.png","37"
"image-keyboard-response","402","947316","0.0-4.0-1.127","18","High_HMMActual","null","","","","Images/BlackBeadChoice.png","null"
"image-keyboard-response","403","947832","0.0-4.0-2.127","18","High_HMMActual","null","","","","Images/BlackBeadChoiceCorrect.png","null"
"image-keyboard-response","404","948849","0.0-4.0-0.128","18","High_HMMActual","1015.6299999798648","","","","Images/NewTrialBC.png","39"
"image-keyboard-response","405","949115","0.0-4.0-1.128","18","High_HMMActual","null","","","","Images/WhiteBeadChoice.png","null"
"image-keyboard-response","406","949630","0.0-4.0-2.128","18","High_HMMActual","null","","","","Images/WhiteBeadChoiceCorrect.png","null"
"image-keyboard-response","407","950669","0.0-4.0-0.129","18","High_HMMActual","1038.0700000096112","","","","Images/NewTrialWC.png","39"
"image-keyboard-response","408","950931","0.0-4.0-1.129","18","High_HMMActual","null","","","","Images/WhiteBeadChoice.png","null"
"image-keyboard-response","409","951445","0.0-4.0-2.129","18","High_HMMActual","null","","","","Images/WhiteBeadChoiceWrong.png","null"
"image-keyboard-response","410","952698","0.0-4.0-0.130","18","High_HMMActual","1251.8599999893922","","","","Images/NewTrialBC.png","37"
"image-keyboard-response","411","952951","0.0-4.0-1.130","18","High_HMMActual","null","","","","Images/BlackBeadChoice.png","null"
"image-keyboard-response","412","953452","0.0-4.0-2.130","18","High_HMMActual","null","","","","Images/BlackBeadChoiceWrong.png","null"
"image-keyboard-response","413","953877","0.0-4.0-0.131","18","High_HMMActual","423.88499999651685","","","","Images/NewTrialWC.png","39"
"image-keyboard-response","414","954137","0.0-4.0-1.131","18","High_HMMActual","null","","","","Images/WhiteBeadChoice.png","null"
"image-keyboard-response","415","954653","0.0-4.0-2.131","18","High_HMMActual","null","","","","Images/WhiteBeadChoiceWrong.png","null"
"image-keyboard-response","416","955221","0.0-4.0-0.132","18","High_HMMActual","566.2349999765866","","","","Images/NewTrialBC.png","39"
"image-keyboard-response","417","955473","0.0-4.0-1.132","18","High_HMMActual","null","","","","Images/WhiteBeadChoice.png","null"
"image-keyboard-response","418","955975","0.0-4.0-2.132","18","High_HMMActual","null","","","","Images/WhiteBeadChoiceWrong.png","null"
"image-keyboard-response","419","956722","0.0-4.0-0.133","18","High_HMMActual","745.4100000031758","","","","Images/NewTrialBC.png","37"
"image-keyboard-response","420","956979","0.0-4.0-1.133","18","High_HMMActual","null","","","","Images/BlackBeadChoice.png","null"
"image-keyboard-response","421","957493","0.0-4.0-2.133","18","High_HMMActual","null","","","","Images/BlackBeadChoiceCorrect.png","null"
"image-keyboard-response","422","958168","0.0-4.0-0.134","18","High_HMMActual","673.0099999986123","","","","Images/NewTrialBC.png","39"
"image-keyboard-response","423","958426","0.0-4.0-1.134","18","High_HMMActual","null","","","","Images/WhiteBeadChoice.png","null"
"image-keyboard-response","424","958944","0.0-4.0-2.134","18","High_HMMActual","null","","","","Images/WhiteBeadChoiceCorrect.png","null"
"image-keyboard-response","425","959375","0.0-4.0-0.135","18","High_HMMActual","430.5400000012014","","","","Images/NewTrialWC.png","37"
"image-keyboard-response","426","959636","0.0-4.0-1.135","18","High_HMMActual","null","","","","Images/BlackBeadChoice.png","null"
"image-keyboard-response","427","960153","0.0-4.0-2.135","18","High_HMMActual","null","","","","Images/BlackBeadChoiceCorrect.png","null"
"image-keyboard-response","428","960459","0.0-4.0-0.136","18","High_HMMActual","305.08499999996275","","","","Images/NewTrialBC.png","37"
"image-keyboard-response","429","960721","0.0-4.0-1.136","18","High_HMMActual","null","","","","Images/BlackBeadChoice.png","null"
"image-keyboard-response","430","961223","0.0-4.0-2.136","18","High_HMMActual","null","","","","Images/BlackBeadChoiceWrong.png","null"
"image-keyboard-response","431","962036","0.0-4.0-0.137","18","High_HMMActual","812.2199999925215","","","","Images/NewTrialWC.png","37"
"image-keyboard-response","432","962292","0.0-4.0-1.137","18","High_HMMActual","null","","","","Images/BlackBeadChoice.png","null"
"image-keyboard-response","433","962803","0.0-4.0-2.137","18","High_HMMActual","245.56000001030043","","","","Images/BlackBeadChoiceWrong.png","39"
"image-keyboard-response","434","964058","0.0-4.0-0.138","18","High_HMMActual","1253.7750000192318","","","","Images/NewTrialWC.png","39"
"image-keyboard-response","435","964315","0.0-4.0-1.138","18","High_HMMActual","null","","","","Images/WhiteBeadChoice.png","null"
"image-keyboard-response","436","964831","0.0-4.0-2.138","18","High_HMMActual","null","","","","Images/WhiteBeadChoiceCorrect.png","null"
"image-keyboard-response","437","965377","0.0-4.0-0.139","18","High_HMMActual","545.5150000052527","","","","Images/NewTrialWC.png","39"
"image-keyboard-response","438","965631","0.0-4.0-1.139","18","High_HMMActual","null","","","","Images/WhiteBeadChoice.png","null"
"image-keyboard-response","439","966144","0.0-4.0-2.139","18","High_HMMActual","null","","","","Images/WhiteBeadChoiceWrong.png","null"
"image-keyboard-response","440","966883","0.0-4.0-0.140","18","High_HMMActual","738.1999999925029","","","","Images/NewTrialBC.png","39"
"image-keyboard-response","441","967144","0.0-4.0-1.140","18","High_HMMActual","null","","","","Images/WhiteBeadChoice.png","null"
"image-keyboard-response","442","967658","0.0-4.0-2.140","18","High_HMMActual","null","","","","Images/WhiteBeadChoiceCorrect.png","null"
"image-keyboard-response","443","968338","0.0-4.0-0.141","18","High_HMMActual","678.6250000004657","","","","Images/NewTrialWC.png","37"
"image-keyboard-response","444","968603","0.0-4.0-1.141","18","High_HMMActual","null","","","","Images/BlackBeadChoice.png","null"
"image-keyboard-response","445","969119","0.0-4.0-2.141","18","High_HMMActual","null","","","","Images/BlackBeadChoiceCorrect.png","null"
"image-keyboard-response","446","969855","0.0-4.0-0.142","18","High_HMMActual","734.935000014957","","","","Images/NewTrialBC.png","39"
"image-keyboard-response","447","970107","0.0-4.0-1.142","18","High_HMMActual","null","","","","Images/WhiteBeadChoice.png","null"
"image-keyboard-response","448","970609","0.0-4.0-2.142","18","High_HMMActual","null","","","","Images/WhiteBeadChoiceCorrect.png","null"
"image-keyboard-response","449","971046","0.0-4.0-0.143","18","High_HMMActual","435.7200000085868","","","","Images/NewTrialWC.png","39"
"image-keyboard-response","450","971309","0.0-4.0-1.143","18","High_HMMActual","null","","","","Images/WhiteBeadChoice.png","null"
"image-keyboard-response","451","971812","0.0-4.0-2.143","18","High_HMMActual","null","","","","Images/WhiteBeadChoiceCorrect.png","null"
"image-keyboard-response","452","972691","0.0-4.0-0.144","18","High_HMMActual","877.1950000082143","","","","Images/NewTrialWC.png","37"
"image-keyboard-response","453","972947","0.0-4.0-1.144","18","High_HMMActual","null","","","","Images/BlackBeadChoice.png","null"
"image-keyboard-response","454","973462","0.0-4.0-2.144","18","High_HMMActual","null","","","","Images/BlackBeadChoiceWrong.png","null"
"image-keyboard-response","455","973763","0.0-4.0-0.145","18","High_HMMActual","299.36499998439103","","","","Images/NewTrialWC.png","39"
"image-keyboard-response","456","974030","0.0-4.0-1.145","18","High_HMMActual","null","","","","Images/WhiteBeadChoice.png","null"
"image-keyboard-response","457","974547","0.0-4.0-2.145","18","High_HMMActual","null","","","","Images/WhiteBeadChoiceCorrect.png","null"
"image-keyboard-response","458","975557","0.0-4.0-0.146","18","High_HMMActual","1009.4950000056997","","","","Images/NewTrialWC.png","39"
"image-keyboard-response","459","975816","0.0-4.0-1.146","18","High_HMMActual","null","","","","Images/WhiteBeadChoice.png","null"
"image-keyboard-response","460","976332","0.0-4.0-2.146","18","High_HMMActual","null","","","","Images/WhiteBeadChoiceWrong.png","null"
"image-keyboard-response","461","977024","0.0-4.0-0.147","18","High_HMMActual","690.6500000040978","","","","Images/NewTrialBC.png","39"
"image-keyboard-response","462","977283","0.0-4.0-1.147","18","High_HMMActual","null","","","","Images/WhiteBeadChoice.png","null"
"image-keyboard-response","463","977797","0.0-4.0-2.147","18","High_HMMActual","163.04500002297573","","","","Images/WhiteBeadChoiceCorrect.png","37"
"image-keyboard-response","464","978921","0.0-4.0-0.148","18","High_HMMActual","1122.2450000059325","","","","Images/NewTrialWC.png","39"
"image-keyboard-response","465","979175","0.0-4.0-1.148","18","High_HMMActual","null","","","","Images/WhiteBeadChoice.png","null"
"image-keyboard-response","466","979693","0.0-4.0-2.148","18","High_HMMActual","null","","","","Images/WhiteBeadChoiceCorrect.png","null"
"image-keyboard-response","467","980244","0.0-4.0-0.149","18","High_HMMActual","549.5250000094529","","","","Images/NewTrialWC.png","39"
"image-keyboard-response","468","980499","0.0-4.0-1.149","18","High_HMMActual","null","","","","Images/WhiteBeadChoice.png","null"
"image-keyboard-response","469","981015","0.0-4.0-2.149","18","High_HMMActual","null","","","","Images/WhiteBeadChoiceWrong.png","null"
"image-keyboard-response","470","982175","0.0-4.0-0.150","18","High_HMMActual","1158.7599999911617","","","","Images/NewTrialBC.png","39"
"image-keyboard-response","471","982432","0.0-4.0-1.150","18","High_HMMActual","null","","","","Images/WhiteBeadChoice.png","null"
"image-keyboard-response","472","982948","0.0-4.0-2.150","18","High_HMMActual","null","","","","Images/WhiteBeadChoiceWrong.png","null"
"image-keyboard-response","473","983082","0.0-4.0-0.151","18","High_HMMActual","133.18500001332723","","","","Images/NewTrialBC.png","39"
"image-keyboard-response","474","983334","0.0-4.0-1.151","18","High_HMMActual","null","","","","Images/WhiteBeadChoice.png","null"
"image-keyboard-response","475","983851","0.0-4.0-2.151","18","High_HMMActual","null","","","","Images/WhiteBeadChoiceCorrect.png","null"
"image-keyboard-response","476","984929","0.0-4.0-0.152","18","High_HMMActual","1077.0599999814294","","","","Images/NewTrialWC.png","37"
"image-keyboard-response","477","985188","0.0-4.0-1.152","18","High_HMMActual","null","","","","Images/BlackBeadChoice.png","null"
"image-keyboard-response","478","985690","0.0-4.0-2.152","18","High_HMMActual","237.9699999873992","","","","Images/BlackBeadChoiceCorrect.png","39"
"image-keyboard-response","479","987259","0.0-4.0-0.153","18","High_HMMActual","1567.1849999926053","","","","Images/NewTrialBC.png","37"
"image-keyboard-response","480","987513","0.0-4.0-1.153","18","High_HMMActual","null","","","","Images/BlackBeadChoice.png","null"
"image-keyboard-response","481","988030","0.0-4.0-2.153","18","High_HMMActual","null","","","","Images/BlackBeadChoiceWrong.png","null"
"image-keyboard-response","482","989010","0.0-4.0-0.154","18","High_HMMActual","978.1750000256579","","","","Images/NewTrialWC.png","39"
"image-keyboard-response","483","989273","0.0-4.0-1.154","18","High_HMMActual","null","","","","Images/WhiteBeadChoice.png","null"
"image-keyboard-response","484","989776","0.0-4.0-2.154","18","High_HMMActual","null","","","","Images/WhiteBeadChoiceWrong.png","null"
"image-keyboard-response","485","990829","0.0-4.0-0.155","18","High_HMMActual","1051.5099999902304","","","","Images/NewTrialBC.png","39"
"image-keyboard-response","486","991094","0.0-4.0-1.155","18","High_HMMActual","null","","","","Images/WhiteBeadChoice.png","null"
"image-keyboard-response","487","991610","0.0-4.0-2.155","18","High_HMMActual","null","","","","Images/WhiteBeadChoiceWrong.png","null"
"image-keyboard-response","488","991643","0.0-4.0-0.156","18","High_HMMActual","32.37500000977889","","","","Images/NewTrialBC.png","39"
"image-keyboard-response","489","991896","0.0-4.0-1.156","18","High_HMMActual","null","","","","Images/WhiteBeadChoice.png","null"
"image-keyboard-response","490","992412","0.0-4.0-2.156","18","High_HMMActual","null","","","","Images/WhiteBeadChoiceWrong.png","null"
"image-keyboard-response","491","992997","0.0-4.0-0.157","18","High_HMMActual","583.1449999823235","","","","Images/NewTrialBC.png","37"
"image-keyboard-response","492","993260","0.0-4.0-1.157","18","High_HMMActual","null","","","","Images/BlackBeadChoice.png","null"
"image-keyboard-response","493","993777","0.0-4.0-2.157","18","High_HMMActual","null","","","","Images/BlackBeadChoiceCorrect.png","null"
"image-keyboard-response","494","994061","0.0-4.0-0.158","18","High_HMMActual","283.0799999937881","","","","Images/NewTrialBC.png","37"
"image-keyboard-response","495","994314","0.0-4.0-1.158","18","High_HMMActual","null","","","","Images/BlackBeadChoice.png","null"
"image-keyboard-response","496","994816","0.0-4.0-2.158","18","High_HMMActual","null","","","","Images/BlackBeadChoiceCorrect.png","null"
"image-keyboard-response","497","995261","0.0-4.0-0.159","18","High_HMMActual","444.0150000154972","","","","Images/NewTrialBC.png","37"
"image-keyboard-response","498","995517","0.0-4.0-1.159","18","High_HMMActual","null","","","","Images/BlackBeadChoice.png","null"
"image-keyboard-response","499","996018","0.0-4.0-2.159","18","High_HMMActual","null","","","","Images/BlackBeadChoiceWrong.png","null"
"image-keyboard-response","500","996285","0.0-4.0-0.160","18","High_HMMActual","264.8400000180118","","","","Images/NewTrialWC.png","39"
"image-keyboard-response","501","996540","0.0-4.0-1.160","18","High_HMMActual","null","","","","Images/WhiteBeadChoice.png","null"
"image-keyboard-response","502","997056","0.0-4.0-2.160","18","High_HMMActual","null","","","","Images/WhiteBeadChoiceWrong.png","null"
"image-keyboard-response","503","997965","0.0-4.0-0.161","18","High_HMMActual","906.4000000071246","","","","Images/NewTrialBC.png","39"
"image-keyboard-response","504","998218","0.0-4.0-1.161","18","High_HMMActual","null","","","","Images/WhiteBeadChoice.png","null"
"image-keyboard-response","505","998733","0.0-4.0-2.161","18","High_HMMActual","null","","","","Images/WhiteBeadChoiceWrong.png","null"
"image-keyboard-response","506","998767","0.0-4.0-0.162","18","High_HMMActual","33.20999999414198","","","","Images/NewTrialBC.png","37"
"image-keyboard-response","507","999033","0.0-4.0-1.162","18","High_HMMActual","null","","","","Images/BlackBeadChoice.png","null"
"image-keyboard-response","508","999535","0.0-4.0-2.162","18","High_HMMActual","null","","","","Images/BlackBeadChoiceCorrect.png","null"
"image-keyboard-response","509","1000282","0.0-4.0-0.163","18","High_HMMActual","746.5899999951944","","","","Images/NewTrialBC.png","39"
"image-keyboard-response","510","1000539","0.0-4.0-1.163","18","High_HMMActual","null","","","","Images/WhiteBeadChoice.png","null"
"image-keyboard-response","511","1001056","0.0-4.0-2.163","18","High_HMMActual","null","","","","Images/WhiteBeadChoiceWrong.png","null"
"image-keyboard-response","512","1002613","0.0-4.0-0.164","18","High_HMMActual","1555.3450000006706","","","","Images/NewTrialBC.png","39"
"image-keyboard-response","513","1002876","0.0-4.0-1.164","18","High_HMMActual","null","","","","Images/WhiteBeadChoice.png","null"
"image-keyboard-response","514","1003378","0.0-4.0-2.164","18","High_HMMActual","null","","","","Images/WhiteBeadChoiceWrong.png","null"
"image-keyboard-response","515","1006317","0.0-4.0-0.165","18","High_HMMActual","2937.519999977667","","","","Images/NewTrialBC.png","39"
"image-keyboard-response","516","1006582","0.0-4.0-1.165","18","High_HMMActual","null","","","","Images/WhiteBeadChoice.png","null"
"image-keyboard-response","517","1007097","0.0-4.0-2.165","18","High_HMMActual","null","","","","Images/WhiteBeadChoiceCorrect.png","null"
"image-keyboard-response","518","1009237","0.0-4.0-0.166","18","High_HMMActual","2138.5000000009313","","","","Images/NewTrialWC.png","37"
"image-keyboard-response","519","1009493","0.0-4.0-1.166","18","High_HMMActual","null","","","","Images/BlackBeadChoice.png","null"
"image-keyboard-response","520","1009994","0.0-4.0-2.166","18","High_HMMActual","null","","","","Images/BlackBeadChoiceWrong.png","null"
"image-keyboard-response","521","1010787","0.0-4.0-0.167","18","High_HMMActual","791.0050000064075","","","","Images/NewTrialWC.png","37"
"image-keyboard-response","522","1011045","0.0-4.0-1.167","18","High_HMMActual","null","","","","Images/BlackBeadChoice.png","null"
"image-keyboard-response","523","1011547","0.0-4.0-2.167","18","High_HMMActual","null","","","","Images/BlackBeadChoiceWrong.png","null"
"image-keyboard-response","524","1012295","0.0-4.0-0.168","18","High_HMMActual","747.0949999988079","","","","Images/NewTrialWC.png","37"
"image-keyboard-response","525","1012552","0.0-4.0-1.168","18","High_HMMActual","null","","","","Images/BlackBeadChoice.png","null"
"image-keyboard-response","526","1013054","0.0-4.0-2.168","18","High_HMMActual","null","","","","Images/BlackBeadChoiceWrong.png","null"
"image-keyboard-response","527","1013944","0.0-4.0-0.169","18","High_HMMActual","888.9849999977741","","","","Images/NewTrialWC.png","37"
"image-keyboard-response","528","1014207","0.0-4.0-1.169","18","High_HMMActual","null","","","","Images/BlackBeadChoice.png","null"
"image-keyboard-response","529","1014710","0.0-4.0-2.169","18","High_HMMActual","null","","","","Images/BlackBeadChoiceCorrect.png","null"
"image-keyboard-response","530","1015314","0.0-4.0-0.170","18","High_HMMActual","602.4749999924097","","","","Images/NewTrialBC.png","37"
"image-keyboard-response","531","1015578","0.0-4.0-1.170","18","High_HMMActual","null","","","","Images/BlackBeadChoice.png","null"
"image-keyboard-response","532","1016081","0.0-4.0-2.170","18","High_HMMActual","213.95000000484288","","","","Images/BlackBeadChoiceCorrect.png","39"
"image-keyboard-response","533","1017118","0.0-4.0-0.171","18","High_HMMActual","1035.6150000006892","","","","Images/NewTrialBC.png","39"
"image-keyboard-response","534","1017379","0.0-4.0-1.171","18","High_HMMActual","null","","","","Images/WhiteBeadChoice.png","null"
"image-keyboard-response","535","1017881","0.0-4.0-2.171","18","High_HMMActual","null","","","","Images/WhiteBeadChoiceCorrect.png","null"
"image-keyboard-response","536","1018757","0.0-4.0-0.172","18","High_HMMActual","875.4550000012387","","","","Images/NewTrialWC.png","37"
"image-keyboard-response","537","1019013","0.0-4.0-1.172","18","High_HMMActual","null","","","","Images/BlackBeadChoice.png","null"
"image-keyboard-response","538","1019527","0.0-4.0-2.172","18","High_HMMActual","null","","","","Images/BlackBeadChoiceCorrect.png","null"
"image-keyboard-response","539","1020603","0.0-4.0-0.173","18","High_HMMActual","1074.0900000091642","","","","Images/NewTrialBC.png","37"
"image-keyboard-response","540","1020862","0.0-4.0-1.173","18","High_HMMActual","null","","","","Images/BlackBeadChoice.png","null"
"image-keyboard-response","541","1021364","0.0-4.0-2.173","18","High_HMMActual","null","","","","Images/BlackBeadChoiceWrong.png","null"
"image-keyboard-response","542","1021879","0.0-4.0-0.174","18","High_HMMActual","513.4650000254624","","","","Images/NewTrialWC.png","39"
"image-keyboard-response","543","1022131","0.0-4.0-1.174","18","High_HMMActual","null","","","","Images/WhiteBeadChoice.png","null"
"image-keyboard-response","544","1022648","0.0-4.0-2.174","18","High_HMMActual","null","","","","Images/WhiteBeadChoiceWrong.png","null"
"image-keyboard-response","545","1023280","0.0-4.0-0.175","18","High_HMMActual","630.78000000678","","","","Images/NewTrialBC.png","39"
"image-keyboard-response","546","1023545","0.0-4.0-1.175","18","High_HMMActual","null","","","","Images/WhiteBeadChoice.png","null"
"image-keyboard-response","547","1024048","0.0-4.0-2.175","18","High_HMMActual","null","","","","Images/WhiteBeadChoiceCorrect.png","null"
"image-keyboard-response","548","1024678","0.0-4.0-0.176","18","High_HMMActual","628.8499999791384","","","","Images/NewTrialWC.png","37"
"image-keyboard-response","549","1024935","0.0-4.0-1.176","18","High_HMMActual","null","","","","Images/BlackBeadChoice.png","null"
"image-keyboard-response","550","1025452","0.0-4.0-2.176","18","High_HMMActual","null","","","","Images/BlackBeadChoiceWrong.png","null"
"image-keyboard-response","551","1026625","0.0-4.0-0.177","18","High_HMMActual","1172.1200000029057","","","","Images/NewTrialWC.png","39"
"image-keyboard-response","552","1026883","0.0-4.0-1.177","18","High_HMMActual","null","","","","Images/WhiteBeadChoice.png","null"
"image-keyboard-response","553","1027400","0.0-4.0-2.177","18","High_HMMActual","null","","","","Images/WhiteBeadChoiceCorrect.png","null"
"image-keyboard-response","554","1027598","0.0-4.0-0.178","18","High_HMMActual","196.13500000559725","","","","Images/NewTrialWC.png","37"
"image-keyboard-response","555","1027857","0.0-4.0-1.178","18","High_HMMActual","null","","","","Images/BlackBeadChoice.png","null"
"image-keyboard-response","556","1028359","0.0-4.0-2.178","18","High_HMMActual","222.3050000029616","","","","Images/BlackBeadChoiceCorrect.png","39"
"image-keyboard-response","557","1030043","0.0-4.0-0.179","18","High_HMMActual","1682.8049999894574","","","","Images/NewTrialBC.png","37"
"image-keyboard-response","558","1030305","0.0-4.0-1.179","18","High_HMMActual","220.6949999963399","","","","Images/BlackBeadChoice.png","39"
"image-keyboard-response","559","1030813","0.0-4.0-2.179","18","High_HMMActual","219.4000000017695","","","","Images/BlackBeadChoiceWrong.png","37"
"image-keyboard-response","560","1031269","0.0-4.0-0.180","18","High_HMMActual","455.4550000175368","","","","Images/NewTrialWC.png","39"
"image-keyboard-response","561","1031532","0.0-4.0-1.180","18","High_HMMActual","null","","","","Images/WhiteBeadChoice.png","null"
"image-keyboard-response","562","1032035","0.0-4.0-2.180","18","High_HMMActual","263.3450000139419","","","","Images/WhiteBeadChoiceWrong.png","37"
"image-keyboard-response","563","1032627","0.0-4.0-0.181","18","High_HMMActual","590.2899999928195","","","","Images/NewTrialBC.png","39"
"image-keyboard-response","564","1032889","0.0-4.0-1.181","18","High_HMMActual","null","","","","Images/WhiteBeadChoice.png","null"
"image-keyboard-response","565","1033392","0.0-4.0-2.181","18","High_HMMActual","246.95500000962056","","","","Images/WhiteBeadChoiceCorrect.png","37"
"image-keyboard-response","566","1034085","0.0-4.0-0.182","18","High_HMMActual","691.6150000179186","","","","Images/NewTrialWC.png","39"
"image-keyboard-response","567","1034340","0.0-4.0-1.182","18","High_HMMActual","null","","","","Images/WhiteBeadChoice.png","null"
"image-keyboard-response","568","1034841","0.0-4.0-2.182","18","High_HMMActual","327.50499999383464","","","","Images/WhiteBeadChoiceWrong.png","37"
"image-keyboard-response","569","1035342","0.0-4.0-0.183","18","High_HMMActual","499.73499999032356","","","","Images/NewTrialBC.png","39"
"image-keyboard-response","570","1035599","0.0-4.0-1.183","18","High_HMMActual","null","","","","Images/WhiteBeadChoice.png","null"
"image-keyboard-response","571","1036116","0.0-4.0-2.183","18","High_HMMActual","null","","","","Images/WhiteBeadChoiceWrong.png","null"
"image-keyboard-response","572","1037197","0.0-4.0-0.184","18","High_HMMActual","1079.890000022715","","","","Images/NewTrialBC.png","37"
"image-keyboard-response","573","1037452","0.0-4.0-1.184","18","High_HMMActual","null","","","","Images/BlackBeadChoice.png","null"
"image-keyboard-response","574","1037967","0.0-4.0-2.184","18","High_HMMActual","null","","","","Images/BlackBeadChoiceCorrect.png","null"
"image-keyboard-response","575","1042985","0.0-4.0-0.185","18","High_HMMActual","5016.705000016373","","","","Images/NewTrialBC.png","39"
"image-keyboard-response","576","1043240","0.0-4.0-1.185","18","High_HMMActual","null","","","","Images/WhiteBeadChoice.png","null"
"image-keyboard-response","577","1043742","0.0-4.0-2.185","18","High_HMMActual","null","","","","Images/WhiteBeadChoiceWrong.png","null"
"image-keyboard-response","578","1044958","0.0-4.0-0.186","18","High_HMMActual","1214.784999989206","","","","Images/NewTrialBC.png","37"
"image-keyboard-response","579","1045221","0.0-4.0-1.186","18","High_HMMActual","null","","","","Images/BlackBeadChoice.png","null"
"image-keyboard-response","580","1045723","0.0-4.0-2.186","18","High_HMMActual","null","","","","Images/BlackBeadChoiceWrong.png","null"
"image-keyboard-response","581","1046641","0.0-4.0-0.187","18","High_HMMActual","916.9800000090618","","","","Images/NewTrialWC.png","39"
"image-keyboard-response","582","1046905","0.0-4.0-1.187","18","High_HMMActual","null","","","","Images/WhiteBeadChoice.png","null"
"image-keyboard-response","583","1047420","0.0-4.0-2.187","18","High_HMMActual","null","","","","Images/WhiteBeadChoiceCorrect.png","null"
"image-keyboard-response","584","1049712","0.0-4.0-0.188","18","High_HMMActual","2290.6500000099186","","","","Images/NewTrialWC.png","39"
"image-keyboard-response","585","1049974","0.0-4.0-1.188","18","High_HMMActual","null","","","","Images/WhiteBeadChoice.png","null"
"image-keyboard-response","586","1050478","0.0-4.0-2.188","18","High_HMMActual","null","","","","Images/WhiteBeadChoiceCorrect.png","null"
"image-keyboard-response","587","1051097","0.0-4.0-0.189","18","High_HMMActual","618.4849999845028","","","","Images/NewTrialWC.png","39"
"image-keyboard-response","588","1051361","0.0-4.0-1.189","18","High_HMMActual","null","","","","Images/WhiteBeadChoice.png","null"
"image-keyboard-response","589","1051877","0.0-4.0-2.189","18","High_HMMActual","null","","","","Images/WhiteBeadChoiceWrong.png","null"
"image-keyboard-response","590","1073296","0.0-4.0-0.190","18","High_HMMActual","21417.95999999158","","","","Images/NewTrialBC.png","39"
"image-keyboard-response","591","1073561","0.0-4.0-1.190","18","High_HMMActual","null","","","","Images/WhiteBeadChoice.png","null"
"image-keyboard-response","592","1074078","0.0-4.0-2.190","18","High_HMMActual","null","","","","Images/WhiteBeadChoiceCorrect.png","null"
"image-keyboard-response","593","1075180","0.0-4.0-0.191","18","High_HMMActual","1100.4200000024866","","","","Images/NewTrialWC.png","39"
"image-keyboard-response","594","1075432","0.0-4.0-1.191","18","High_HMMActual","null","","","","Images/WhiteBeadChoice.png","null"
"image-keyboard-response","595","1075935","0.0-4.0-2.191","18","High_HMMActual","null","","","","Images/WhiteBeadChoiceWrong.png","null"
"image-keyboard-response","596","1076944","0.0-4.0-0.192","18","High_HMMActual","1008.1700000155251","","","","Images/NewTrialBC.png","37"
"image-keyboard-response","597","1077199","0.0-4.0-1.192","18","High_HMMActual","null","","","","Images/BlackBeadChoice.png","null"
"image-keyboard-response","598","1077716","0.0-4.0-2.192","18","High_HMMActual","null","","","","Images/BlackBeadChoiceCorrect.png","null"
"image-keyboard-response","599","1078909","0.0-4.0-0.193","18","High_HMMActual","1191.4099999994505","","","","Images/NewTrialBC.png","37"
"image-keyboard-response","600","1079169","0.0-4.0-1.193","18","High_HMMActual","null","","","","Images/BlackBeadChoice.png","null"
"image-keyboard-response","601","1079671","0.0-4.0-2.193","18","High_HMMActual","null","","","","Images/BlackBeadChoiceCorrect.png","null"
"image-keyboard-response","602","1080537","0.0-4.0-0.194","18","High_HMMActual","864.9350000196137","","","","Images/NewTrialBC.png","37"
"image-keyboard-response","603","1080804","0.0-4.0-1.194","18","High_HMMActual","null","","","","Images/BlackBeadChoice.png","null"
"image-keyboard-response","604","1081306","0.0-4.0-2.194","18","High_HMMActual","null","","","","Images/BlackBeadChoiceWrong.png","null"
"image-keyboard-response","605","1082136","0.0-4.0-0.195","18","High_HMMActual","828.2949999847915","","","","Images/NewTrialWC.png","39"
"image-keyboard-response","606","1082391","0.0-4.0-1.195","18","High_HMMActual","null","","","","Images/WhiteBeadChoice.png","null"
"image-keyboard-response","607","1082895","0.0-4.0-2.195","18","High_HMMActual","null","","","","Images/WhiteBeadChoiceCorrect.png","null"
"image-keyboard-response","608","1083520","0.0-4.0-0.196","18","High_HMMActual","624.3599999870639","","","","Images/NewTrialWC.png","37"
"image-keyboard-response","609","1083781","0.0-4.0-1.196","18","High_HMMActual","null","","","","Images/BlackBeadChoice.png","null"
"image-keyboard-response","610","1084284","0.0-4.0-2.196","18","High_HMMActual","137.74499998544343","","","","Images/BlackBeadChoiceWrong.png","39"
"image-keyboard-response","611","1085018","0.0-4.0-0.197","18","High_HMMActual","732.1450000163168","","","","Images/NewTrialWC.png","39"
"image-keyboard-response","612","1085283","0.0-4.0-1.197","18","High_HMMActual","null","","","","Images/WhiteBeadChoice.png","null"
"image-keyboard-response","613","1085786","0.0-4.0-2.197","18","High_HMMActual","113.20500000147149","","","","Images/WhiteBeadChoiceCorrect.png","16"
"image-keyboard-response","614","1087716","0.0-4.0-0.198","18","High_HMMActual","1929.3849999958184","","","","Images/NewTrialWC.png","39"
"image-keyboard-response","615","1087969","0.0-4.0-1.198","18","High_HMMActual","null","","","","Images/WhiteBeadChoice.png","null"
"image-keyboard-response","616","1088471","0.0-4.0-2.198","18","High_HMMActual","null","","","","Images/WhiteBeadChoiceWrong.png","null"
"image-keyboard-response","617","1090087","0.0-4.0-0.199","18","High_HMMActual","1614.785000012489","","","","Images/NewTrialBC.png","37"
"image-keyboard-response","618","1090340","0.0-4.0-1.199","18","High_HMMActual","null","","","","Images/BlackBeadChoice.png","null"
"image-keyboard-response","619","1090843","0.0-4.0-2.199","18","High_HMMActual","null","","","","Images/BlackBeadChoiceCorrect.png","null"
"image-keyboard-response","620","1091285","0.0-4.0-0.200","18","High_HMMActual","441.0349999961909","","","","Images/NewTrialBC.png","37"
"image-keyboard-response","621","1091544","0.0-4.0-1.200","18","High_HMMActual","null","","","","Images/BlackBeadChoice.png","null"
"image-keyboard-response","622","1092046","0.0-4.0-2.200","18","High_HMMActual","null","","","","Images/BlackBeadChoiceWrong.png","null"
"image-keyboard-response","623","1092645","0.0-4.0-0.201","18","High_HMMActual","597.3649999941699","","","","Images/NewTrialWC.png","39"
"image-keyboard-response","624","1092899","0.0-4.0-1.201","18","High_HMMActual","null","","","","Images/WhiteBeadChoice.png","null"
"image-keyboard-response","625","1093407","0.0-4.0-2.201","18","High_HMMActual","null","","","","Images/WhiteBeadChoiceWrong.png","null"
"image-keyboard-response","626","1095156","0.0-4.0-0.202","18","High_HMMActual","1747.3599999793805","","","","Images/NewTrialBC.png","37"
"image-keyboard-response","627","1095420","0.0-4.0-1.202","18","High_HMMActual","null","","","","Images/BlackBeadChoice.png","null"
"image-keyboard-response","628","1095935","0.0-4.0-2.202","18","High_HMMActual","null","","","","Images/BlackBeadChoiceWrong.png","null"
"image-keyboard-response","629","1096897","0.0-4.0-0.203","18","High_HMMActual","959.3699999968521","","","","Images/NewTrialWC.png","39"
"image-keyboard-response","630","1097156","0.0-4.0-1.203","18","High_HMMActual","null","","","","Images/WhiteBeadChoice.png","null"
"image-keyboard-response","631","1097673","0.0-4.0-2.203","18","High_HMMActual","null","","","","Images/WhiteBeadChoiceCorrect.png","null"
"image-keyboard-response","632","1098204","0.0-4.0-0.204","18","High_HMMActual","530.3450000064913","","","","Images/NewTrialWC.png","37"
"image-keyboard-response","633","1098461","0.0-4.0-1.204","18","High_HMMActual","null","","","","Images/BlackBeadChoice.png","null"
"image-keyboard-response","634","1098963","0.0-4.0-2.204","18","High_HMMActual","null","","","","Images/BlackBeadChoiceWrong.png","null"
"image-keyboard-response","635","1099567","0.0-4.0-0.205","18","High_HMMActual","602.1900000050664","","","","Images/NewTrialWC.png","37"
"image-keyboard-response","636","1099833","0.0-4.0-1.205","18","High_HMMActual","null","","","","Images/BlackBeadChoice.png","null"
"image-keyboard-response","637","1100372","0.0-4.0-2.205","18","High_HMMActual","null","","","","Images/BlackBeadChoiceWrong.png","null"
"image-keyboard-response","638","1100862","0.0-4.0-0.206","18","High_HMMActual","488.79000000306405","","","","Images/NewTrialWC.png","37"
"image-keyboard-response","639","1101120","0.0-4.0-1.206","18","High_HMMActual","null","","","","Images/BlackBeadChoice.png","null"
"image-keyboard-response","640","1101625","0.0-4.0-2.206","18","High_HMMActual","null","","","","Images/BlackBeadChoiceCorrect.png","null"
"image-keyboard-response","641","1102314","0.0-4.0-0.207","18","High_HMMActual","687.210000003688","","","","Images/NewTrialBC.png","37"
"image-keyboard-response","642","1102575","0.0-4.0-1.207","18","High_HMMActual","null","","","","Images/BlackBeadChoice.png","null"
"image-keyboard-response","643","1103086","0.0-4.0-2.207","18","High_HMMActual","null","","","","Images/BlackBeadChoiceCorrect.png","null"
"image-keyboard-response","644","1103686","0.0-4.0-0.208","18","High_HMMActual","599.4449999998324","","","","Images/NewTrialBC.png","39"
"image-keyboard-response","645","1103949","0.0-4.0-1.208","18","High_HMMActual","null","","","","Images/WhiteBeadChoice.png","null"
"image-keyboard-response","646","1104466","0.0-4.0-2.208","18","High_HMMActual","null","","","","Images/WhiteBeadChoiceCorrect.png","null"
"image-keyboard-response","647","1105501","0.0-4.0-0.209","18","High_HMMActual","1033.529999986058","","","","Images/NewTrialWC.png","37"
"image-keyboard-response","648","1105767","0.0-4.0-1.209","18","High_HMMActual","null","","","","Images/BlackBeadChoice.png","null"
"image-keyboard-response","649","1106284","0.0-4.0-2.209","18","High_HMMActual","null","","","","Images/BlackBeadChoiceCorrect.png","null"
"image-keyboard-response","650","1106608","0.0-4.0-0.210","18","High_HMMActual","321.7750000185333","","","","Images/NewTrialBC.png","39"
"image-keyboard-response","651","1106869","0.0-4.0-1.210","18","High_HMMActual","null","","","","Images/WhiteBeadChoice.png","null"
"image-keyboard-response","652","1107370","0.0-4.0-2.210","18","High_HMMActual","null","","","","Images/WhiteBeadChoiceWrong.png","null"
"image-keyboard-response","653","1108053","0.0-4.0-0.211","18","High_HMMActual","681.4799999992829","","","","Images/NewTrialBC.png","37"
"image-keyboard-response","654","1108308","0.0-4.0-1.211","18","High_HMMActual","null","","","","Images/BlackBeadChoice.png","null"
"image-keyboard-response","655","1108809","0.0-4.0-2.211","18","High_HMMActual","null","","","","Images/BlackBeadChoiceCorrect.png","null"
"image-keyboard-response","656","1109176","0.0-4.0-0.212","18","High_HMMActual","365.58499999227934","","","","Images/NewTrialBC.png","39"
"image-keyboard-response","657","1109432","0.0-4.0-1.212","18","High_HMMActual","null","","","","Images/WhiteBeadChoice.png","null"
"image-keyboard-response","658","1109935","0.0-4.0-2.212","18","High_HMMActual","null","","","","Images/WhiteBeadChoiceCorrect.png","null"
"image-keyboard-response","659","1112276","0.0-4.0-0.213","18","High_HMMActual","2339.540000015404","","","","Images/NewTrialWC.png","37"
"image-keyboard-response","660","1112537","0.0-4.0-1.213","18","High_HMMActual","null","","","","Images/BlackBeadChoice.png","null"
"image-keyboard-response","661","1113040","0.0-4.0-2.213","18","High_HMMActual","null","","","","Images/BlackBeadChoiceCorrect.png","null"
"image-keyboard-response","662","1113622","0.0-4.0-0.214","18","High_HMMActual","580.8599999872968","","","","Images/NewTrialBC.png","37"
"image-keyboard-response","663","1113877","0.0-4.0-1.214","18","High_HMMActual","null","","","","Images/BlackBeadChoice.png","null"
"image-keyboard-response","664","1114379","0.0-4.0-2.214","18","High_HMMActual","null","","","","Images/BlackBeadChoiceWrong.png","null"
"image-keyboard-response","665","1114956","0.0-4.0-0.215","18","High_HMMActual","575.6800000090152","","","","Images/NewTrialWC.png","37"
"image-keyboard-response","666","1115214","0.0-4.0-1.215","18","High_HMMActual","null","","","","Images/BlackBeadChoice.png","null"
"image-keyboard-response","667","1115716","0.0-4.0-2.215","18","High_HMMActual","null","","","","Images/BlackBeadChoiceCorrect.png","null"
"image-keyboard-response","668","1116311","0.0-4.0-0.216","18","High_HMMActual","593.1049999780953","","","","Images/NewTrialBC.png","37"
"image-keyboard-response","669","1116571","0.0-4.0-1.216","18","High_HMMActual","null","","","","Images/BlackBeadChoice.png","null"
"image-keyboard-response","670","1117075","0.0-4.0-2.216","18","High_HMMActual","null","","","","Images/BlackBeadChoiceWrong.png","null"
"image-keyboard-response","671","1117537","0.0-4.0-0.217","18","High_HMMActual","461.5800000028685","","","","Images/NewTrialWC.png","37"
"image-keyboard-response","672","1117796","0.0-4.0-1.217","18","High_HMMActual","null","","","","Images/BlackBeadChoice.png","null"
"image-keyboard-response","673","1118300","0.0-4.0-2.217","18","High_HMMActual","null","","","","Images/BlackBeadChoiceCorrect.png","null"
"image-keyboard-response","674","1118866","0.0-4.0-0.218","18","High_HMMActual","565.0700000114739","","","","Images/NewTrialBC.png","39"
"image-keyboard-response","675","1119123","0.0-4.0-1.218","18","High_HMMActual","null","","","","Images/WhiteBeadChoice.png","null"
"image-keyboard-response","676","1119625","0.0-4.0-2.218","18","High_HMMActual","null","","","","Images/WhiteBeadChoiceCorrect.png","null"
"image-keyboard-response","677","1120211","0.0-4.0-0.219","18","High_HMMActual","584.8500000138301","","","","Images/NewTrialWC.png","39"
"image-keyboard-response","678","1120478","0.0-4.0-1.219","18","High_HMMActual","null","","","","Images/WhiteBeadChoice.png","null"
"image-keyboard-response","679","1120981","0.0-4.0-2.219","18","High_HMMActual","null","","","","Images/WhiteBeadChoiceWrong.png","null"
"image-keyboard-response","680","1121881","0.0-4.0-0.220","18","High_HMMActual","898.6450000084005","","","","Images/NewTrialBC.png","37"
"image-keyboard-response","681","1122133","0.0-4.0-1.220","18","High_HMMActual","null","","","","Images/BlackBeadChoice.png","null"
"image-keyboard-response","682","1122650","0.0-4.0-2.220","18","High_HMMActual","316.240000014659","","","","Images/BlackBeadChoiceCorrect.png","39"
"image-keyboard-response","683","1124456","0.0-4.0-0.221","18","High_HMMActual","1805.5199999944307","","","","Images/NewTrialBC.png","37"
"image-keyboard-response","684","1124723","0.0-4.0-1.221","18","High_HMMActual","null","","","","Images/BlackBeadChoice.png","null"
"image-keyboard-response","685","1125226","0.0-4.0-2.221","18","High_HMMActual","151.94000001065433","","","","Images/BlackBeadChoiceCorrect.png","39"
"image-keyboard-response","686","1125782","0.0-4.0-0.222","18","High_HMMActual","555.4849999898579","","","","Images/NewTrialBC.png","37"
"image-keyboard-response","687","1126042","0.0-4.0-1.222","18","High_HMMActual","null","","","","Images/BlackBeadChoice.png","null"
"image-keyboard-response","688","1126547","0.0-4.0-2.222","18","High_HMMActual","232.77999999118038","","","","Images/BlackBeadChoiceWrong.png","37"
"image-keyboard-response","689","1127681","0.0-4.0-0.223","18","High_HMMActual","1131.8999999784864","","","","Images/NewTrialWC.png","39"
"image-keyboard-response","690","1127941","0.0-4.0-1.223","18","High_HMMActual","null","","","","Images/WhiteBeadChoice.png","null"
"image-keyboard-response","691","1128443","0.0-4.0-2.223","18","High_HMMActual","null","","","","Images/WhiteBeadChoiceWrong.png","null"
"image-keyboard-response","692","1128900","0.0-4.0-0.224","18","High_HMMActual","455.5150000087451","","","","Images/NewTrialBC.png","37"
"image-keyboard-response","693","1129162","0.0-4.0-1.224","18","High_HMMActual","null","","","","Images/BlackBeadChoice.png","null"
"image-keyboard-response","694","1129667","0.0-4.0-2.224","18","High_HMMActual","null","","","","Images/BlackBeadChoiceWrong.png","null"
"image-keyboard-response","695","1130188","0.0-4.0-0.225","18","High_HMMActual","520.1999999990221","","","","Images/NewTrialWC.png","39"
"image-keyboard-response","696","1130453","0.0-4.0-1.225","18","High_HMMActual","null","","","","Images/WhiteBeadChoice.png","null"
"image-keyboard-response","697","1130954","0.0-4.0-2.225","18","High_HMMActual","431.93500000052154","","","","Images/WhiteBeadChoiceWrong.png","39"
"image-keyboard-response","698","1132076","0.0-4.0-0.226","18","High_HMMActual","1120.5750000081025","","","","Images/NewTrialBC.png","37"
"image-keyboard-response","699","1132333","0.0-4.0-1.226","18","High_HMMActual","null","","","","Images/BlackBeadChoice.png","null"
"image-keyboard-response","700","1132836","0.0-4.0-2.226","18","High_HMMActual","null","","","","Images/BlackBeadChoiceWrong.png","null"
"image-keyboard-response","701","1135184","0.0-4.0-0.227","18","High_HMMActual","2347.039999993285","","","","Images/NewTrialWC.png","37"
"image-keyboard-response","702","1135438","0.0-4.0-1.227","18","High_HMMActual","null","","","","Images/BlackBeadChoice.png","null"
"image-keyboard-response","703","1135940","0.0-4.0-2.227","18","High_HMMActual","null","","","","Images/BlackBeadChoiceWrong.png","null"
"image-keyboard-response","704","1136260","0.0-4.0-0.228","18","High_HMMActual","318.86499997926876","","","","Images/NewTrialWC.png","39"
"image-keyboard-response","705","1136521","0.0-4.0-1.228","18","High_HMMActual","null","","","","Images/WhiteBeadChoice.png","null"
"image-keyboard-response","706","1137025","0.0-4.0-2.228","18","High_HMMActual","null","","","","Images/WhiteBeadChoiceWrong.png","null"
"image-keyboard-response","707","1137621","0.0-4.0-0.229","18","High_HMMActual","595.0449999945704","","","","Images/NewTrialBC.png","37"
"image-keyboard-response","708","1137881","0.0-4.0-1.229","18","High_HMMActual","null","","","","Images/BlackBeadChoice.png","null"
"image-keyboard-response","709","1138387","0.0-4.0-2.229","18","High_HMMActual","null","","","","Images/BlackBeadChoiceWrong.png","null"
"image-keyboard-response","710","1139768","0.0-4.0-0.230","18","High_HMMActual","1379.384999978356","","","","Images/NewTrialWC.png","37"
"image-keyboard-response","711","1140022","0.0-4.0-1.230","18","High_HMMActual","null","","","","Images/BlackBeadChoice.png","null"
"image-keyboard-response","712","1140524","0.0-4.0-2.230","18","High_HMMActual","null","","","","Images/BlackBeadChoiceWrong.png","null"
"image-keyboard-response","713","1141324","0.0-4.0-0.231","18","High_HMMActual","798.8400000031106","","","","Images/NewTrialWC.png","37"
"image-keyboard-response","714","1141579","0.0-4.0-1.231","18","High_HMMActual","null","","","","Images/BlackBeadChoice.png","null"
