"trial_type","trial_index","time_elapsed","internal_node_id","Script_Picker","Block_Type","rt","url","responses","question_order","stimulus","key_press"
"pavlovia","0","2","0.0-0.0","20","Low_HMMActual","","","","","",""
"external-html","1","36798","0.0-1.0-0.0","20","Low_HMMActual","36731.89000000093","consent.html","","","",""
"survey-multi-choice","2","75270","0.0-1.0-1.0","20","Low_HMMActual","38470.20499999962","","{""Q0"":""Male"",""Q1"":""White""}","[0,1]","",""
"survey-text","3","78646","0.0-1.0-2.0","20","Low_HMMActual","3369.3350000012288","","{""Q0"":""27""}","","",""
"survey-text","4","84206","0.0-1.0-3.0","20","Low_HMMActual","5457.070000000385","","{""Q0"":""5ed590bf481c4512b168946f""}","","",""
"html-keyboard-response","5","113768","0.0-2.0-0.0","20","Low_HMMActual","29459.670000000187","","","","<div class=""container"" style=""height:800px;width:800px;display:flex;flex-direction:column;justify-content:center;align-items:center;text-align:center;font-weight:normal;font-family:Arial;font-size:20px""><p>In this task you will see black or white beads being pulled from jars. <br><br>On each trial, a bead will be pulled from one of two jars. Once you see this bead, your goal is to predict the color of NEXT bead that will be pulled. <br> <br>Every time you correctly guess the color of the NEXT bead, you will get a point. <br><br>Press the SPACEBAR to continue.</p><div>","32"
"html-keyboard-response","6","127408","0.0-2.0-1.0","20","Low_HMMActual","13640.449999998964","","","","<div class=""container"" style=""height:800px;width:800px;display:flex;flex-direction:column;justify-content:center;align-items:center;text-align:center;font-weight:normal;font-family:Arial;font-size:20px""><p>Jars are filled with 80% white or black beads and 20% of the opposite color mixed in.<br><br>Press the SPACEBAR to continue. </p><div>","32"
"image-keyboard-response","7","139138","0.0-2.0-2.0","20","Low_HMMActual","11728.74000000047","","","","resources/WhiteJar_HMM.png","32"
"image-keyboard-response","8","143626","0.0-2.0-3.0","20","Low_HMMActual","4487.255000000005","","","","resources/BlackJar_HMM.png","32"
"html-keyboard-response","9","148195","0.0-2.0-4.0","20","Low_HMMActual","4568.085000000778","","","","<div class=""container"" style=""height:800px;width:800px;display:flex;flex-direction:column;justify-content:center;align-items:center;text-align:center;font-weight:normal;font-family:Arial;font-size:20px""><p>There will be two blocks of trials. Each block will contain 500 trials. <br><br>Here are examples of what you will see on each trial.<br><br>Press the SPACEBAR to continue. </p><div>","32"
"image-keyboard-response","10","153508","0.0-2.0-5.0","20","Low_HMMActual","5312.345000000292","","","","Images/NoChoice.png","32"
"html-keyboard-response","11","189760","0.0-2.0-6.0","20","Low_HMMActual","36251.94000000012","","","","<div class=""container"" style=""height:800px;width:800px;display:flex;flex-direction:column;justify-content:center;align-items:center;text-align:center;font-weight:normal;font-family:Arial;font-size:20px""><p> The jar the beads are pulled from is NOT choosen at random on each trial.<br><br>After each prediction, there will be a chance that the jars will switch, and that the next bead will be pulled from the opposite jar as the previous trial.<br><br>In each block, the chance that a jar will switch will either be LOW (the jars will not switch very often), or HIGH (the jars will switch almost all the time).<br><br>At the start of each block, you will be told the probability that the jars will switch on each trial. This switch probability will stay constant throughout the block.<br><br>We will now show you some examples of beads being drawn from jars. The bead will appear in the middle of the screen, and the jar the bead was pulled from will be indicated with a black rectangle.<br><br>Press the SPACEBAR to continue. </p><div>","32"
"image-keyboard-response","12","202049","0.0-2.0-7.0","20","Low_HMMActual","12288.894999999698","","","","Images/TutorialWhiteJarDrawHMMC.png","32"
"image-keyboard-response","13","205553","0.0-2.0-8.0","20","Low_HMMActual","3503.399999999616","","","","Images/TutorialBlackJarDrawHMMC.png","32"
"image-keyboard-response","14","206858","0.0-2.0-9.0","20","Low_HMMActual","1303.4850000003644","","","","Images/TutorialBlackJarDrawHMMI.png","32"
"html-keyboard-response","15","223284","0.0-2.0-10.0","20","Low_HMMActual","16425.834999999992","","","","<div class=""container"" style=""height:800px;width:800px;display:flex;flex-direction:column;justify-content:center;align-items:center;text-align:center;font-weight:normal;font-family:Arial;font-size:20px""><p> As you observed, a white bead was pulled from a 80% white jar, the jars switched and a black bead was pulled from the 80% black jar, but then a low-probability white bead was pulled from the 80% black jar. <br><br>Because the jars have a mix of white and black beads, the best strategy to predict the next bead is to first figure out which jar the current bead was pulled from, then use the jar switch probability to predict which jar will be drawn from next.<br><br>Press SPACEBAR to conitnue.</p><div>","32"
"html-keyboard-response","16","228332","0.0-2.0-11.0","20","Low_HMMActual","5047.77999999898","","","","<div class=""container"" style=""height:800px;width:800px;display:flex;flex-direction:column;justify-content:center;align-items:center;text-align:center;font-weight:normal;font-family:Arial;font-size:20px""><p> You will now be given a 2 question quiz to make sure you understand the task. </p><div>","32"
"image-keyboard-response","17","238526","0.0-2.0-12.0","20","Low_HMMActual","10193.11500000002","","","","Images/TutorialQuestion1.png","39"
"image-keyboard-response","18","250352","0.0-2.0-13.0","20","Low_HMMActual","8922.145000000455","","","","Images/TutorialQuestion2.png","38"
"html-keyboard-response","19","266569","0.0-3.0","20","Low_HMMActual","14427.079999999492","","","","<div class=""container"" style=""height:800px;width:800px;display:flex;flex-direction:column;justify-content:center;align-items:center;text-align:center;font-weight:normal;font-family:Arial;font-size:20px""><p>Loading episode&hellip;</p><div>","32"
"image-keyboard-response","20","275842","0.0-4.0-0.0","20","Low_HMMActual","9271.684999999707","","","","Images/NoChoice.png","39"
"image-keyboard-response","21","276243","0.0-4.0-1.0","20","Low_HMMActual","null","","","","Images/WhiteBeadChoice.png","null"
"image-keyboard-response","22","276945","0.0-4.0-2.0","20","Low_HMMActual","null","","","","Images/WhiteBeadChoiceCorrect.png","null"
"image-keyboard-response","23","278483","0.0-4.0-0.1","20","Low_HMMActual","1537.155000000028","","","","Images/NewTrialWC.png","37"
"image-keyboard-response","24","278884","0.0-4.0-1.1","20","Low_HMMActual","null","","","","Images/BlackBeadChoice.png","null"
"image-keyboard-response","25","279585","0.0-4.0-2.1","20","Low_HMMActual","null","","","","Images/BlackBeadChoiceCorrect.png","null"
"image-keyboard-response","26","280843","0.0-4.0-0.2","20","Low_HMMActual","1256.6700000006822","","","","Images/NewTrialBC.png","39"
"image-keyboard-response","27","281244","0.0-4.0-1.2","20","Low_HMMActual","null","","","","Images/WhiteBeadChoice.png","null"
"image-keyboard-response","28","281945","0.0-4.0-2.2","20","Low_HMMActual","null","","","","Images/WhiteBeadChoiceWrong.png","null"
"image-keyboard-response","29","283395","0.0-4.0-0.3","20","Low_HMMActual","1449.1199999992969","","","","Images/NewTrialBC.png","37"
"image-keyboard-response","30","283797","0.0-4.0-1.3","20","Low_HMMActual","null","","","","Images/BlackBeadChoice.png","null"
"image-keyboard-response","31","284500","0.0-4.0-2.3","20","Low_HMMActual","null","","","","Images/BlackBeadChoiceCorrect.png","null"
"image-keyboard-response","32","285443","0.0-4.0-0.4","20","Low_HMMActual","942.6899999998859","","","","Images/NewTrialBC.png","39"
"image-keyboard-response","33","285844","0.0-4.0-1.4","20","Low_HMMActual","null","","","","Images/WhiteBeadChoice.png","null"
"image-keyboard-response","34","286545","0.0-4.0-2.4","20","Low_HMMActual","null","","","","Images/WhiteBeadChoiceWrong.png","null"
"image-keyboard-response","35","287507","0.0-4.0-0.5","20","Low_HMMActual","961.4199999996345","","","","Images/NewTrialBC.png","37"
"image-keyboard-response","36","287908","0.0-4.0-1.5","20","Low_HMMActual","null","","","","Images/BlackBeadChoice.png","null"
"image-keyboard-response","37","288609","0.0-4.0-2.5","20","Low_HMMActual","null","","","","Images/BlackBeadChoiceCorrect.png","null"
"image-keyboard-response","38","292508","0.0-4.0-0.6","20","Low_HMMActual","3898.664999998815","","","","Images/NewTrialBC.png","37"
"image-keyboard-response","39","292909","0.0-4.0-1.6","20","Low_HMMActual","null","","","","Images/BlackBeadChoice.png","null"
"image-keyboard-response","40","293611","0.0-4.0-2.6","20","Low_HMMActual","null","","","","Images/BlackBeadChoiceCorrect.png","null"
"image-keyboard-response","41","294132","0.0-4.0-0.7","20","Low_HMMActual","519.8099999997648","","","","Images/NewTrialBC.png","37"
"image-keyboard-response","42","294533","0.0-4.0-1.7","20","Low_HMMActual","null","","","","Images/BlackBeadChoice.png","null"
"image-keyboard-response","43","295234","0.0-4.0-2.7","20","Low_HMMActual","null","","","","Images/BlackBeadChoiceCorrect.png","null"
"image-keyboard-response","44","295516","0.0-4.0-0.8","20","Low_HMMActual","280.370000000461","","","","Images/NewTrialBC.png","37"
"image-keyboard-response","45","295917","0.0-4.0-1.8","20","Low_HMMActual","null","","","","Images/BlackBeadChoice.png","null"
"image-keyboard-response","46","296618","0.0-4.0-2.8","20","Low_HMMActual","null","","","","Images/BlackBeadChoiceCorrect.png","null"
"image-keyboard-response","47","296964","0.0-4.0-0.9","20","Low_HMMActual","345.0949999987497","","","","Images/NewTrialBC.png","37"
"image-keyboard-response","48","297365","0.0-4.0-1.9","20","Low_HMMActual","null","","","","Images/BlackBeadChoice.png","null"
"image-keyboard-response","49","298067","0.0-4.0-2.9","20","Low_HMMActual","null","","","","Images/BlackBeadChoiceCorrect.png","null"
"image-keyboard-response","50","298316","0.0-4.0-0.10","20","Low_HMMActual","248.44999999913853","","","","Images/NewTrialBC.png","37"
"image-keyboard-response","51","298717","0.0-4.0-1.10","20","Low_HMMActual","null","","","","Images/BlackBeadChoice.png","null"
"image-keyboard-response","52","299418","0.0-4.0-2.10","20","Low_HMMActual","null","","","","Images/BlackBeadChoiceWrong.png","null"
"image-keyboard-response","53","300412","0.0-4.0-0.11","20","Low_HMMActual","993.9899999990594","","","","Images/NewTrialWC.png","37"
"image-keyboard-response","54","300814","0.0-4.0-1.11","20","Low_HMMActual","null","","","","Images/BlackBeadChoice.png","null"
"image-keyboard-response","55","301516","0.0-4.0-2.11","20","Low_HMMActual","null","","","","Images/BlackBeadChoiceCorrect.png","null"
"image-keyboard-response","56","301868","0.0-4.0-0.12","20","Low_HMMActual","352.04499999963446","","","","Images/NewTrialBC.png","37"
"image-keyboard-response","57","302270","0.0-4.0-1.12","20","Low_HMMActual","null","","","","Images/BlackBeadChoice.png","null"
"image-keyboard-response","58","302971","0.0-4.0-2.12","20","Low_HMMActual","null","","","","Images/BlackBeadChoiceWrong.png","null"
"image-keyboard-response","59","305477","0.0-4.0-0.13","20","Low_HMMActual","2505.6349999994854","","","","Images/NewTrialWC.png","37"
"image-keyboard-response","60","305880","0.0-4.0-1.13","20","Low_HMMActual","null","","","","Images/BlackBeadChoice.png","null"
"image-keyboard-response","61","306581","0.0-4.0-2.13","20","Low_HMMActual","null","","","","Images/BlackBeadChoiceCorrect.png","null"
"image-keyboard-response","62","306933","0.0-4.0-0.14","20","Low_HMMActual","351.52000000013504","","","","Images/NewTrialBC.png","39"
"image-keyboard-response","63","307334","0.0-4.0-1.14","20","Low_HMMActual","null","","","","Images/WhiteBeadChoice.png","null"
"image-keyboard-response","64","308035","0.0-4.0-2.14","20","Low_HMMActual","null","","","","Images/WhiteBeadChoiceCorrect.png","null"
"image-keyboard-response","65","308469","0.0-4.0-0.15","20","Low_HMMActual","433.33999999955995","","","","Images/NewTrialWC.png","37"
"image-keyboard-response","66","308871","0.0-4.0-1.15","20","Low_HMMActual","null","","","","Images/BlackBeadChoice.png","null"
"image-keyboard-response","67","309571","0.0-4.0-2.15","20","Low_HMMActual","null","","","","Images/BlackBeadChoiceCorrect.png","null"
"image-keyboard-response","68","309861","0.0-4.0-0.16","20","Low_HMMActual","289.4249999989988","","","","Images/NewTrialBC.png","39"
"image-keyboard-response","69","310263","0.0-4.0-1.16","20","Low_HMMActual","null","","","","Images/WhiteBeadChoice.png","null"
"image-keyboard-response","70","310964","0.0-4.0-2.16","20","Low_HMMActual","null","","","","Images/WhiteBeadChoiceCorrect.png","null"
"image-keyboard-response","71","311301","0.0-4.0-0.17","20","Low_HMMActual","336.6150000001653","","","","Images/NewTrialWC.png","37"
"image-keyboard-response","72","311703","0.0-4.0-1.17","20","Low_HMMActual","null","","","","Images/BlackBeadChoice.png","null"
"image-keyboard-response","73","312405","0.0-4.0-2.17","20","Low_HMMActual","null","","","","Images/BlackBeadChoiceCorrect.png","null"
"image-keyboard-response","74","312654","0.0-4.0-0.18","20","Low_HMMActual","248.30999999900814","","","","Images/NewTrialBC.png","39"
"image-keyboard-response","75","313054","0.0-4.0-1.18","20","Low_HMMActual","null","","","","Images/WhiteBeadChoice.png","null"
"image-keyboard-response","76","313756","0.0-4.0-2.18","20","Low_HMMActual","null","","","","Images/WhiteBeadChoiceWrong.png","null"
"image-keyboard-response","77","314350","0.0-4.0-0.19","20","Low_HMMActual","593.2350000002771","","","","Images/NewTrialBC.png","37"
"image-keyboard-response","78","314752","0.0-4.0-1.19","20","Low_HMMActual","null","","","","Images/BlackBeadChoice.png","null"
"image-keyboard-response","79","315452","0.0-4.0-2.19","20","Low_HMMActual","null","","","","Images/BlackBeadChoiceCorrect.png","null"
"image-keyboard-response","80","315727","0.0-4.0-0.20","20","Low_HMMActual","273.4250000012107","","","","Images/NewTrialBC.png","39"
"image-keyboard-response","81","316128","0.0-4.0-1.20","20","Low_HMMActual","null","","","","Images/WhiteBeadChoice.png","null"
"image-keyboard-response","82","316830","0.0-4.0-2.20","20","Low_HMMActual","null","","","","Images/WhiteBeadChoiceWrong.png","null"
"image-keyboard-response","83","317462","0.0-4.0-0.21","20","Low_HMMActual","631.4550000006566","","","","Images/NewTrialBC.png","37"
"image-keyboard-response","84","317863","0.0-4.0-1.21","20","Low_HMMActual","null","","","","Images/BlackBeadChoice.png","null"
"image-keyboard-response","85","318564","0.0-4.0-2.21","20","Low_HMMActual","null","","","","Images/BlackBeadChoiceCorrect.png","null"
"image-keyboard-response","86","318838","0.0-4.0-0.22","20","Low_HMMActual","273.76499999989755","","","","Images/NewTrialBC.png","37"
"image-keyboard-response","87","319239","0.0-4.0-1.22","20","Low_HMMActual","null","","","","Images/BlackBeadChoice.png","null"
"image-keyboard-response","88","319940","0.0-4.0-2.22","20","Low_HMMActual","null","","","","Images/BlackBeadChoiceCorrect.png","null"
"image-keyboard-response","89","320223","0.0-4.0-0.23","20","Low_HMMActual","282.20499999955064","","","","Images/NewTrialBC.png","37"
"image-keyboard-response","90","320625","0.0-4.0-1.23","20","Low_HMMActual","null","","","","Images/BlackBeadChoice.png","null"
"image-keyboard-response","91","321327","0.0-4.0-2.23","20","Low_HMMActual","null","","","","Images/BlackBeadChoiceCorrect.png","null"
"image-keyboard-response","92","321551","0.0-4.0-0.24","20","Low_HMMActual","223.22999999957392","","","","Images/NewTrialBC.png","37"
"image-keyboard-response","93","321952","0.0-4.0-1.24","20","Low_HMMActual","null","","","","Images/BlackBeadChoice.png","null"
"image-keyboard-response","94","322653","0.0-4.0-2.24","20","Low_HMMActual","null","","","","Images/BlackBeadChoiceCorrect.png","null"
"image-keyboard-response","95","322911","0.0-4.0-0.25","20","Low_HMMActual","256.67500000057044","","","","Images/NewTrialBC.png","37"
"image-keyboard-response","96","323312","0.0-4.0-1.25","20","Low_HMMActual","null","","","","Images/BlackBeadChoice.png","null"
"image-keyboard-response","97","324014","0.0-4.0-2.25","20","Low_HMMActual","null","","","","Images/BlackBeadChoiceWrong.png","null"
"image-keyboard-response","98","324559","0.0-4.0-0.26","20","Low_HMMActual","544.4599999991478","","","","Images/NewTrialWC.png","37"
"image-keyboard-response","99","324960","0.0-4.0-1.26","20","Low_HMMActual","null","","","","Images/BlackBeadChoice.png","null"
"image-keyboard-response","100","325661","0.0-4.0-2.26","20","Low_HMMActual","null","","","","Images/BlackBeadChoiceCorrect.png","null"
"image-keyboard-response","101","326224","0.0-4.0-0.27","20","Low_HMMActual","562.0849999995553","","","","Images/NewTrialBC.png","39"
"image-keyboard-response","102","326626","0.0-4.0-1.27","20","Low_HMMActual","null","","","","Images/WhiteBeadChoice.png","null"
"image-keyboard-response","103","327327","0.0-4.0-2.27","20","Low_HMMActual","null","","","","Images/WhiteBeadChoiceWrong.png","null"
"image-keyboard-response","104","327671","0.0-4.0-0.28","20","Low_HMMActual","343.9749999997439","","","","Images/NewTrialBC.png","37"
"image-keyboard-response","105","328073","0.0-4.0-1.28","20","Low_HMMActual","null","","","","Images/BlackBeadChoice.png","null"
"image-keyboard-response","106","328774","0.0-4.0-2.28","20","Low_HMMActual","null","","","","Images/BlackBeadChoiceCorrect.png","null"
"image-keyboard-response","107","329008","0.0-4.0-0.29","20","Low_HMMActual","232.6750000010943","","","","Images/NewTrialBC.png","37"
"image-keyboard-response","108","329409","0.0-4.0-1.29","20","Low_HMMActual","null","","","","Images/BlackBeadChoice.png","null"
"image-keyboard-response","109","330111","0.0-4.0-2.29","20","Low_HMMActual","null","","","","Images/BlackBeadChoiceCorrect.png","null"
"image-keyboard-response","110","330376","0.0-4.0-0.30","20","Low_HMMActual","263.94500000058906","","","","Images/NewTrialBC.png","37"
"image-keyboard-response","111","330778","0.0-4.0-1.30","20","Low_HMMActual","null","","","","Images/BlackBeadChoice.png","null"
"image-keyboard-response","112","331479","0.0-4.0-2.30","20","Low_HMMActual","null","","","","Images/BlackBeadChoiceCorrect.png","null"
"image-keyboard-response","113","331680","0.0-4.0-0.31","20","Low_HMMActual","200.54499999969266","","","","Images/NewTrialBC.png","37"
"image-keyboard-response","114","332082","0.0-4.0-1.31","20","Low_HMMActual","null","","","","Images/BlackBeadChoice.png","null"
"image-keyboard-response","115","332784","0.0-4.0-2.31","20","Low_HMMActual","null","","","","Images/BlackBeadChoiceCorrect.png","null"
"image-keyboard-response","116","332944","0.0-4.0-0.32","20","Low_HMMActual","159.61999999854015","","","","Images/NewTrialBC.png","37"
"image-keyboard-response","117","333345","0.0-4.0-1.32","20","Low_HMMActual","null","","","","Images/BlackBeadChoice.png","null"
"image-keyboard-response","118","334046","0.0-4.0-2.32","20","Low_HMMActual","null","","","","Images/BlackBeadChoiceCorrect.png","null"
"image-keyboard-response","119","334248","0.0-4.0-0.33","20","Low_HMMActual","201.30500000051688","","","","Images/NewTrialBC.png","37"
"image-keyboard-response","120","334650","0.0-4.0-1.33","20","Low_HMMActual","null","","","","Images/BlackBeadChoice.png","null"
"image-keyboard-response","121","335350","0.0-4.0-2.33","20","Low_HMMActual","null","","","","Images/BlackBeadChoiceCorrect.png","null"
"image-keyboard-response","122","335568","0.0-4.0-0.34","20","Low_HMMActual","217.30500000010943","","","","Images/NewTrialBC.png","37"
"image-keyboard-response","123","335969","0.0-4.0-1.34","20","Low_HMMActual","null","","","","Images/BlackBeadChoice.png","null"
"image-keyboard-response","124","336671","0.0-4.0-2.34","20","Low_HMMActual","null","","","","Images/BlackBeadChoiceCorrect.png","null"
"image-keyboard-response","125","336873","0.0-4.0-0.35","20","Low_HMMActual","201.654999998922","","","","Images/NewTrialBC.png","37"
"image-keyboard-response","126","337274","0.0-4.0-1.35","20","Low_HMMActual","null","","","","Images/BlackBeadChoice.png","null"
"image-keyboard-response","127","337975","0.0-4.0-2.35","20","Low_HMMActual","null","","","","Images/BlackBeadChoiceCorrect.png","null"
"image-keyboard-response","128","338137","0.0-4.0-0.36","20","Low_HMMActual","160.88499999931082","","","","Images/NewTrialBC.png","37"
"image-keyboard-response","129","338538","0.0-4.0-1.36","20","Low_HMMActual","null","","","","Images/BlackBeadChoice.png","null"
"image-keyboard-response","130","339239","0.0-4.0-2.36","20","Low_HMMActual","null","","","","Images/BlackBeadChoiceWrong.png","null"
"image-keyboard-response","131","339417","0.0-4.0-0.37","20","Low_HMMActual","176.98500000004424","","","","Images/NewTrialWC.png","37"
"image-keyboard-response","132","339818","0.0-4.0-1.37","20","Low_HMMActual","null","","","","Images/BlackBeadChoice.png","null"
"image-keyboard-response","133","340519","0.0-4.0-2.37","20","Low_HMMActual","null","","","","Images/BlackBeadChoiceCorrect.png","null"
"image-keyboard-response","134","340849","0.0-4.0-0.38","20","Low_HMMActual","329.47499999863794","","","","Images/NewTrialBC.png","37"
"image-keyboard-response","135","341250","0.0-4.0-1.38","20","Low_HMMActual","null","","","","Images/BlackBeadChoice.png","null"
"image-keyboard-response","136","341952","0.0-4.0-2.38","20","Low_HMMActual","null","","","","Images/BlackBeadChoiceCorrect.png","null"
"image-keyboard-response","137","342122","0.0-4.0-0.39","20","Low_HMMActual","169.46500000084052","","","","Images/NewTrialBC.png","37"
"image-keyboard-response","138","342523","0.0-4.0-1.39","20","Low_HMMActual","null","","","","Images/BlackBeadChoice.png","null"
"image-keyboard-response","139","343226","0.0-4.0-2.39","20","Low_HMMActual","null","","","","Images/BlackBeadChoiceCorrect.png","null"
"image-keyboard-response","140","343401","0.0-4.0-0.40","20","Low_HMMActual","175.25000000023283","","","","Images/NewTrialBC.png","37"
"image-keyboard-response","141","343802","0.0-4.0-1.40","20","Low_HMMActual","null","","","","Images/BlackBeadChoice.png","null"
"image-keyboard-response","142","344504","0.0-4.0-2.40","20","Low_HMMActual","null","","","","Images/BlackBeadChoiceCorrect.png","null"
"image-keyboard-response","143","345450","0.0-4.0-0.41","20","Low_HMMActual","944.9300000015064","","","","Images/NewTrialBC.png","37"
"image-keyboard-response","144","345851","0.0-4.0-1.41","20","Low_HMMActual","null","","","","Images/BlackBeadChoice.png","null"
"image-keyboard-response","145","346552","0.0-4.0-2.41","20","Low_HMMActual","null","","","","Images/BlackBeadChoiceCorrect.png","null"
"image-keyboard-response","146","346634","0.0-4.0-0.42","20","Low_HMMActual","80.77500000037253","","","","Images/NewTrialBC.png","37"
"image-keyboard-response","147","347036","0.0-4.0-1.42","20","Low_HMMActual","null","","","","Images/BlackBeadChoice.png","null"
"image-keyboard-response","148","347737","0.0-4.0-2.42","20","Low_HMMActual","null","","","","Images/BlackBeadChoiceCorrect.png","null"
"image-keyboard-response","149","347914","0.0-4.0-0.43","20","Low_HMMActual","176.52499999897555","","","","Images/NewTrialBC.png","37"
"image-keyboard-response","150","348316","0.0-4.0-1.43","20","Low_HMMActual","null","","","","Images/BlackBeadChoice.png","null"
"image-keyboard-response","151","349018","0.0-4.0-2.43","20","Low_HMMActual","null","","","","Images/BlackBeadChoiceWrong.png","null"
"image-keyboard-response","152","349178","0.0-4.0-0.44","20","Low_HMMActual","159.66000000119675","","","","Images/NewTrialWC.png","37"
"image-keyboard-response","153","349579","0.0-4.0-1.44","20","Low_HMMActual","null","","","","Images/BlackBeadChoice.png","null"
"image-keyboard-response","154","350281","0.0-4.0-2.44","20","Low_HMMActual","null","","","","Images/BlackBeadChoiceWrong.png","null"
"image-keyboard-response","155","351010","0.0-4.0-0.45","20","Low_HMMActual","729.0300000004354","","","","Images/NewTrialWC.png","37"
"image-keyboard-response","156","351411","0.0-4.0-1.45","20","Low_HMMActual","null","","","","Images/BlackBeadChoice.png","null"
"image-keyboard-response","157","352112","0.0-4.0-2.45","20","Low_HMMActual","null","","","","Images/BlackBeadChoiceWrong.png","null"
"image-keyboard-response","158","352194","0.0-4.0-0.46","20","Low_HMMActual","81.30500000150641","","","","Images/NewTrialWC.png","39"
"image-keyboard-response","159","352597","0.0-4.0-1.46","20","Low_HMMActual","null","","","","Images/WhiteBeadChoice.png","null"
"image-keyboard-response","160","353298","0.0-4.0-2.46","20","Low_HMMActual","null","","","","Images/WhiteBeadChoiceCorrect.png","null"
"image-keyboard-response","161","353467","0.0-4.0-0.47","20","Low_HMMActual","168.29500000132248","","","","Images/NewTrialWC.png","39"
"image-keyboard-response","162","353868","0.0-4.0-1.47","20","Low_HMMActual","null","","","","Images/WhiteBeadChoice.png","null"
"image-keyboard-response","163","354570","0.0-4.0-2.47","20","Low_HMMActual","null","","","","Images/WhiteBeadChoiceCorrect.png","null"
"image-keyboard-response","164","354667","0.0-4.0-0.48","20","Low_HMMActual","96.77499999996508","","","","Images/NewTrialWC.png","39"
"image-keyboard-response","165","355069","0.0-4.0-1.48","20","Low_HMMActual","null","","","","Images/WhiteBeadChoice.png","null"
"image-keyboard-response","166","355771","0.0-4.0-2.48","20","Low_HMMActual","null","","","","Images/WhiteBeadChoiceCorrect.png","null"
"image-keyboard-response","167","355852","0.0-4.0-0.49","20","Low_HMMActual","80.37999999942258","","","","Images/NewTrialWC.png","39"
"image-keyboard-response","168","356254","0.0-4.0-1.49","20","Low_HMMActual","null","","","","Images/WhiteBeadChoice.png","null"
"image-keyboard-response","169","356955","0.0-4.0-2.49","20","Low_HMMActual","null","","","","Images/WhiteBeadChoiceCorrect.png","null"
"image-keyboard-response","170","357012","0.0-4.0-0.50","20","Low_HMMActual","55.870000000169966","","","","Images/NewTrialWC.png","39"
"image-keyboard-response","171","357413","0.0-4.0-1.50","20","Low_HMMActual","null","","","","Images/WhiteBeadChoice.png","null"
"image-keyboard-response","172","358115","0.0-4.0-2.50","20","Low_HMMActual","null","","","","Images/WhiteBeadChoiceCorrect.png","null"
"image-keyboard-response","173","358156","0.0-4.0-0.51","20","Low_HMMActual","40.374999998661224","","","","Images/NewTrialWC.png","39"
"image-keyboard-response","174","358557","0.0-4.0-1.51","20","Low_HMMActual","null","","","","Images/WhiteBeadChoice.png","null"
"image-keyboard-response","175","359258","0.0-4.0-2.51","20","Low_HMMActual","null","","","","Images/WhiteBeadChoiceCorrect.png","null"
"image-keyboard-response","176","359388","0.0-4.0-0.52","20","Low_HMMActual","129.1599999986356","","","","Images/NewTrialWC.png","39"
"image-keyboard-response","177","359789","0.0-4.0-1.52","20","Low_HMMActual","null","","","","Images/WhiteBeadChoice.png","null"
"image-keyboard-response","178","360490","0.0-4.0-2.52","20","Low_HMMActual","null","","","","Images/WhiteBeadChoiceWrong.png","null"
"image-keyboard-response","179","360660","0.0-4.0-0.53","20","Low_HMMActual","169.0600000001723","","","","Images/NewTrialBC.png","39"
"image-keyboard-response","180","361061","0.0-4.0-1.53","20","Low_HMMActual","null","","","","Images/WhiteBeadChoice.png","null"
"image-keyboard-response","181","361763","0.0-4.0-2.53","20","Low_HMMActual","null","","","","Images/WhiteBeadChoiceWrong.png","null"
"image-keyboard-response","182","361964","0.0-4.0-0.54","20","Low_HMMActual","200.65499999868916","","","","Images/NewTrialBC.png","37"
"image-keyboard-response","183","362366","0.0-4.0-1.54","20","Low_HMMActual","null","","","","Images/BlackBeadChoice.png","null"
"image-keyboard-response","184","363068","0.0-4.0-2.54","20","Low_HMMActual","null","","","","Images/BlackBeadChoiceWrong.png","null"
"image-keyboard-response","185","363196","0.0-4.0-0.55","20","Low_HMMActual","128.10499999974854","","","","Images/NewTrialWC.png","37"
"image-keyboard-response","186","363598","0.0-4.0-1.55","20","Low_HMMActual","null","","","","Images/BlackBeadChoice.png","null"
"image-keyboard-response","187","364299","0.0-4.0-2.55","20","Low_HMMActual","null","","","","Images/BlackBeadChoiceWrong.png","null"
"image-keyboard-response","188","364460","0.0-4.0-0.56","20","Low_HMMActual","160.66499999939697","","","","Images/NewTrialWC.png","39"
"image-keyboard-response","189","364862","0.0-4.0-1.56","20","Low_HMMActual","null","","","","Images/WhiteBeadChoice.png","null"
"image-keyboard-response","190","365563","0.0-4.0-2.56","20","Low_HMMActual","null","","","","Images/WhiteBeadChoiceWrong.png","null"
"image-keyboard-response","191","366181","0.0-4.0-0.57","20","Low_HMMActual","616.8949999992037","","","","Images/NewTrialBC.png","37"
"image-keyboard-response","192","366583","0.0-4.0-1.57","20","Low_HMMActual","null","","","","Images/BlackBeadChoice.png","null"
"image-keyboard-response","193","367284","0.0-4.0-2.57","20","Low_HMMActual","null","","","","Images/BlackBeadChoiceCorrect.png","null"
"image-keyboard-response","194","367517","0.0-4.0-0.58","20","Low_HMMActual","232.31499999930384","","","","Images/NewTrialBC.png","39"
"image-keyboard-response","195","367919","0.0-4.0-1.58","20","Low_HMMActual","null","","","","Images/WhiteBeadChoice.png","null"
"image-keyboard-response","196","368620","0.0-4.0-2.58","20","Low_HMMActual","null","","","","Images/WhiteBeadChoiceWrong.png","null"
"image-keyboard-response","197","368942","0.0-4.0-0.59","20","Low_HMMActual","321.16499999939697","","","","Images/NewTrialBC.png","37"
"image-keyboard-response","198","369343","0.0-4.0-1.59","20","Low_HMMActual","null","","","","Images/BlackBeadChoice.png","null"
"image-keyboard-response","199","370046","0.0-4.0-2.59","20","Low_HMMActual","null","","","","Images/BlackBeadChoiceCorrect.png","null"
"image-keyboard-response","200","370157","0.0-4.0-0.60","20","Low_HMMActual","110.85000000096625","","","","Images/NewTrialBC.png","37"
"image-keyboard-response","201","370559","0.0-4.0-1.60","20","Low_HMMActual","null","","","","Images/BlackBeadChoice.png","null"
"image-keyboard-response","202","371261","0.0-4.0-2.60","20","Low_HMMActual","null","","","","Images/BlackBeadChoiceWrong.png","null"
"image-keyboard-response","203","371621","0.0-4.0-0.61","20","Low_HMMActual","360.1349999990198","","","","Images/NewTrialWC.png","37"
"image-keyboard-response","204","372022","0.0-4.0-1.61","20","Low_HMMActual","null","","","","Images/BlackBeadChoice.png","null"
"image-keyboard-response","205","372724","0.0-4.0-2.61","20","Low_HMMActual","null","","","","Images/BlackBeadChoiceCorrect.png","null"
"image-keyboard-response","206","373045","0.0-4.0-0.62","20","Low_HMMActual","320.8249999988475","","","","Images/NewTrialBC.png","37"
"image-keyboard-response","207","373446","0.0-4.0-1.62","20","Low_HMMActual","null","","","","Images/BlackBeadChoice.png","null"
"image-keyboard-response","208","374148","0.0-4.0-2.62","20","Low_HMMActual","null","","","","Images/BlackBeadChoiceCorrect.png","null"
"image-keyboard-response","209","374238","0.0-4.0-0.63","20","Low_HMMActual","89.27000000036787","","","","Images/NewTrialBC.png","37"
"image-keyboard-response","210","374639","0.0-4.0-1.63","20","Low_HMMActual","null","","","","Images/BlackBeadChoice.png","null"
"image-keyboard-response","211","375340","0.0-4.0-2.63","20","Low_HMMActual","null","","","","Images/BlackBeadChoiceCorrect.png","null"
"image-keyboard-response","212","375470","0.0-4.0-0.64","20","Low_HMMActual","129.07500000076834","","","","Images/NewTrialBC.png","37"
"image-keyboard-response","213","375871","0.0-4.0-1.64","20","Low_HMMActual","null","","","","Images/BlackBeadChoice.png","null"
"image-keyboard-response","214","376572","0.0-4.0-2.64","20","Low_HMMActual","null","","","","Images/BlackBeadChoiceCorrect.png","null"
"image-keyboard-response","215","376678","0.0-4.0-0.65","20","Low_HMMActual","104.83500000007916","","","","Images/NewTrialBC.png","37"
"image-keyboard-response","216","377079","0.0-4.0-1.65","20","Low_HMMActual","null","","","","Images/BlackBeadChoice.png","null"
"image-keyboard-response","217","377781","0.0-4.0-2.65","20","Low_HMMActual","null","","","","Images/BlackBeadChoiceCorrect.png","null"
"image-keyboard-response","218","377910","0.0-4.0-0.66","20","Low_HMMActual","128.57500000065193","","","","Images/NewTrialBC.png","37"
"image-keyboard-response","219","378311","0.0-4.0-1.66","20","Low_HMMActual","null","","","","Images/BlackBeadChoice.png","null"
"image-keyboard-response","220","379012","0.0-4.0-2.66","20","Low_HMMActual","null","","","","Images/BlackBeadChoiceCorrect.png","null"
"image-keyboard-response","221","379127","0.0-4.0-0.67","20","Low_HMMActual","113.92500000150176","","","","Images/NewTrialBC.png","37"
"image-keyboard-response","222","379528","0.0-4.0-1.67","20","Low_HMMActual","null","","","","Images/BlackBeadChoice.png","null"
"image-keyboard-response","223","380230","0.0-4.0-2.67","20","Low_HMMActual","null","","","","Images/BlackBeadChoiceCorrect.png","null"
"image-keyboard-response","224","380302","0.0-4.0-0.68","20","Low_HMMActual","71.549999998766","","","","Images/NewTrialBC.png","37"
"image-keyboard-response","225","380704","0.0-4.0-1.68","20","Low_HMMActual","null","","","","Images/BlackBeadChoice.png","null"
"image-keyboard-response","226","381405","0.0-4.0-2.68","20","Low_HMMActual","null","","","","Images/BlackBeadChoiceCorrect.png","null"
"image-keyboard-response","227","381470","0.0-4.0-0.69","20","Low_HMMActual","64.83000000112224","","","","Images/NewTrialBC.png","37"
"image-keyboard-response","228","381872","0.0-4.0-1.69","20","Low_HMMActual","null","","","","Images/BlackBeadChoice.png","null"
"image-keyboard-response","229","382574","0.0-4.0-2.69","20","Low_HMMActual","null","","","","Images/BlackBeadChoiceCorrect.png","null"
"image-keyboard-response","230","382639","0.0-4.0-0.70","20","Low_HMMActual","64.38499999966007","","","","Images/NewTrialBC.png","37"
"image-keyboard-response","231","383040","0.0-4.0-1.70","20","Low_HMMActual","null","","","","Images/BlackBeadChoice.png","null"
"image-keyboard-response","232","383741","0.0-4.0-2.70","20","Low_HMMActual","null","","","","Images/BlackBeadChoiceCorrect.png","null"
"image-keyboard-response","233","383831","0.0-4.0-0.71","20","Low_HMMActual","88.67500000086147","","","","Images/NewTrialBC.png","37"
"image-keyboard-response","234","384232","0.0-4.0-1.71","20","Low_HMMActual","null","","","","Images/BlackBeadChoice.png","null"
"image-keyboard-response","235","384934","0.0-4.0-2.71","20","Low_HMMActual","null","","","","Images/BlackBeadChoiceWrong.png","null"
"image-keyboard-response","236","385095","0.0-4.0-0.72","20","Low_HMMActual","160.17999999900348","","","","Images/NewTrialWC.png","37"
"image-keyboard-response","237","385496","0.0-4.0-1.72","20","Low_HMMActual","null","","","","Images/BlackBeadChoice.png","null"
"image-keyboard-response","238","386198","0.0-4.0-2.72","20","Low_HMMActual","null","","","","Images/BlackBeadChoiceCorrect.png","null"
"image-keyboard-response","239","386271","0.0-4.0-0.73","20","Low_HMMActual","72.36999999987893","","","","Images/NewTrialBC.png","37"
"image-keyboard-response","240","386673","0.0-4.0-1.73","20","Low_HMMActual","null","","","","Images/BlackBeadChoice.png","null"
"image-keyboard-response","241","387374","0.0-4.0-2.73","20","Low_HMMActual","null","","","","Images/BlackBeadChoiceWrong.png","null"
"image-keyboard-response","242","387455","0.0-4.0-0.74","20","Low_HMMActual","80.56500000017695","","","","Images/NewTrialWC.png","37"
"image-keyboard-response","243","387856","0.0-4.0-1.74","20","Low_HMMActual","null","","","","Images/BlackBeadChoice.png","null"
"image-keyboard-response","244","388558","0.0-4.0-2.74","20","Low_HMMActual","null","","","","Images/BlackBeadChoiceCorrect.png","null"
"image-keyboard-response","245","388575","0.0-4.0-0.75","20","Low_HMMActual","16.604999998875428","","","","Images/NewTrialBC.png","37"
"image-keyboard-response","246","388977","0.0-4.0-1.75","20","Low_HMMActual","null","","","","Images/BlackBeadChoice.png","null"
"image-keyboard-response","247","389680","0.0-4.0-2.75","20","Low_HMMActual","null","","","","Images/BlackBeadChoiceCorrect.png","null"
"image-keyboard-response","248","389760","0.0-4.0-0.76","20","Low_HMMActual","79.4650000007241","","","","Images/NewTrialBC.png","37"
"image-keyboard-response","249","390161","0.0-4.0-1.76","20","Low_HMMActual","null","","","","Images/BlackBeadChoice.png","null"
"image-keyboard-response","250","390863","0.0-4.0-2.76","20","Low_HMMActual","null","","","","Images/BlackBeadChoiceCorrect.png","null"
"image-keyboard-response","251","390889","0.0-4.0-0.77","20","Low_HMMActual","24.69000000017695","","","","Images/NewTrialBC.png","37"
"image-keyboard-response","252","391290","0.0-4.0-1.77","20","Low_HMMActual","null","","","","Images/BlackBeadChoice.png","null"
"image-keyboard-response","253","391991","0.0-4.0-2.77","20","Low_HMMActual","null","","","","Images/BlackBeadChoiceWrong.png","null"
"image-keyboard-response","254","392128","0.0-4.0-0.78","20","Low_HMMActual","135.71500000037486","","","","Images/NewTrialWC.png","37"
"image-keyboard-response","255","392529","0.0-4.0-1.78","20","Low_HMMActual","null","","","","Images/BlackBeadChoice.png","null"
"image-keyboard-response","256","393231","0.0-4.0-2.78","20","Low_HMMActual","null","","","","Images/BlackBeadChoiceCorrect.png","null"
"image-keyboard-response","257","393240","0.0-4.0-0.79","20","Low_HMMActual","7.8049999992363155","","","","Images/NewTrialBC.png","37"
"image-keyboard-response","258","393641","0.0-4.0-1.79","20","Low_HMMActual","null","","","","Images/BlackBeadChoice.png","null"
"image-keyboard-response","259","394342","0.0-4.0-2.79","20","Low_HMMActual","null","","","","Images/BlackBeadChoiceCorrect.png","null"
"image-keyboard-response","260","394400","0.0-4.0-0.80","20","Low_HMMActual","57.40999999945052","","","","Images/NewTrialBC.png","37"
"image-keyboard-response","261","394802","0.0-4.0-1.80","20","Low_HMMActual","null","","","","Images/BlackBeadChoice.png","null"
"image-keyboard-response","262","395504","0.0-4.0-2.80","20","Low_HMMActual","null","","","","Images/BlackBeadChoiceWrong.png","null"
"image-keyboard-response","263","395544","0.0-4.0-0.81","20","Low_HMMActual","39.84999999916181","","","","Images/NewTrialWC.png","37"
"image-keyboard-response","264","395945","0.0-4.0-1.81","20","Low_HMMActual","null","","","","Images/BlackBeadChoice.png","null"
"image-keyboard-response","265","396646","0.0-4.0-2.81","20","Low_HMMActual","654.5800000003655","","","","Images/BlackBeadChoiceCorrect.png","37"
"image-keyboard-response","266","397064","0.0-4.0-0.82","20","Low_HMMActual","417.89000000065425","","","","Images/NewTrialBC.png","37"
"image-keyboard-response","267","397465","0.0-4.0-1.82","20","Low_HMMActual","null","","","","Images/BlackBeadChoice.png","null"
"image-keyboard-response","268","398166","0.0-4.0-2.82","20","Low_HMMActual","null","","","","Images/BlackBeadChoiceCorrect.png","null"
"image-keyboard-response","269","398329","0.0-4.0-0.83","20","Low_HMMActual","162.56499999872176","","","","Images/NewTrialBC.png","39"
"image-keyboard-response","270","398731","0.0-4.0-1.83","20","Low_HMMActual","null","","","","Images/WhiteBeadChoice.png","null"
"image-keyboard-response","271","399432","0.0-4.0-2.83","20","Low_HMMActual","null","","","","Images/WhiteBeadChoiceCorrect.png","null"
"image-keyboard-response","272","399625","0.0-4.0-0.84","20","Low_HMMActual","192.1449999990873","","","","Images/NewTrialWC.png","37"
"image-keyboard-response","273","400026","0.0-4.0-1.84","20","Low_HMMActual","null","","","","Images/BlackBeadChoice.png","null"
"image-keyboard-response","274","400727","0.0-4.0-2.84","20","Low_HMMActual","null","","","","Images/BlackBeadChoiceWrong.png","null"
"image-keyboard-response","275","400945","0.0-4.0-0.85","20","Low_HMMActual","217.7799999990384","","","","Images/NewTrialWC.png","37"
"image-keyboard-response","276","401346","0.0-4.0-1.85","20","Low_HMMActual","null","","","","Images/BlackBeadChoice.png","null"
"image-keyboard-response","277","402048","0.0-4.0-2.85","20","Low_HMMActual","null","","","","Images/BlackBeadChoiceCorrect.png","null"
"image-keyboard-response","278","402169","0.0-4.0-0.86","20","Low_HMMActual","120.81500000023516","","","","Images/NewTrialBC.png","39"
"image-keyboard-response","279","402570","0.0-4.0-1.86","20","Low_HMMActual","null","","","","Images/WhiteBeadChoice.png","null"
"image-keyboard-response","280","403271","0.0-4.0-2.86","20","Low_HMMActual","null","","","","Images/WhiteBeadChoiceWrong.png","null"
"image-keyboard-response","281","403433","0.0-4.0-0.87","20","Low_HMMActual","161.59500000136904","","","","Images/NewTrialBC.png","37"
"image-keyboard-response","282","403835","0.0-4.0-1.87","20","Low_HMMActual","null","","","","Images/BlackBeadChoice.png","null"
"image-keyboard-response","283","404536","0.0-4.0-2.87","20","Low_HMMActual","null","","","","Images/BlackBeadChoiceCorrect.png","null"
"image-keyboard-response","284","404665","0.0-4.0-0.88","20","Low_HMMActual","128.77999999909662","","","","Images/NewTrialBC.png","37"
"image-keyboard-response","285","405067","0.0-4.0-1.88","20","Low_HMMActual","null","","","","Images/BlackBeadChoice.png","null"
"image-keyboard-response","286","405768","0.0-4.0-2.88","20","Low_HMMActual","null","","","","Images/BlackBeadChoiceWrong.png","null"
"image-keyboard-response","287","406225","0.0-4.0-0.89","20","Low_HMMActual","456.4499999996624","","","","Images/NewTrialWC.png","37"
"image-keyboard-response","288","406626","0.0-4.0-1.89","20","Low_HMMActual","null","","","","Images/BlackBeadChoice.png","null"
"image-keyboard-response","289","407327","0.0-4.0-2.89","20","Low_HMMActual","null","","","","Images/BlackBeadChoiceWrong.png","null"
"image-keyboard-response","290","407658","0.0-4.0-0.90","20","Low_HMMActual","329.92499999998836","","","","Images/NewTrialWC.png","37"
"image-keyboard-response","291","408059","0.0-4.0-1.90","20","Low_HMMActual","null","","","","Images/BlackBeadChoice.png","null"
"image-keyboard-response","292","408760","0.0-4.0-2.90","20","Low_HMMActual","null","","","","Images/BlackBeadChoiceCorrect.png","null"
"image-keyboard-response","293","408986","0.0-4.0-0.91","20","Low_HMMActual","224.7550000010524","","","","Images/NewTrialBC.png","37"
"image-keyboard-response","294","409387","0.0-4.0-1.91","20","Low_HMMActual","null","","","","Images/BlackBeadChoice.png","null"
"image-keyboard-response","295","410089","0.0-4.0-2.91","20","Low_HMMActual","null","","","","Images/BlackBeadChoiceCorrect.png","null"
"image-keyboard-response","296","410554","0.0-4.0-0.92","20","Low_HMMActual","464.70500000030734","","","","Images/NewTrialBC.png","39"
"image-keyboard-response","297","410955","0.0-4.0-1.92","20","Low_HMMActual","null","","","","Images/WhiteBeadChoice.png","null"
"image-keyboard-response","298","411657","0.0-4.0-2.92","20","Low_HMMActual","null","","","","Images/WhiteBeadChoiceWrong.png","null"
"image-keyboard-response","299","412019","0.0-4.0-0.93","20","Low_HMMActual","361.23000000044703","","","","Images/NewTrialBC.png","37"
"image-keyboard-response","300","412420","0.0-4.0-1.93","20","Low_HMMActual","null","","","","Images/BlackBeadChoice.png","null"
"image-keyboard-response","301","413122","0.0-4.0-2.93","20","Low_HMMActual","null","","","","Images/BlackBeadChoiceCorrect.png","null"
"image-keyboard-response","302","413298","0.0-4.0-0.94","20","Low_HMMActual","175.9949999995879","","","","Images/NewTrialBC.png","37"
"image-keyboard-response","303","413699","0.0-4.0-1.94","20","Low_HMMActual","null","","","","Images/BlackBeadChoice.png","null"
"image-keyboard-response","304","414401","0.0-4.0-2.94","20","Low_HMMActual","null","","","","Images/BlackBeadChoiceWrong.png","null"
"image-keyboard-response","305","415139","0.0-4.0-0.95","20","Low_HMMActual","737.2599999998347","","","","Images/NewTrialWC.png","37"
"image-keyboard-response","306","415540","0.0-4.0-1.95","20","Low_HMMActual","null","","","","Images/BlackBeadChoice.png","null"
"image-keyboard-response","307","416242","0.0-4.0-2.95","20","Low_HMMActual","null","","","","Images/BlackBeadChoiceCorrect.png","null"
"image-keyboard-response","308","416411","0.0-4.0-0.96","20","Low_HMMActual","168.36500000138767","","","","Images/NewTrialBC.png","37"
"image-keyboard-response","309","416813","0.0-4.0-1.96","20","Low_HMMActual","null","","","","Images/BlackBeadChoice.png","null"
"image-keyboard-response","310","417514","0.0-4.0-2.96","20","Low_HMMActual","null","","","","Images/BlackBeadChoiceCorrect.png","null"
"image-keyboard-response","311","417755","0.0-4.0-0.97","20","Low_HMMActual","239.8800000009942","","","","Images/NewTrialBC.png","37"
"image-keyboard-response","312","418156","0.0-4.0-1.97","20","Low_HMMActual","null","","","","Images/BlackBeadChoice.png","null"
"image-keyboard-response","313","418857","0.0-4.0-2.97","20","Low_HMMActual","null","","","","Images/BlackBeadChoiceCorrect.png","null"
"image-keyboard-response","314","418947","0.0-4.0-0.98","20","Low_HMMActual","88.88999999908265","","","","Images/NewTrialBC.png","37"
"image-keyboard-response","315","419348","0.0-4.0-1.98","20","Low_HMMActual","null","","","","Images/BlackBeadChoice.png","null"
"image-keyboard-response","316","420050","0.0-4.0-2.98","20","Low_HMMActual","null","","","","Images/BlackBeadChoiceCorrect.png","null"
"image-keyboard-response","317","420131","0.0-4.0-0.99","20","Low_HMMActual","80.46499999909429","","","","Images/NewTrialBC.png","37"
"image-keyboard-response","318","420532","0.0-4.0-1.99","20","Low_HMMActual","null","","","","Images/BlackBeadChoice.png","null"
"image-keyboard-response","319","421234","0.0-4.0-2.99","20","Low_HMMActual","null","","","","Images/BlackBeadChoiceCorrect.png","null"
"image-keyboard-response","320","421323","0.0-4.0-0.100","20","Low_HMMActual","88.68499999883352","","","","Images/NewTrialBC.png","37"
"image-keyboard-response","321","421724","0.0-4.0-1.100","20","Low_HMMActual","null","","","","Images/BlackBeadChoice.png","null"
"image-keyboard-response","322","422425","0.0-4.0-2.100","20","Low_HMMActual","null","","","","Images/BlackBeadChoiceCorrect.png","null"
"image-keyboard-response","323","422508","0.0-4.0-0.101","20","Low_HMMActual","81.87999999971362","","","","Images/NewTrialBC.png","37"
"image-keyboard-response","324","422910","0.0-4.0-1.101","20","Low_HMMActual","null","","","","Images/BlackBeadChoice.png","null"
"image-keyboard-response","325","423611","0.0-4.0-2.101","20","Low_HMMActual","null","","","","Images/BlackBeadChoiceCorrect.png","null"
"image-keyboard-response","326","423692","0.0-4.0-0.102","20","Low_HMMActual","79.9299999998766","","","","Images/NewTrialBC.png","37"
"image-keyboard-response","327","424093","0.0-4.0-1.102","20","Low_HMMActual","null","","","","Images/BlackBeadChoice.png","null"
"image-keyboard-response","328","424795","0.0-4.0-2.102","20","Low_HMMActual","null","","","","Images/BlackBeadChoiceWrong.png","null"
"image-keyboard-response","329","424932","0.0-4.0-0.103","20","Low_HMMActual","135.93000000034226","","","","Images/NewTrialWC.png","37"
"image-keyboard-response","330","425333","0.0-4.0-1.103","20","Low_HMMActual","null","","","","Images/BlackBeadChoice.png","null"
"image-keyboard-response","331","426034","0.0-4.0-2.103","20","Low_HMMActual","null","","","","Images/BlackBeadChoiceCorrect.png","null"
"image-keyboard-response","332","426053","0.0-4.0-0.104","20","Low_HMMActual","18.21500000008382","","","","Images/NewTrialBC.png","37"
"image-keyboard-response","333","426454","0.0-4.0-1.104","20","Low_HMMActual","null","","","","Images/BlackBeadChoice.png","null"
"image-keyboard-response","334","427155","0.0-4.0-2.104","20","Low_HMMActual","null","","","","Images/BlackBeadChoiceCorrect.png","null"
"image-keyboard-response","335","427213","0.0-4.0-0.105","20","Low_HMMActual","57.124999999359716","","","","Images/NewTrialBC.png","37"
"image-keyboard-response","336","427615","0.0-4.0-1.105","20","Low_HMMActual","null","","","","Images/BlackBeadChoice.png","null"
"image-keyboard-response","337","428316","0.0-4.0-2.105","20","Low_HMMActual","null","","","","Images/BlackBeadChoiceCorrect.png","null"
"image-keyboard-response","338","428372","0.0-4.0-0.106","20","Low_HMMActual","55.655000000144355","","","","Images/NewTrialBC.png","37"
"image-keyboard-response","339","428775","0.0-4.0-1.106","20","Low_HMMActual","null","","","","Images/BlackBeadChoice.png","null"
"image-keyboard-response","340","429476","0.0-4.0-2.106","20","Low_HMMActual","null","","","","Images/BlackBeadChoiceCorrect.png","null"
"image-keyboard-response","341","429620","0.0-4.0-0.107","20","Low_HMMActual","143.39999999903375","","","","Images/NewTrialBC.png","37"
"image-keyboard-response","342","430022","0.0-4.0-1.107","20","Low_HMMActual","null","","","","Images/BlackBeadChoice.png","null"
"image-keyboard-response","343","430723","0.0-4.0-2.107","20","Low_HMMActual","null","","","","Images/BlackBeadChoiceCorrect.png","null"
"image-keyboard-response","344","430852","0.0-4.0-0.108","20","Low_HMMActual","128.52000000019325","","","","Images/NewTrialBC.png","37"
"image-keyboard-response","345","431254","0.0-4.0-1.108","20","Low_HMMActual","null","","","","Images/BlackBeadChoice.png","null"
"image-keyboard-response","346","431955","0.0-4.0-2.108","20","Low_HMMActual","null","","","","Images/BlackBeadChoiceCorrect.png","null"
"image-keyboard-response","347","432045","0.0-4.0-0.109","20","Low_HMMActual","88.96000000095228","","","","Images/NewTrialBC.png","37"
"image-keyboard-response","348","432445","0.0-4.0-1.109","20","Low_HMMActual","null","","","","Images/BlackBeadChoice.png","null"
"image-keyboard-response","349","433147","0.0-4.0-2.109","20","Low_HMMActual","null","","","","Images/BlackBeadChoiceWrong.png","null"
"image-keyboard-response","350","434077","0.0-4.0-0.110","20","Low_HMMActual","929.5399999991641","","","","Images/NewTrialWC.png","37"
"image-keyboard-response","351","434479","0.0-4.0-1.110","20","Low_HMMActual","null","","","","Images/BlackBeadChoice.png","null"
"image-keyboard-response","352","435180","0.0-4.0-2.110","20","Low_HMMActual","null","","","","Images/BlackBeadChoiceCorrect.png","null"
"image-keyboard-response","353","436605","0.0-4.0-0.111","20","Low_HMMActual","1424.3299999997835","","","","Images/NewTrialBC.png","37"
"image-keyboard-response","354","437006","0.0-4.0-1.111","20","Low_HMMActual","null","","","","Images/BlackBeadChoice.png","null"
"image-keyboard-response","355","437707","0.0-4.0-2.111","20","Low_HMMActual","null","","","","Images/BlackBeadChoiceCorrect.png","null"
"image-keyboard-response","356","438341","0.0-4.0-0.112","20","Low_HMMActual","633.149999999674","","","","Images/NewTrialBC.png","37"
"image-keyboard-response","357","438742","0.0-4.0-1.112","20","Low_HMMActual","null","","","","Images/BlackBeadChoice.png","null"
"image-keyboard-response","358","439443","0.0-4.0-2.112","20","Low_HMMActual","null","","","","Images/BlackBeadChoiceCorrect.png","null"
"image-keyboard-response","359","439662","0.0-4.0-0.113","20","Low_HMMActual","217.65500000037719","","","","Images/NewTrialBC.png","37"
"image-keyboard-response","360","440063","0.0-4.0-1.113","20","Low_HMMActual","null","","","","Images/BlackBeadChoice.png","null"
"image-keyboard-response","361","440764","0.0-4.0-2.113","20","Low_HMMActual","null","","","","Images/BlackBeadChoiceWrong.png","null"
"image-keyboard-response","362","441046","0.0-4.0-0.114","20","Low_HMMActual","281.20999999920605","","","","Images/NewTrialWC.png","37"
"image-keyboard-response","363","441447","0.0-4.0-1.114","20","Low_HMMActual","null","","","","Images/BlackBeadChoice.png","null"
"image-keyboard-response","364","442149","0.0-4.0-2.114","20","Low_HMMActual","null","","","","Images/BlackBeadChoiceCorrect.png","null"
"image-keyboard-response","365","445095","0.0-4.0-0.115","20","Low_HMMActual","2945.4599999990314","","","","Images/NewTrialBC.png","37"
"image-keyboard-response","366","445496","0.0-4.0-1.115","20","Low_HMMActual","null","","","","Images/BlackBeadChoice.png","null"
"image-keyboard-response","367","446197","0.0-4.0-2.115","20","Low_HMMActual","null","","","","Images/BlackBeadChoiceCorrect.png","null"
"image-keyboard-response","368","446294","0.0-4.0-0.116","20","Low_HMMActual","96.72499999939464","","","","Images/NewTrialBC.png","37"
"image-keyboard-response","369","446696","0.0-4.0-1.116","20","Low_HMMActual","null","","","","Images/BlackBeadChoice.png","null"
"image-keyboard-response","370","447397","0.0-4.0-2.116","20","Low_HMMActual","null","","","","Images/BlackBeadChoiceCorrect.png","null"
"image-keyboard-response","371","447558","0.0-4.0-0.117","20","Low_HMMActual","160.76500000047963","","","","Images/NewTrialBC.png","37"
"image-keyboard-response","372","447960","0.0-4.0-1.117","20","Low_HMMActual","null","","","","Images/BlackBeadChoice.png","null"
"image-keyboard-response","373","448662","0.0-4.0-2.117","20","Low_HMMActual","null","","","","Images/BlackBeadChoiceWrong.png","null"
"image-keyboard-response","374","448895","0.0-4.0-0.118","20","Low_HMMActual","232.37499999953434","","","","Images/NewTrialWC.png","37"
"image-keyboard-response","375","449297","0.0-4.0-1.118","20","Low_HMMActual","null","","","","Images/BlackBeadChoice.png","null"
"image-keyboard-response","376","449999","0.0-4.0-2.118","20","Low_HMMActual","null","","","","Images/BlackBeadChoiceWrong.png","null"
"image-keyboard-response","377","450399","0.0-4.0-0.119","20","Low_HMMActual","399.2300000009127","","","","Images/NewTrialWC.png","37"
"image-keyboard-response","378","450800","0.0-4.0-1.119","20","Low_HMMActual","null","","","","Images/BlackBeadChoice.png","null"
"image-keyboard-response","379","451501","0.0-4.0-2.119","20","Low_HMMActual","null","","","","Images/BlackBeadChoiceCorrect.png","null"
"image-keyboard-response","380","451719","0.0-4.0-0.120","20","Low_HMMActual","217.47500000125729","","","","Images/NewTrialBC.png","37"
"image-keyboard-response","381","452120","0.0-4.0-1.120","20","Low_HMMActual","null","","","","Images/BlackBeadChoice.png","null"
"image-keyboard-response","382","452821","0.0-4.0-2.120","20","Low_HMMActual","null","","","","Images/BlackBeadChoiceWrong.png","null"
"image-keyboard-response","383","453023","0.0-4.0-0.121","20","Low_HMMActual","201.15000000077998","","","","Images/NewTrialWC.png","39"
"image-keyboard-response","384","453424","0.0-4.0-1.121","20","Low_HMMActual","null","","","","Images/WhiteBeadChoice.png","null"
"image-keyboard-response","385","454125","0.0-4.0-2.121","20","Low_HMMActual","null","","","","Images/WhiteBeadChoiceCorrect.png","null"
"image-keyboard-response","386","454263","0.0-4.0-0.122","20","Low_HMMActual","137.55999999924097","","","","Images/NewTrialWC.png","39"
"image-keyboard-response","387","454665","0.0-4.0-1.122","20","Low_HMMActual","null","","","","Images/WhiteBeadChoice.png","null"
"image-keyboard-response","388","455366","0.0-4.0-2.122","20","Low_HMMActual","null","","","","Images/WhiteBeadChoiceCorrect.png","null"
"image-keyboard-response","389","455544","0.0-4.0-0.123","20","Low_HMMActual","177.16500000096858","","","","Images/NewTrialWC.png","39"
"image-keyboard-response","390","455945","0.0-4.0-1.123","20","Low_HMMActual","null","","","","Images/WhiteBeadChoice.png","null"
"image-keyboard-response","391","456646","0.0-4.0-2.123","20","Low_HMMActual","null","","","","Images/WhiteBeadChoiceCorrect.png","null"
"image-keyboard-response","392","456736","0.0-4.0-0.124","20","Low_HMMActual","89.17999999906169","","","","Images/NewTrialWC.png","39"
"image-keyboard-response","393","457136","0.0-4.0-1.124","20","Low_HMMActual","null","","","","Images/WhiteBeadChoice.png","null"
"image-keyboard-response","394","457838","0.0-4.0-2.124","20","Low_HMMActual","null","","","","Images/WhiteBeadChoiceCorrect.png","null"
"image-keyboard-response","395","457920","0.0-4.0-0.125","20","Low_HMMActual","80.78499999828637","","","","Images/NewTrialWC.png","39"
"image-keyboard-response","396","458321","0.0-4.0-1.125","20","Low_HMMActual","null","","","","Images/WhiteBeadChoice.png","null"
"image-keyboard-response","397","459022","0.0-4.0-2.125","20","Low_HMMActual","null","","","","Images/WhiteBeadChoiceCorrect.png","null"
"image-keyboard-response","398","459128","0.0-4.0-0.126","20","Low_HMMActual","104.9700000003213","","","","Images/NewTrialWC.png","39"
"image-keyboard-response","399","459530","0.0-4.0-1.126","20","Low_HMMActual","null","","","","Images/WhiteBeadChoice.png","null"
"image-keyboard-response","400","460231","0.0-4.0-2.126","20","Low_HMMActual","null","","","","Images/WhiteBeadChoiceCorrect.png","null"
"image-keyboard-response","401","460360","0.0-4.0-0.127","20","Low_HMMActual","128.27499999915017","","","","Images/NewTrialWC.png","39"
"image-keyboard-response","402","460761","0.0-4.0-1.127","20","Low_HMMActual","null","","","","Images/WhiteBeadChoice.png","null"
"image-keyboard-response","403","461463","0.0-4.0-2.127","20","Low_HMMActual","null","","","","Images/WhiteBeadChoiceCorrect.png","null"
"image-keyboard-response","404","461544","0.0-4.0-0.128","20","Low_HMMActual","80.53000000107568","","","","Images/NewTrialWC.png","39"
"image-keyboard-response","405","461946","0.0-4.0-1.128","20","Low_HMMActual","null","","","","Images/WhiteBeadChoice.png","null"
"image-keyboard-response","406","462647","0.0-4.0-2.128","20","Low_HMMActual","null","","","","Images/WhiteBeadChoiceCorrect.png","null"
"image-keyboard-response","407","462808","0.0-4.0-0.129","20","Low_HMMActual","160.7750000002561","","","","Images/NewTrialWC.png","39"
"image-keyboard-response","408","463210","0.0-4.0-1.129","20","Low_HMMActual","null","","","","Images/WhiteBeadChoice.png","null"
"image-keyboard-response","409","463911","0.0-4.0-2.129","20","Low_HMMActual","null","","","","Images/WhiteBeadChoiceCorrect.png","null"
"image-keyboard-response","410","464064","0.0-4.0-0.130","20","Low_HMMActual","152.6199999989476","","","","Images/NewTrialWC.png","39"
"image-keyboard-response","411","464466","0.0-4.0-1.130","20","Low_HMMActual","null","","","","Images/WhiteBeadChoice.png","null"
"image-keyboard-response","412","465167","0.0-4.0-2.130","20","Low_HMMActual","null","","","","Images/WhiteBeadChoiceCorrect.png","null"
"image-keyboard-response","413","465289","0.0-4.0-0.131","20","Low_HMMActual","120.94000000064261","","","","Images/NewTrialWC.png","39"
"image-keyboard-response","414","465690","0.0-4.0-1.131","20","Low_HMMActual","null","","","","Images/WhiteBeadChoice.png","null"
"image-keyboard-response","415","466392","0.0-4.0-2.131","20","Low_HMMActual","null","","","","Images/WhiteBeadChoiceCorrect.png","null"
"image-keyboard-response","416","466529","0.0-4.0-0.132","20","Low_HMMActual","136.78499999881024","","","","Images/NewTrialWC.png","39"
"image-keyboard-response","417","466930","0.0-4.0-1.132","20","Low_HMMActual","null","","","","Images/WhiteBeadChoice.png","null"
"image-keyboard-response","418","467632","0.0-4.0-2.132","20","Low_HMMActual","null","","","","Images/WhiteBeadChoiceWrong.png","null"
"image-keyboard-response","419","467873","0.0-4.0-0.133","20","Low_HMMActual","240.41000000032363","","","","Images/NewTrialBC.png","39"
"image-keyboard-response","420","468274","0.0-4.0-1.133","20","Low_HMMActual","null","","","","Images/WhiteBeadChoice.png","null"
"image-keyboard-response","421","468976","0.0-4.0-2.133","20","Low_HMMActual","null","","","","Images/WhiteBeadChoiceCorrect.png","null"
"image-keyboard-response","422","469089","0.0-4.0-0.134","20","Low_HMMActual","112.31000000040513","","","","Images/NewTrialWC.png","39"
"image-keyboard-response","423","469491","0.0-4.0-1.134","20","Low_HMMActual","null","","","","Images/WhiteBeadChoice.png","null"
"image-keyboard-response","424","470191","0.0-4.0-2.134","20","Low_HMMActual","null","","","","Images/WhiteBeadChoiceCorrect.png","null"
"image-keyboard-response","425","470345","0.0-4.0-0.135","20","Low_HMMActual","153.24499999952968","","","","Images/NewTrialWC.png","39"
"image-keyboard-response","426","470746","0.0-4.0-1.135","20","Low_HMMActual","null","","","","Images/WhiteBeadChoice.png","null"
"image-keyboard-response","427","471446","0.0-4.0-2.135","20","Low_HMMActual","null","","","","Images/WhiteBeadChoiceCorrect.png","null"
"image-keyboard-response","428","471569","0.0-4.0-0.136","20","Low_HMMActual","122.34499999973923","","","","Images/NewTrialWC.png","39"
"image-keyboard-response","429","471970","0.0-4.0-1.136","20","Low_HMMActual","null","","","","Images/WhiteBeadChoice.png","null"
"image-keyboard-response","430","472672","0.0-4.0-2.136","20","Low_HMMActual","null","","","","Images/WhiteBeadChoiceCorrect.png","null"
"image-keyboard-response","431","472913","0.0-4.0-0.137","20","Low_HMMActual","240.95999999920605","","","","Images/NewTrialWC.png","39"
"image-keyboard-response","432","473315","0.0-4.0-1.137","20","Low_HMMActual","null","","","","Images/WhiteBeadChoice.png","null"
"image-keyboard-response","433","474017","0.0-4.0-2.137","20","Low_HMMActual","null","","","","Images/WhiteBeadChoiceCorrect.png","null"
"image-keyboard-response","434","474234","0.0-4.0-0.138","20","Low_HMMActual","216.2650000009453","","","","Images/NewTrialWC.png","39"
"image-keyboard-response","435","474635","0.0-4.0-1.138","20","Low_HMMActual","null","","","","Images/WhiteBeadChoice.png","null"
"image-keyboard-response","436","475337","0.0-4.0-2.138","20","Low_HMMActual","null","","","","Images/WhiteBeadChoiceWrong.png","null"
"image-keyboard-response","437","475538","0.0-4.0-0.139","20","Low_HMMActual","200.6449999990291","","","","Images/NewTrialBC.png","39"
"image-keyboard-response","438","475939","0.0-4.0-1.139","20","Low_HMMActual","null","","","","Images/WhiteBeadChoice.png","null"
"image-keyboard-response","439","476641","0.0-4.0-2.139","20","Low_HMMActual","null","","","","Images/WhiteBeadChoiceWrong.png","null"
"image-keyboard-response","440","476811","0.0-4.0-0.140","20","Low_HMMActual","169.1099999989383","","","","Images/NewTrialBC.png","37"
"image-keyboard-response","441","477212","0.0-4.0-1.140","20","Low_HMMActual","null","","","","Images/BlackBeadChoice.png","null"
"image-keyboard-response","442","477914","0.0-4.0-2.140","20","Low_HMMActual","null","","","","Images/BlackBeadChoiceWrong.png","null"
"image-keyboard-response","443","478042","0.0-4.0-0.141","20","Low_HMMActual","127.06999999866821","","","","Images/NewTrialWC.png","37"
"image-keyboard-response","444","478443","0.0-4.0-1.141","20","Low_HMMActual","null","","","","Images/BlackBeadChoice.png","null"
"image-keyboard-response","445","479144","0.0-4.0-2.141","20","Low_HMMActual","null","","","","Images/BlackBeadChoiceWrong.png","null"
"image-keyboard-response","446","479322","0.0-4.0-0.142","20","Low_HMMActual","177.68500000057975","","","","Images/NewTrialWC.png","39"
"image-keyboard-response","447","479724","0.0-4.0-1.142","20","Low_HMMActual","null","","","","Images/WhiteBeadChoice.png","null"
"image-keyboard-response","448","480426","0.0-4.0-2.142","20","Low_HMMActual","null","","","","Images/WhiteBeadChoiceCorrect.png","null"
"image-keyboard-response","449","480562","0.0-4.0-0.143","20","Low_HMMActual","136.19000000105007","","","","Images/NewTrialWC.png","39"
"image-keyboard-response","450","480963","0.0-4.0-1.143","20","Low_HMMActual","null","","","","Images/WhiteBeadChoice.png","null"
"image-keyboard-response","451","481665","0.0-4.0-2.143","20","Low_HMMActual","null","","","","Images/WhiteBeadChoiceCorrect.png","null"
"image-keyboard-response","452","481787","0.0-4.0-0.144","20","Low_HMMActual","121.20000000140863","","","","Images/NewTrialWC.png","39"
"image-keyboard-response","453","482187","0.0-4.0-1.144","20","Low_HMMActual","null","","","","Images/WhiteBeadChoice.png","null"
"image-keyboard-response","454","482889","0.0-4.0-2.144","20","Low_HMMActual","null","","","","Images/WhiteBeadChoiceCorrect.png","null"
"image-keyboard-response","455","483059","0.0-4.0-0.145","20","Low_HMMActual","169.21999999973923","","","","Images/NewTrialWC.png","39"
"image-keyboard-response","456","483459","0.0-4.0-1.145","20","Low_HMMActual","null","","","","Images/WhiteBeadChoice.png","null"
"image-keyboard-response","457","484160","0.0-4.0-2.145","20","Low_HMMActual","null","","","","Images/WhiteBeadChoiceCorrect.png","null"
"image-keyboard-response","458","484299","0.0-4.0-0.146","20","Low_HMMActual","138.20999999914784","","","","Images/NewTrialWC.png","39"
"image-keyboard-response","459","484700","0.0-4.0-1.146","20","Low_HMMActual","null","","","","Images/WhiteBeadChoice.png","null"
"image-keyboard-response","460","485401","0.0-4.0-2.146","20","Low_HMMActual","null","","","","Images/WhiteBeadChoiceCorrect.png","null"
"image-keyboard-response","461","485555","0.0-4.0-0.147","20","Low_HMMActual","153.44499999989057","","","","Images/NewTrialWC.png","39"
"image-keyboard-response","462","485956","0.0-4.0-1.147","20","Low_HMMActual","null","","","","Images/WhiteBeadChoice.png","null"
"image-keyboard-response","463","486657","0.0-4.0-2.147","20","Low_HMMActual","null","","","","Images/WhiteBeadChoiceCorrect.png","null"
"image-keyboard-response","464","486771","0.0-4.0-0.148","20","Low_HMMActual","113.0300000004936","","","","Images/NewTrialWC.png","39"
"image-keyboard-response","465","487172","0.0-4.0-1.148","20","Low_HMMActual","null","","","","Images/WhiteBeadChoice.png","null"
"image-keyboard-response","466","487874","0.0-4.0-2.148","20","Low_HMMActual","null","","","","Images/WhiteBeadChoiceCorrect.png","null"
"image-keyboard-response","467","487996","0.0-4.0-0.149","20","Low_HMMActual","121.19499999971595","","","","Images/NewTrialWC.png","39"
"image-keyboard-response","468","488397","0.0-4.0-1.149","20","Low_HMMActual","null","","","","Images/WhiteBeadChoice.png","null"
"image-keyboard-response","469","489098","0.0-4.0-2.149","20","Low_HMMActual","null","","","","Images/WhiteBeadChoiceCorrect.png","null"
"image-keyboard-response","470","489252","0.0-4.0-0.150","20","Low_HMMActual","152.710000000312","","","","Images/NewTrialWC.png","39"
"image-keyboard-response","471","489653","0.0-4.0-1.150","20","Low_HMMActual","null","","","","Images/WhiteBeadChoice.png","null"
"image-keyboard-response","472","490354","0.0-4.0-2.150","20","Low_HMMActual","null","","","","Images/WhiteBeadChoiceCorrect.png","null"
"image-keyboard-response","473","490524","0.0-4.0-0.151","20","Low_HMMActual","169.38999999908265","","","","Images/NewTrialWC.png","39"
"image-keyboard-response","474","490924","0.0-4.0-1.151","20","Low_HMMActual","null","","","","Images/WhiteBeadChoice.png","null"
"image-keyboard-response","475","491626","0.0-4.0-2.151","20","Low_HMMActual","null","","","","Images/WhiteBeadChoiceCorrect.png","null"
"image-keyboard-response","476","491804","0.0-4.0-0.152","20","Low_HMMActual","176.70499999989988","","","","Images/NewTrialWC.png","39"
"image-keyboard-response","477","492206","0.0-4.0-1.152","20","Low_HMMActual","null","","","","Images/WhiteBeadChoice.png","null"
"image-keyboard-response","478","492907","0.0-4.0-2.152","20","Low_HMMActual","null","","","","Images/WhiteBeadChoiceWrong.png","null"
"image-keyboard-response","479","493092","0.0-4.0-0.153","20","Low_HMMActual","183.7800000011921","","","","Images/NewTrialBC.png","39"
"image-keyboard-response","480","493493","0.0-4.0-1.153","20","Low_HMMActual","null","","","","Images/WhiteBeadChoice.png","null"
"image-keyboard-response","481","494194","0.0-4.0-2.153","20","Low_HMMActual","null","","","","Images/WhiteBeadChoiceCorrect.png","null"
"image-keyboard-response","482","494356","0.0-4.0-0.154","20","Low_HMMActual","161.41000000061467","","","","Images/NewTrialWC.png","39"
"image-keyboard-response","483","494757","0.0-4.0-1.154","20","Low_HMMActual","null","","","","Images/WhiteBeadChoice.png","null"
"image-keyboard-response","484","495458","0.0-4.0-2.154","20","Low_HMMActual","null","","","","Images/WhiteBeadChoiceCorrect.png","null"
"image-keyboard-response","485","495540","0.0-4.0-0.155","20","Low_HMMActual","81.4250000003376","","","","Images/NewTrialWC.png","39"
"image-keyboard-response","486","495942","0.0-4.0-1.155","20","Low_HMMActual","null","","","","Images/WhiteBeadChoice.png","null"
"image-keyboard-response","487","496644","0.0-4.0-2.155","20","Low_HMMActual","null","","","","Images/WhiteBeadChoiceCorrect.png","null"
"image-keyboard-response","488","496756","0.0-4.0-0.156","20","Low_HMMActual","112.04999999975553","","","","Images/NewTrialWC.png","39"
"image-keyboard-response","489","497158","0.0-4.0-1.156","20","Low_HMMActual","null","","","","Images/WhiteBeadChoice.png","null"
"image-keyboard-response","490","497859","0.0-4.0-2.156","20","Low_HMMActual","null","","","","Images/WhiteBeadChoiceWrong.png","null"
"image-keyboard-response","491","498029","0.0-4.0-0.157","20","Low_HMMActual","169.54499999881955","","","","Images/NewTrialBC.png","39"
"image-keyboard-response","492","498430","0.0-4.0-1.157","20","Low_HMMActual","null","","","","Images/WhiteBeadChoice.png","null"
"image-keyboard-response","493","499132","0.0-4.0-2.157","20","Low_HMMActual","null","","","","Images/WhiteBeadChoiceCorrect.png","null"
"image-keyboard-response","494","499205","0.0-4.0-0.158","20","Low_HMMActual","71.86000000004424","","","","Images/NewTrialWC.png","39"
"image-keyboard-response","495","499606","0.0-4.0-1.158","20","Low_HMMActual","null","","","","Images/WhiteBeadChoice.png","null"
"image-keyboard-response","496","500308","0.0-4.0-2.158","20","Low_HMMActual","null","","","","Images/WhiteBeadChoiceCorrect.png","null"
"image-keyboard-response","497","500501","0.0-4.0-0.159","20","Low_HMMActual","192.68499999993946","","","","Images/NewTrialWC.png","39"
"image-keyboard-response","498","500902","0.0-4.0-1.159","20","Low_HMMActual","null","","","","Images/WhiteBeadChoice.png","null"
"image-keyboard-response","499","501604","0.0-4.0-2.159","20","Low_HMMActual","null","","","","Images/WhiteBeadChoiceCorrect.png","null"
"image-keyboard-response","500","501781","0.0-4.0-0.160","20","Low_HMMActual","176.06499999965308","","","","Images/NewTrialWC.png","39"
"image-keyboard-response","501","502182","0.0-4.0-1.160","20","Low_HMMActual","null","","","","Images/WhiteBeadChoice.png","null"
"image-keyboard-response","502","502885","0.0-4.0-2.160","20","Low_HMMActual","null","","","","Images/WhiteBeadChoiceCorrect.png","null"
"image-keyboard-response","503","503077","0.0-4.0-0.161","20","Low_HMMActual","191.49999999895226","","","","Images/NewTrialWC.png","39"
"image-keyboard-response","504","503479","0.0-4.0-1.161","20","Low_HMMActual","null","","","","Images/WhiteBeadChoice.png","null"
"image-keyboard-response","505","504181","0.0-4.0-2.161","20","Low_HMMActual","null","","","","Images/WhiteBeadChoiceCorrect.png","null"
"image-keyboard-response","506","504309","0.0-4.0-0.162","20","Low_HMMActual","127.69999999908032","","","","Images/NewTrialWC.png","39"
"image-keyboard-response","507","504711","0.0-4.0-1.162","20","Low_HMMActual","null","","","","Images/WhiteBeadChoice.png","null"
"image-keyboard-response","508","505412","0.0-4.0-2.162","20","Low_HMMActual","null","","","","Images/WhiteBeadChoiceCorrect.png","null"
"image-keyboard-response","509","505621","0.0-4.0-0.163","20","Low_HMMActual","209.23500000027707","","","","Images/NewTrialWC.png","39"
"image-keyboard-response","510","506022","0.0-4.0-1.163","20","Low_HMMActual","null","","","","Images/WhiteBeadChoice.png","null"
"image-keyboard-response","511","506724","0.0-4.0-2.163","20","Low_HMMActual","null","","","","Images/WhiteBeadChoiceCorrect.png","null"
"image-keyboard-response","512","506958","0.0-4.0-0.164","20","Low_HMMActual","233.0550000005751","","","","Images/NewTrialWC.png","39"
"image-keyboard-response","513","507359","0.0-4.0-1.164","20","Low_HMMActual","null","","","","Images/WhiteBeadChoice.png","null"
"image-keyboard-response","514","508060","0.0-4.0-2.164","20","Low_HMMActual","null","","","","Images/WhiteBeadChoiceCorrect.png","null"
"image-keyboard-response","515","508190","0.0-4.0-0.165","20","Low_HMMActual","129.99499999929685","","","","Images/NewTrialWC.png","39"
"image-keyboard-response","516","508591","0.0-4.0-1.165","20","Low_HMMActual","null","","","","Images/WhiteBeadChoice.png","null"
"image-keyboard-response","517","509293","0.0-4.0-2.165","20","Low_HMMActual","null","","","","Images/WhiteBeadChoiceCorrect.png","null"
"image-keyboard-response","518","509494","0.0-4.0-0.166","20","Low_HMMActual","199.95999999996275","","","","Images/NewTrialWC.png","39"
"image-keyboard-response","519","509895","0.0-4.0-1.166","20","Low_HMMActual","null","","","","Images/WhiteBeadChoice.png","null"
"image-keyboard-response","520","510596","0.0-4.0-2.166","20","Low_HMMActual","null","","","","Images/WhiteBeadChoiceWrong.png","null"
"image-keyboard-response","521","510703","0.0-4.0-0.167","20","Low_HMMActual","105.97999999846797","","","","Images/NewTrialBC.png","39"
"image-keyboard-response","522","511105","0.0-4.0-1.167","20","Low_HMMActual","null","","","","Images/WhiteBeadChoice.png","null"
"image-keyboard-response","523","511806","0.0-4.0-2.167","20","Low_HMMActual","null","","","","Images/WhiteBeadChoiceWrong.png","null"
"image-keyboard-response","524","511942","0.0-4.0-0.168","20","Low_HMMActual","135.55499999894528","","","","Images/NewTrialBC.png","39"
"image-keyboard-response","525","512344","0.0-4.0-1.168","20","Low_HMMActual","null","","","","Images/WhiteBeadChoice.png","null"
"image-keyboard-response","526","513045","0.0-4.0-2.168","20","Low_HMMActual","null","","","","Images/WhiteBeadChoiceCorrect.png","null"
"image-keyboard-response","527","513238","0.0-4.0-0.169","20","Low_HMMActual","192.2500000000582","","","","Images/NewTrialWC.png","39"
"image-keyboard-response","528","513640","0.0-4.0-1.169","20","Low_HMMActual","null","","","","Images/WhiteBeadChoice.png","null"
"image-keyboard-response","529","514342","0.0-4.0-2.169","20","Low_HMMActual","null","","","","Images/WhiteBeadChoiceCorrect.png","null"
"image-keyboard-response","530","514567","0.0-4.0-0.170","20","Low_HMMActual","224.1400000002468","","","","Images/NewTrialWC.png","39"
"image-keyboard-response","531","514968","0.0-4.0-1.170","20","Low_HMMActual","null","","","","Images/WhiteBeadChoice.png","null"
"image-keyboard-response","532","515669","0.0-4.0-2.170","20","Low_HMMActual","null","","","","Images/WhiteBeadChoiceWrong.png","null"
"image-keyboard-response","533","515807","0.0-4.0-0.171","20","Low_HMMActual","136.98500000097556","","","","Images/NewTrialBC.png","39"
"image-keyboard-response","534","516208","0.0-4.0-1.171","20","Low_HMMActual","null","","","","Images/WhiteBeadChoice.png","null"
"image-keyboard-response","535","516910","0.0-4.0-2.171","20","Low_HMMActual","null","","","","Images/WhiteBeadChoiceCorrect.png","null"
"image-keyboard-response","536","517079","0.0-4.0-0.172","20","Low_HMMActual","168.00999999936903","","","","Images/NewTrialWC.png","39"
"image-keyboard-response","537","517480","0.0-4.0-1.172","20","Low_HMMActual","null","","","","Images/WhiteBeadChoice.png","null"
"image-keyboard-response","538","518180","0.0-4.0-2.172","20","Low_HMMActual","null","","","","Images/WhiteBeadChoiceCorrect.png","null"
"image-keyboard-response","539","518359","0.0-4.0-0.173","20","Low_HMMActual","178.36499999975786","","","","Images/NewTrialWC.png","39"
"image-keyboard-response","540","518762","0.0-4.0-1.173","20","Low_HMMActual","null","","","","Images/WhiteBeadChoice.png","null"
"image-keyboard-response","541","519463","0.0-4.0-2.173","20","Low_HMMActual","null","","","","Images/WhiteBeadChoiceWrong.png","null"
"image-keyboard-response","542","519719","0.0-4.0-0.174","20","Low_HMMActual","255.32500000012806","","","","Images/NewTrialBC.png","39"
"image-keyboard-response","543","520120","0.0-4.0-1.174","20","Low_HMMActual","null","","","","Images/WhiteBeadChoice.png","null"
"image-keyboard-response","544","520822","0.0-4.0-2.174","20","Low_HMMActual","null","","","","Images/WhiteBeadChoiceWrong.png","null"
"image-keyboard-response","545","520983","0.0-4.0-0.175","20","Low_HMMActual","160.91000000049826","","","","Images/NewTrialBC.png","37"
"image-keyboard-response","546","521384","0.0-4.0-1.175","20","Low_HMMActual","null","","","","Images/BlackBeadChoice.png","null"
"image-keyboard-response","547","522085","0.0-4.0-2.175","20","Low_HMMActual","null","","","","Images/BlackBeadChoiceCorrect.png","null"
"image-keyboard-response","548","522183","0.0-4.0-0.176","20","Low_HMMActual","97.37499999941792","","","","Images/NewTrialBC.png","37"
"image-keyboard-response","549","522585","0.0-4.0-1.176","20","Low_HMMActual","null","","","","Images/BlackBeadChoice.png","null"
"image-keyboard-response","550","523287","0.0-4.0-2.176","20","Low_HMMActual","null","","","","Images/BlackBeadChoiceCorrect.png","null"
"image-keyboard-response","551","523424","0.0-4.0-0.177","20","Low_HMMActual","135.80999999970663","","","","Images/NewTrialBC.png","37"
"image-keyboard-response","552","523825","0.0-4.0-1.177","20","Low_HMMActual","null","","","","Images/BlackBeadChoice.png","null"
"image-keyboard-response","553","524527","0.0-4.0-2.177","20","Low_HMMActual","null","","","","Images/BlackBeadChoiceCorrect.png","null"
"image-keyboard-response","554","524664","0.0-4.0-0.178","20","Low_HMMActual","135.95999999972992","","","","Images/NewTrialBC.png","37"
"image-keyboard-response","555","525065","0.0-4.0-1.178","20","Low_HMMActual","null","","","","Images/BlackBeadChoice.png","null"
"image-keyboard-response","556","525766","0.0-4.0-2.178","20","Low_HMMActual","null","","","","Images/BlackBeadChoiceCorrect.png","null"
"image-keyboard-response","557","525833","0.0-4.0-0.179","20","Low_HMMActual","66.039999999688","","","","Images/NewTrialBC.png","37"
"image-keyboard-response","558","526233","0.0-4.0-1.179","20","Low_HMMActual","null","","","","Images/BlackBeadChoice.png","null"
"image-keyboard-response","559","526934","0.0-4.0-2.179","20","Low_HMMActual","null","","","","Images/BlackBeadChoiceCorrect.png","null"
"image-keyboard-response","560","527088","0.0-4.0-0.180","20","Low_HMMActual","153.01499999989755","","","","Images/NewTrialBC.png","37"
"image-keyboard-response","561","527490","0.0-4.0-1.180","20","Low_HMMActual","null","","","","Images/BlackBeadChoice.png","null"
"image-keyboard-response","562","528191","0.0-4.0-2.180","20","Low_HMMActual","null","","","","Images/BlackBeadChoiceCorrect.png","null"
"image-keyboard-response","563","528312","0.0-4.0-0.181","20","Low_HMMActual","121.00000000104774","","","","Images/NewTrialBC.png","37"
"image-keyboard-response","564","528713","0.0-4.0-1.181","20","Low_HMMActual","null","","","","Images/BlackBeadChoice.png","null"
"image-keyboard-response","565","529414","0.0-4.0-2.181","20","Low_HMMActual","686.6699999991106","","","","Images/BlackBeadChoiceCorrect.png","37"
"image-keyboard-response","566","529816","0.0-4.0-0.182","20","Low_HMMActual","401.2050000000745","","","","Images/NewTrialBC.png","37"
"image-keyboard-response","567","530217","0.0-4.0-1.182","20","Low_HMMActual","null","","","","Images/BlackBeadChoice.png","null"
"image-keyboard-response","568","530919","0.0-4.0-2.182","20","Low_HMMActual","null","","","","Images/BlackBeadChoiceCorrect.png","null"
"image-keyboard-response","569","531137","0.0-4.0-0.183","20","Low_HMMActual","217.02000000001863","","","","Images/NewTrialBC.png","37"
"image-keyboard-response","570","531539","0.0-4.0-1.183","20","Low_HMMActual","null","","","","Images/BlackBeadChoice.png","null"
"image-keyboard-response","571","532240","0.0-4.0-2.183","20","Low_HMMActual","null","","","","Images/BlackBeadChoiceWrong.png","null"
"image-keyboard-response","572","532577","0.0-4.0-0.184","20","Low_HMMActual","336.4499999989057","","","","Images/NewTrialWC.png","37"
"image-keyboard-response","573","532979","0.0-4.0-1.184","20","Low_HMMActual","null","","","","Images/BlackBeadChoice.png","null"
"image-keyboard-response","574","533681","0.0-4.0-2.184","20","Low_HMMActual","null","","","","Images/BlackBeadChoiceCorrect.png","null"
"image-keyboard-response","575","533882","0.0-4.0-0.185","20","Low_HMMActual","200.15500000037719","","","","Images/NewTrialBC.png","37"
"image-keyboard-response","576","534283","0.0-4.0-1.185","20","Low_HMMActual","null","","","","Images/BlackBeadChoice.png","null"
"image-keyboard-response","577","534985","0.0-4.0-2.185","20","Low_HMMActual","null","","","","Images/BlackBeadChoiceCorrect.png","null"
"image-keyboard-response","578","535225","0.0-4.0-0.186","20","Low_HMMActual","239.72499999951106","","","","Images/NewTrialBC.png","37"
"image-keyboard-response","579","535626","0.0-4.0-1.186","20","Low_HMMActual","null","","","","Images/BlackBeadChoice.png","null"
"image-keyboard-response","580","536328","0.0-4.0-2.186","20","Low_HMMActual","null","","","","Images/BlackBeadChoiceCorrect.png","null"
"image-keyboard-response","581","536497","0.0-4.0-0.187","20","Low_HMMActual","168.46499999880325","","","","Images/NewTrialBC.png","37"
"image-keyboard-response","582","536898","0.0-4.0-1.187","20","Low_HMMActual","null","","","","Images/BlackBeadChoice.png","null"
"image-keyboard-response","583","537600","0.0-4.0-2.187","20","Low_HMMActual","null","","","","Images/BlackBeadChoiceCorrect.png","null"
"image-keyboard-response","584","537722","0.0-4.0-0.188","20","Low_HMMActual","121.47499999997672","","","","Images/NewTrialBC.png","37"
"image-keyboard-response","585","538124","0.0-4.0-1.188","20","Low_HMMActual","null","","","","Images/BlackBeadChoice.png","null"
"image-keyboard-response","586","538825","0.0-4.0-2.188","20","Low_HMMActual","null","","","","Images/BlackBeadChoiceWrong.png","null"
"image-keyboard-response","587","539018","0.0-4.0-0.189","20","Low_HMMActual","191.49499999906402","","","","Images/NewTrialWC.png","37"
"image-keyboard-response","588","539418","0.0-4.0-1.189","20","Low_HMMActual","null","","","","Images/BlackBeadChoice.png","null"
"image-keyboard-response","589","540120","0.0-4.0-2.189","20","Low_HMMActual","null","","","","Images/BlackBeadChoiceCorrect.png","null"
"image-keyboard-response","590","540282","0.0-4.0-0.190","20","Low_HMMActual","161.38999999931548","","","","Images/NewTrialBC.png","37"
"image-keyboard-response","591","540684","0.0-4.0-1.190","20","Low_HMMActual","null","","","","Images/BlackBeadChoice.png","null"
"image-keyboard-response","592","541385","0.0-4.0-2.190","20","Low_HMMActual","null","","","","Images/BlackBeadChoiceCorrect.png","null"
"image-keyboard-response","593","541562","0.0-4.0-0.191","20","Low_HMMActual","175.65000000107102","","","","Images/NewTrialBC.png","37"
"image-keyboard-response","594","541963","0.0-4.0-1.191","20","Low_HMMActual","null","","","","Images/BlackBeadChoice.png","null"
"image-keyboard-response","595","542664","0.0-4.0-2.191","20","Low_HMMActual","null","","","","Images/BlackBeadChoiceCorrect.png","null"
"image-keyboard-response","596","542826","0.0-4.0-0.192","20","Low_HMMActual","161.14500000001863","","","","Images/NewTrialBC.png","37"
"image-keyboard-response","597","543228","0.0-4.0-1.192","20","Low_HMMActual","null","","","","Images/BlackBeadChoice.png","null"
"image-keyboard-response","598","543929","0.0-4.0-2.192","20","Low_HMMActual","null","","","","Images/BlackBeadChoiceCorrect.png","null"
"image-keyboard-response","599","544130","0.0-4.0-0.193","20","Low_HMMActual","200.1099999997532","","","","Images/NewTrialBC.png","37"
"image-keyboard-response","600","544531","0.0-4.0-1.193","20","Low_HMMActual","null","","","","Images/BlackBeadChoice.png","null"
"image-keyboard-response","601","545232","0.0-4.0-2.193","20","Low_HMMActual","null","","","","Images/BlackBeadChoiceCorrect.png","null"
"image-keyboard-response","602","545418","0.0-4.0-0.194","20","Low_HMMActual","185.66500000085216","","","","Images/NewTrialBC.png","37"
"image-keyboard-response","603","545819","0.0-4.0-1.194","20","Low_HMMActual","null","","","","Images/BlackBeadChoice.png","null"
"image-keyboard-response","604","546521","0.0-4.0-2.194","20","Low_HMMActual","null","","","","Images/BlackBeadChoiceCorrect.png","null"
"image-keyboard-response","605","546674","0.0-4.0-0.195","20","Low_HMMActual","152.89999999920838","","","","Images/NewTrialBC.png","37"
"image-keyboard-response","606","547076","0.0-4.0-1.195","20","Low_HMMActual","null","","","","Images/BlackBeadChoice.png","null"
"image-keyboard-response","607","547778","0.0-4.0-2.195","20","Low_HMMActual","null","","","","Images/BlackBeadChoiceWrong.png","null"
"image-keyboard-response","608","547907","0.0-4.0-0.196","20","Low_HMMActual","128.17999999970198","","","","Images/NewTrialWC.png","37"
"image-keyboard-response","609","548308","0.0-4.0-1.196","20","Low_HMMActual","null","","","","Images/BlackBeadChoice.png","null"
"image-keyboard-response","610","549010","0.0-4.0-2.196","20","Low_HMMActual","null","","","","Images/BlackBeadChoiceWrong.png","null"
"image-keyboard-response","611","549139","0.0-4.0-0.197","20","Low_HMMActual","128.0500000010943","","","","Images/NewTrialWC.png","37"
"image-keyboard-response","612","549540","0.0-4.0-1.197","20","Low_HMMActual","null","","","","Images/BlackBeadChoice.png","null"
"image-keyboard-response","613","550241","0.0-4.0-2.197","20","Low_HMMActual","null","","","","Images/BlackBeadChoiceWrong.png","null"
"image-keyboard-response","614","550387","0.0-4.0-0.198","20","Low_HMMActual","144.97999999916647","","","","Images/NewTrialWC.png","39"
"image-keyboard-response","615","550789","0.0-4.0-1.198","20","Low_HMMActual","null","","","","Images/WhiteBeadChoice.png","null"
"image-keyboard-response","616","551491","0.0-4.0-2.198","20","Low_HMMActual","null","","","","Images/WhiteBeadChoiceWrong.png","null"
"image-keyboard-response","617","551651","0.0-4.0-0.199","20","Low_HMMActual","159.45499999902677","","","","Images/NewTrialBC.png","39"
"image-keyboard-response","618","552053","0.0-4.0-1.199","20","Low_HMMActual","null","","","","Images/WhiteBeadChoice.png","null"
"image-keyboard-response","619","552755","0.0-4.0-2.199","20","Low_HMMActual","null","","","","Images/WhiteBeadChoiceWrong.png","null"
"image-keyboard-response","620","553083","0.0-4.0-0.200","20","Low_HMMActual","327.7750000015367","","","","Images/NewTrialBC.png","39"
"image-keyboard-response","621","553485","0.0-4.0-1.200","20","Low_HMMActual","null","","","","Images/WhiteBeadChoice.png","null"
"image-keyboard-response","622","554186","0.0-4.0-2.200","20","Low_HMMActual","null","","","","Images/WhiteBeadChoiceWrong.png","null"
"image-keyboard-response","623","554323","0.0-4.0-0.201","20","Low_HMMActual","136.6699999999255","","","","Images/NewTrialBC.png","37"
"image-keyboard-response","624","554724","0.0-4.0-1.201","20","Low_HMMActual","null","","","","Images/BlackBeadChoice.png","null"
"image-keyboard-response","625","555425","0.0-4.0-2.201","20","Low_HMMActual","null","","","","Images/BlackBeadChoiceCorrect.png","null"
"image-keyboard-response","626","555539","0.0-4.0-0.202","20","Low_HMMActual","113.32500000030268","","","","Images/NewTrialBC.png","37"
"image-keyboard-response","627","555940","0.0-4.0-1.202","20","Low_HMMActual","null","","","","Images/BlackBeadChoice.png","null"
"image-keyboard-response","628","556642","0.0-4.0-2.202","20","Low_HMMActual","null","","","","Images/BlackBeadChoiceCorrect.png","null"
"image-keyboard-response","629","556788","0.0-4.0-0.203","20","Low_HMMActual","145.27499999897555","","","","Images/NewTrialBC.png","37"
"image-keyboard-response","630","557189","0.0-4.0-1.203","20","Low_HMMActual","null","","","","Images/BlackBeadChoice.png","null"
"image-keyboard-response","631","557890","0.0-4.0-2.203","20","Low_HMMActual","null","","","","Images/BlackBeadChoiceCorrect.png","null"
"image-keyboard-response","632","557980","0.0-4.0-0.204","20","Low_HMMActual","88.950000001234","","","","Images/NewTrialBC.png","37"
"image-keyboard-response","633","558382","0.0-4.0-1.204","20","Low_HMMActual","null","","","","Images/BlackBeadChoice.png","null"
"image-keyboard-response","634","559084","0.0-4.0-2.204","20","Low_HMMActual","null","","","","Images/BlackBeadChoiceCorrect.png","null"
"image-keyboard-response","635","559236","0.0-4.0-0.205","20","Low_HMMActual","151.64999999979045","","","","Images/NewTrialBC.png","37"
"image-keyboard-response","636","559637","0.0-4.0-1.205","20","Low_HMMActual","null","","","","Images/BlackBeadChoice.png","null"
"image-keyboard-response","637","560339","0.0-4.0-2.205","20","Low_HMMActual","null","","","","Images/BlackBeadChoiceWrong.png","null"
"image-keyboard-response","638","560469","0.0-4.0-0.206","20","Low_HMMActual","129.49499999918044","","","","Images/NewTrialWC.png","37"
"image-keyboard-response","639","560871","0.0-4.0-1.206","20","Low_HMMActual","null","","","","Images/BlackBeadChoice.png","null"
"image-keyboard-response","640","561572","0.0-4.0-2.206","20","Low_HMMActual","null","","","","Images/BlackBeadChoiceCorrect.png","null"
"image-keyboard-response","641","561653","0.0-4.0-0.207","20","Low_HMMActual","80.9250000002794","","","","Images/NewTrialBC.png","37"
"image-keyboard-response","642","562055","0.0-4.0-1.207","20","Low_HMMActual","null","","","","Images/BlackBeadChoice.png","null"
"image-keyboard-response","643","562756","0.0-4.0-2.207","20","Low_HMMActual","null","","","","Images/BlackBeadChoiceCorrect.png","null"
"image-keyboard-response","644","562948","0.0-4.0-0.208","20","Low_HMMActual","191.39000000001397","","","","Images/NewTrialBC.png","37"
"image-keyboard-response","645","563349","0.0-4.0-1.208","20","Low_HMMActual","null","","","","Images/BlackBeadChoice.png","null"
"image-keyboard-response","646","564051","0.0-4.0-2.208","20","Low_HMMActual","null","","","","Images/BlackBeadChoiceWrong.png","null"
"image-keyboard-response","647","564221","0.0-4.0-0.209","20","Low_HMMActual","168.87499999941792","","","","Images/NewTrialWC.png","37"
"image-keyboard-response","648","564622","0.0-4.0-1.209","20","Low_HMMActual","null","","","","Images/BlackBeadChoice.png","null"
"image-keyboard-response","649","565323","0.0-4.0-2.209","20","Low_HMMActual","null","","","","Images/BlackBeadChoiceCorrect.png","null"
"image-keyboard-response","650","565573","0.0-4.0-0.210","20","Low_HMMActual","249.5149999995483","","","","Images/NewTrialBC.png","37"
"image-keyboard-response","651","565974","0.0-4.0-1.210","20","Low_HMMActual","null","","","","Images/BlackBeadChoice.png","null"
"image-keyboard-response","652","566675","0.0-4.0-2.210","20","Low_HMMActual","null","","","","Images/BlackBeadChoiceCorrect.png","null"
"image-keyboard-response","653","566925","0.0-4.0-0.211","20","Low_HMMActual","248.64499999966938","","","","Images/NewTrialBC.png","37"
"image-keyboard-response","654","567327","0.0-4.0-1.211","20","Low_HMMActual","null","","","","Images/BlackBeadChoice.png","null"
"image-keyboard-response","655","568029","0.0-4.0-2.211","20","Low_HMMActual","null","","","","Images/BlackBeadChoiceCorrect.png","null"
"image-keyboard-response","656","568221","0.0-4.0-0.212","20","Low_HMMActual","191.35000000102445","","","","Images/NewTrialBC.png","37"
"image-keyboard-response","657","568622","0.0-4.0-1.212","20","Low_HMMActual","null","","","","Images/BlackBeadChoice.png","null"
"image-keyboard-response","658","569324","0.0-4.0-2.212","20","Low_HMMActual","null","","","","Images/BlackBeadChoiceCorrect.png","null"
"image-keyboard-response","659","569485","0.0-4.0-0.213","20","Low_HMMActual","160.5649999983143","","","","Images/NewTrialBC.png","37"
"image-keyboard-response","660","569887","0.0-4.0-1.213","20","Low_HMMActual","null","","","","Images/BlackBeadChoice.png","null"
"image-keyboard-response","661","570589","0.0-4.0-2.213","20","Low_HMMActual","null","","","","Images/BlackBeadChoiceCorrect.png","null"
"image-keyboard-response","662","570758","0.0-4.0-0.214","20","Low_HMMActual","168.37999999907333","","","","Images/NewTrialBC.png","37"
"image-keyboard-response","663","571159","0.0-4.0-1.214","20","Low_HMMActual","null","","","","Images/BlackBeadChoice.png","null"
"image-keyboard-response","664","571860","0.0-4.0-2.214","20","Low_HMMActual","null","","","","Images/BlackBeadChoiceWrong.png","null"
"image-keyboard-response","665","572005","0.0-4.0-0.215","20","Low_HMMActual","144.77000000071712","","","","Images/NewTrialWC.png","37"
"image-keyboard-response","666","572408","0.0-4.0-1.215","20","Low_HMMActual","null","","","","Images/BlackBeadChoice.png","null"
"image-keyboard-response","667","573109","0.0-4.0-2.215","20","Low_HMMActual","null","","","","Images/BlackBeadChoiceCorrect.png","null"
"image-keyboard-response","668","573270","0.0-4.0-0.216","20","Low_HMMActual","159.53500000061467","","","","Images/NewTrialBC.png","37"
"image-keyboard-response","669","573671","0.0-4.0-1.216","20","Low_HMMActual","null","","","","Images/BlackBeadChoice.png","null"
"image-keyboard-response","670","574372","0.0-4.0-2.216","20","Low_HMMActual","null","","","","Images/BlackBeadChoiceWrong.png","null"
"image-keyboard-response","671","574598","0.0-4.0-0.217","20","Low_HMMActual","224.92500000051223","","","","Images/NewTrialWC.png","37"
"image-keyboard-response","672","574999","0.0-4.0-1.217","20","Low_HMMActual","null","","","","Images/BlackBeadChoice.png","null"
"image-keyboard-response","673","575700","0.0-4.0-2.217","20","Low_HMMActual","null","","","","Images/BlackBeadChoiceWrong.png","null"
"image-keyboard-response","674","575862","0.0-4.0-0.218","20","Low_HMMActual","161.32499999913853","","","","Images/NewTrialWC.png","39"
"image-keyboard-response","675","576264","0.0-4.0-1.218","20","Low_HMMActual","null","","","","Images/WhiteBeadChoice.png","null"
"image-keyboard-response","676","576965","0.0-4.0-2.218","20","Low_HMMActual","null","","","","Images/WhiteBeadChoiceWrong.png","null"
"image-keyboard-response","677","577094","0.0-4.0-0.219","20","Low_HMMActual","128.15000000048894","","","","Images/NewTrialBC.png","39"
"image-keyboard-response","678","577495","0.0-4.0-1.219","20","Low_HMMActual","null","","","","Images/WhiteBeadChoice.png","null"
"image-keyboard-response","679","578197","0.0-4.0-2.219","20","Low_HMMActual","null","","","","Images/WhiteBeadChoiceWrong.png","null"
"image-keyboard-response","680","578350","0.0-4.0-0.220","20","Low_HMMActual","152.91499999875668","","","","Images/NewTrialBC.png","37"
"image-keyboard-response","681","578751","0.0-4.0-1.220","20","Low_HMMActual","null","","","","Images/BlackBeadChoice.png","null"
"image-keyboard-response","682","579452","0.0-4.0-2.220","20","Low_HMMActual","null","","","","Images/BlackBeadChoiceCorrect.png","null"
"image-keyboard-response","683","579739","0.0-4.0-0.221","20","Low_HMMActual","286.81499999947846","","","","Images/NewTrialBC.png","37"
"image-keyboard-response","684","580140","0.0-4.0-1.221","20","Low_HMMActual","null","","","","Images/BlackBeadChoice.png","null"
"image-keyboard-response","685","580842","0.0-4.0-2.221","20","Low_HMMActual","null","","","","Images/BlackBeadChoiceCorrect.png","null"
"image-keyboard-response","686","581323","0.0-4.0-0.222","20","Low_HMMActual","480.66000000108033","","","","Images/NewTrialBC.png","37"
"image-keyboard-response","687","581725","0.0-4.0-1.222","20","Low_HMMActual","null","","","","Images/BlackBeadChoice.png","null"
"image-keyboard-response","688","582425","0.0-4.0-2.222","20","Low_HMMActual","null","","","","Images/BlackBeadChoiceCorrect.png","null"
"image-keyboard-response","689","582991","0.0-4.0-0.223","20","Low_HMMActual","564.7550000012852","","","","Images/NewTrialBC.png","37"
"image-keyboard-response","690","583393","0.0-4.0-1.223","20","Low_HMMActual","null","","","","Images/BlackBeadChoice.png","null"
"image-keyboard-response","691","584095","0.0-4.0-2.223","20","Low_HMMActual","null","","","","Images/BlackBeadChoiceCorrect.png","null"
"image-keyboard-response","692","584359","0.0-4.0-0.224","20","Low_HMMActual","263.4400000006426","","","","Images/NewTrialBC.png","37"
"image-keyboard-response","693","584760","0.0-4.0-1.224","20","Low_HMMActual","null","","","","Images/BlackBeadChoice.png","null"
"image-keyboard-response","694","585460","0.0-4.0-2.224","20","Low_HMMActual","null","","","","Images/BlackBeadChoiceCorrect.png","null"
"image-keyboard-response","695","585679","0.0-4.0-0.225","20","Low_HMMActual","218.1099999997532","","","","Images/NewTrialBC.png","37"
"image-keyboard-response","696","586080","0.0-4.0-1.225","20","Low_HMMActual","null","","","","Images/BlackBeadChoice.png","null"
"image-keyboard-response","697","586782","0.0-4.0-2.225","20","Low_HMMActual","null","","","","Images/BlackBeadChoiceCorrect.png","null"
"image-keyboard-response","698","586935","0.0-4.0-0.226","20","Low_HMMActual","152.2249999998603","","","","Images/NewTrialBC.png","37"
"image-keyboard-response","699","587337","0.0-4.0-1.226","20","Low_HMMActual","null","","","","Images/BlackBeadChoice.png","null"
"image-keyboard-response","700","588039","0.0-4.0-2.226","20","Low_HMMActual","null","","","","Images/BlackBeadChoiceCorrect.png","null"
"image-keyboard-response","701","588111","0.0-4.0-0.227","20","Low_HMMActual","71.55499999865424","","","","Images/NewTrialBC.png","37"
"image-keyboard-response","702","588512","0.0-4.0-1.227","20","Low_HMMActual","null","","","","Images/BlackBeadChoice.png","null"
"image-keyboard-response","703","589214","0.0-4.0-2.227","20","Low_HMMActual","null","","","","Images/BlackBeadChoiceCorrect.png","null"
"image-keyboard-response","704","589360","0.0-4.0-0.228","20","Low_HMMActual","144.87999999977183","","","","Images/NewTrialBC.png","37"
"image-keyboard-response","705","589760","0.0-4.0-1.228","20","Low_HMMActual","null","","","","Images/BlackBeadChoice.png","null"
"image-keyboard-response","706","590461","0.0-4.0-2.228","20","Low_HMMActual","null","","","","Images/BlackBeadChoiceCorrect.png","null"
"image-keyboard-response","707","590640","0.0-4.0-0.229","20","Low_HMMActual","177.66000000119675","","","","Images/NewTrialBC.png","37"
"image-keyboard-response","708","591041","0.0-4.0-1.229","20","Low_HMMActual","null","","","","Images/BlackBeadChoice.png","null"
"image-keyboard-response","709","591743","0.0-4.0-2.229","20","Low_HMMActual","null","","","","Images/BlackBeadChoiceCorrect.png","null"
"image-keyboard-response","710","591873","0.0-4.0-0.230","20","Low_HMMActual","129.65000000072177","","","","Images/NewTrialBC.png","37"
"image-keyboard-response","711","592274","0.0-4.0-1.230","20","Low_HMMActual","null","","","","Images/BlackBeadChoice.png","null"
"image-keyboard-response","712","592975","0.0-4.0-2.230","20","Low_HMMActual","null","","","","Images/BlackBeadChoiceWrong.png","null"
"image-keyboard-response","713","593760","0.0-4.0-0.231","20","Low_HMMActual","783.8750000009313","","","","Images/NewTrialWC.png","37"
"image-keyboard-response","714","594161","0.0-4.0-1.231","20","Low_HMMActual","null","","","","Images/BlackBeadChoice.png","null"
"image-keyboard-response","715","594863","0.0-4.0-2.231","20","Low_HMMActual","null","","","","Images/BlackBeadChoiceCorrect.png","null"
"image-keyboard-response","716","595064","0.0-4.0-0.232","20","Low_HMMActual","200.6050000000978","","","","Images/NewTrialBC.png","37"
"image-keyboard-response","717","595466","0.0-4.0-1.232","20","Low_HMMActual","null","","","","Images/BlackBeadChoice.png","null"
"image-keyboard-response","718","596168","0.0-4.0-2.232","20","Low_HMMActual","null","","","","Images/BlackBeadChoiceCorrect.png","null"
"image-keyboard-response","719","596376","0.0-4.0-0.233","20","Low_HMMActual","207.70500000065658","","","","Images/NewTrialBC.png","37"
