"trial_type","trial_index","time_elapsed","internal_node_id","Script_Picker","rt","url","responses","question_order","stimulus","key_press"
"pavlovia","0","3","0.0-0.0","12","","","","","",""
"external-html","1","15472","0.0-1.0-0.0","12","15399.674999993294","consent.html","","","",""
"survey-multi-choice","2","24294","0.0-1.0-1.0","12","8818.80999985151","","{""Q0"":""Male"",""Q1"":""White""}","[0,1]","",""
"survey-text","3","26734","0.0-1.0-2.0","12","2437.455000123009","","{""Q0"":""22""}","","",""
"survey-text","4","31181","0.0-1.0-3.0","12","4339.764999924228","","{""Q0"":""5d6514e7e6cdab000149fdf1""}","","",""
"html-keyboard-response","5","60576","0.0-2.0-0.0","12","29284.579999977723","","","","<div class=""container"" style=""height:800px;width:800px;display:flex;flex-direction:column;justify-content:center;align-items:center;text-align:center;font-weight:normal;font-family:Arial;font-size:20px""><p>In this task you will see black or white beads being pulled from jars. <br><br>On each trial, a bead will be pulled from one of two jars. Once you see this bead, your goal is to predict the color of NEXT bead that will be pulled. <br> <br>Every time you correctly guess the color of the NEXT bead, you will get a point. The more points you get, the higher your win bonus at the end of the experiment <br><br>Press the SPACEBAR to continue.</p><div>","32"
"html-keyboard-response","6","67749","0.0-2.0-1.0","12","7171.960000181571","","","","<div class=""container"" style=""height:800px;width:800px;display:flex;flex-direction:column;justify-content:center;align-items:center;text-align:center;font-weight:normal;font-family:Arial;font-size:20px""><p>There are two types of jars:<br><br>1) Jars filled with ONLY white or black beads<br><br>2) Jars filled with 90% white or black beads and 10% of the opposite color mixed in<br><br>Press the SPACEBAR to continue. </p><div>","32"
"image-keyboard-response","7","90179","0.0-2.0-2.0","12","22427.179999882355","","","","resources/WhiteJar_MM.png","32"
"image-keyboard-response","8","90679","0.0-2.0-3.0","12","498.189999954775","","","","resources/BlackJar_MM.png","32"
"image-keyboard-response","9","91224","0.0-2.0-4.0","12","543.4550000354648","","","","resources/WhiteJar_HMM.png","32"
"image-keyboard-response","10","93511","0.0-2.0-5.0","12","2286.2499998882413","","","","resources/BlackJar_HMM.png","32"
"html-keyboard-response","11","118782","0.0-2.0-6.0","12","25269.81500000693","","","","<div class=""container"" style=""height:800px;width:800px;display:flex;flex-direction:column;justify-content:center;align-items:center;text-align:center;font-weight:normal;font-family:Arial;font-size:20px""><p>There will be four blocks of trials. In each block, you will see the pair of jars that beads will be pulled from.<br><br>The pair of jars used in each block will ONLY ever be 100% white and black jars, or 90/10 mixed jars. <br><br>The pair of jars in each block will not change until the next block.<br><br>Here are examples of what you will see on each trial.<br><br>Press the SPACEBAR to continue. </p><div>","32"
"image-keyboard-response","12","126317","0.0-2.0-7.0","12","7532.644999912009","","","","Images/NoChoiceMM.png","32"
"image-keyboard-response","13","126998","0.0-2.0-8.0","12","680.1249999552965","","","","Images/NoChoice.png","32"
"html-keyboard-response","14","129712","0.0-2.0-9.0","12","2712.4149999581277","","","","<div class=""container"" style=""height:800px;width:800px;display:flex;flex-direction:column;justify-content:center;align-items:center;text-align:center;font-weight:normal;font-family:Arial;font-size:20px""><p> The jar the beads are pulled from is NOT choosen at random on each trial.<br><br>After each prediction, there will be a chance that the jars will switch, and that the next bead will be pulled from the opposite jar as the previous trial.<br><br>In each block, the chance that a jar will switch will either be LOW (the jars will not switch very often), or HIGH (the jars will switch almost all the time).<br><br>At the start of each block, you will be told the probability that the jars will switch on each trial. This switch probability will stay constant throughout the block.<br><br>Press the SPACEBAR to continue. </p><div>","32"
"image-keyboard-response","15","142017","0.0-2.0-10.0","12","12303.539999993518","","","","Images/TutorialBlackJarDrawMM.png","32"
"image-keyboard-response","16","143464","0.0-2.0-11.0","12","1445.9550001192838","","","","Images/TutorialWhiteJarDrawMM.png","32"
"html-keyboard-response","17","146440","0.0-2.0-12.0","12","2974.244999932125","","","","<div class=""container"" style=""height:800px;width:800px;display:flex;flex-direction:column;justify-content:center;align-items:center;text-align:center;font-weight:normal;font-family:Arial;font-size:20px""><p> When the jars are filled with only one color, each bead is guaranteed to have come from the same-colored jar. During these blocks, the best strategy is to use the jar switch probability to predict whether the next bead will be the same or different from the previous trial.<br><br> When the jars contain a mix of black and white beads, you will sometimes see black beads pulled from the mostly white jar, and white beads pulled from the mostly black jar. <br><br>Here is an example.<br><br>Press the SPACEBAR to continue.  </p><div>","32"
"image-keyboard-response","18","149289","0.0-2.0-13.0","12","2847.4050001241267","","","","Images/TutorialWhiteJarDrawHMMC.png","32"
"image-keyboard-response","19","150183","0.0-2.0-14.0","12","893.4349999763072","","","","Images/TutorialBlackJarDrawHMMC.png","32"
"image-keyboard-response","20","153456","0.0-2.0-15.0","12","3271.4649999979883","","","","Images/TutorialBlackJarDrawHMMI.png","32"
"html-keyboard-response","21","156294","0.0-2.0-16.0","12","2836.4450000226498","","","","<div class=""container"" style=""height:800px;width:800px;display:flex;flex-direction:column;justify-content:center;align-items:center;text-align:center;font-weight:normal;font-family:Arial;font-size:20px""><p> As you observed, a white bead was pulled from a 90% white jar, the jars switched and a black bead was pulled from the 90% black jar, but then low-probability white bead was pulled from the 90% black jar. <br><br>In these mixed-jar blocks, you will first have to figure out which jar the current bead was pulled from, then use the jar switch probability to predict the color of the next bead.<br><br>Press SPACEBAR to conitnue.</p><div>","32"
"html-keyboard-response","22","157309","0.0-2.0-17.0","12","1014.0599999576807","","","","<div class=""container"" style=""height:800px;width:800px;display:flex;flex-direction:column;justify-content:center;align-items:center;text-align:center;font-weight:normal;font-family:Arial;font-size:20px""><p> You will now be given a 3 question quiz to make sure you understand the fundamentals. </p><div>","32"
"image-keyboard-response","23","171781","0.0-2.0-18.0","12","14469.975000014529","","","","Images/TutorialQuestion1.png","39"
"image-keyboard-response","24","176466","0.0-2.0-19.0","12","2421.210000058636","","","","Images/TutorialQuestion2.png","38"
"html-keyboard-response","25","179808","0.0-3.0","12","2441.56499998644","","","","<div class=""container"" style=""height:800px;width:800px;display:flex;flex-direction:column;justify-content:center;align-items:center;text-align:center;font-weight:normal;font-family:Arial;font-size:20px""><p>Loading episode&hellip;</p><div>","32"
"image-keyboard-response","26","185828","0.0-4.0-0.0","12","6017.985000042245","","","","Images/NoChoice.png","37"
"image-keyboard-response","27","186082","0.0-4.0-1.0","12","null","","","","Images/BlackBeadChoice.png","null"
"image-keyboard-response","28","186592","0.0-4.0-2.0","12","null","","","","Images/BlackBeadChoiceWrong.png","null"
"image-keyboard-response","29","187621","0.0-4.0-0.1","12","1027.0549999549985","","","","Images/NewTrialWC.png","39"
"image-keyboard-response","30","187878","0.0-4.0-1.1","12","null","","","","Images/WhiteBeadChoice.png","null"
"image-keyboard-response","31","188392","0.0-4.0-2.1","12","null","","","","Images/WhiteBeadChoiceWrong.png","null"
"image-keyboard-response","32","188900","0.0-4.0-0.2","12","505.7899998500943","","","","Images/NewTrialBC.png","37"
"image-keyboard-response","33","189156","0.0-4.0-1.2","12","null","","","","Images/BlackBeadChoice.png","null"
"image-keyboard-response","34","189675","0.0-4.0-2.2","12","498.6849999986589","","","","Images/BlackBeadChoiceCorrect.png","39"
"image-keyboard-response","35","190098","0.0-4.0-0.3","12","421.1950001772493","","","","Images/NewTrialBC.png","39"
"image-keyboard-response","36","190361","0.0-4.0-1.3","12","null","","","","Images/WhiteBeadChoice.png","null"
"image-keyboard-response","37","190869","0.0-4.0-2.3","12","435.67999987863004","","","","Images/WhiteBeadChoiceCorrect.png","37"
"image-keyboard-response","38","191249","0.0-4.0-0.4","12","378.43000004068017","","","","Images/NewTrialWC.png","37"
"image-keyboard-response","39","191509","0.0-4.0-1.4","12","null","","","","Images/BlackBeadChoice.png","null"
"image-keyboard-response","40","192025","0.0-4.0-2.4","12","416.9900000561029","","","","Images/BlackBeadChoiceCorrect.png","37"
"image-keyboard-response","41","192785","0.0-4.0-0.5","12","757.465000031516","","","","Images/NewTrialBC.png","37"
"image-keyboard-response","42","193053","0.0-4.0-1.5","12","null","","","","Images/BlackBeadChoice.png","null"
"image-keyboard-response","43","193568","0.0-4.0-2.5","12","null","","","","Images/BlackBeadChoiceCorrect.png","null"
"image-keyboard-response","44","194252","0.0-4.0-0.6","12","680.9099998790771","","","","Images/NewTrialBC.png","39"
"image-keyboard-response","45","194519","0.0-4.0-1.6","12","null","","","","Images/WhiteBeadChoice.png","null"
"image-keyboard-response","46","195023","0.0-4.0-2.6","12","null","","","","Images/WhiteBeadChoiceWrong.png","null"
"image-keyboard-response","47","195614","0.0-4.0-0.7","12","589.4550001248717","","","","Images/NewTrialBC.png","39"
"image-keyboard-response","48","195866","0.0-4.0-1.7","12","null","","","","Images/WhiteBeadChoice.png","null"
"image-keyboard-response","49","196383","0.0-4.0-2.7","12","null","","","","Images/WhiteBeadChoiceWrong.png","null"
"image-keyboard-response","50","196664","0.0-4.0-0.8","12","278.75999989919364","","","","Images/NewTrialBC.png","39"
"image-keyboard-response","51","196923","0.0-4.0-1.8","12","null","","","","Images/WhiteBeadChoice.png","null"
"image-keyboard-response","52","197434","0.0-4.0-2.8","12","null","","","","Images/WhiteBeadChoiceCorrect.png","null"
"image-keyboard-response","53","198044","0.0-4.0-0.9","12","608.3349999971688","","","","Images/NewTrialWC.png","37"
"image-keyboard-response","54","198298","0.0-4.0-1.9","12","null","","","","Images/BlackBeadChoice.png","null"
"image-keyboard-response","55","198807","0.0-4.0-2.9","12","null","","","","Images/BlackBeadChoiceWrong.png","null"
"image-keyboard-response","56","199619","0.0-4.0-0.10","12","808.2300000824034","","","","Images/NewTrialWC.png","39"
"image-keyboard-response","57","199875","0.0-4.0-1.10","12","null","","","","Images/WhiteBeadChoice.png","null"
"image-keyboard-response","58","200390","0.0-4.0-2.10","12","null","","","","Images/WhiteBeadChoiceCorrect.png","null"
"image-keyboard-response","59","200648","0.0-4.0-0.11","12","255.6600000243634","","","","Images/NewTrialWC.png","37"
"image-keyboard-response","60","200903","0.0-4.0-1.11","12","null","","","","Images/BlackBeadChoice.png","null"
"image-keyboard-response","61","201418","0.0-4.0-2.11","12","null","","","","Images/BlackBeadChoiceWrong.png","null"
"image-keyboard-response","62","201722","0.0-4.0-0.12","12","301.3549998868257","","","","Images/NewTrialWC.png","39"
"image-keyboard-response","63","201988","0.0-4.0-1.12","12","null","","","","Images/WhiteBeadChoice.png","null"
"image-keyboard-response","64","202502","0.0-4.0-2.12","12","null","","","","Images/WhiteBeadChoiceCorrect.png","null"
"image-keyboard-response","65","202684","0.0-4.0-0.13","12","180.2300000563264","","","","Images/NewTrialWC.png","39"
"image-keyboard-response","66","202937","0.0-4.0-1.13","12","null","","","","Images/WhiteBeadChoice.png","null"
"image-keyboard-response","67","203453","0.0-4.0-2.13","12","null","","","","Images/WhiteBeadChoiceWrong.png","null"
"image-keyboard-response","68","204061","0.0-4.0-0.14","12","605.8400000911206","","","","Images/NewTrialBC.png","37"
"image-keyboard-response","69","204332","0.0-4.0-1.14","12","null","","","","Images/BlackBeadChoice.png","null"
"image-keyboard-response","70","204852","0.0-4.0-2.14","12","null","","","","Images/BlackBeadChoiceWrong.png","null"
"image-keyboard-response","71","204854","0.0-4.0-0.15","12","0.3400000277906656","","","","Images/NewTrialWC.png","39"
"image-keyboard-response","72","205121","0.0-4.0-1.15","12","null","","","","Images/WhiteBeadChoice.png","null"
"image-keyboard-response","73","205628","0.0-4.0-2.15","12","201.1150000616908","","","","Images/WhiteBeadChoiceCorrect.png","39"
"image-keyboard-response","74","205998","0.0-4.0-0.16","12","367.42500006221235","","","","Images/NewTrialWC.png","39"
"image-keyboard-response","75","206249","0.0-4.0-1.16","12","null","","","","Images/WhiteBeadChoice.png","null"
"image-keyboard-response","76","206763","0.0-4.0-2.16","12","null","","","","Images/WhiteBeadChoiceCorrect.png","null"
"image-keyboard-response","77","206981","0.0-4.0-0.17","12","216.42499999143183","","","","Images/NewTrialWC.png","39"
"image-keyboard-response","78","207234","0.0-4.0-1.17","12","null","","","","Images/WhiteBeadChoice.png","null"
"image-keyboard-response","79","207742","0.0-4.0-2.17","12","null","","","","Images/WhiteBeadChoiceWrong.png","null"
"image-keyboard-response","80","208014","0.0-4.0-0.18","12","269.9649999849498","","","","Images/NewTrialBC.png","39"
"image-keyboard-response","81","208280","0.0-4.0-1.18","12","null","","","","Images/WhiteBeadChoice.png","null"
"image-keyboard-response","82","208785","0.0-4.0-2.18","12","null","","","","Images/WhiteBeadChoiceCorrect.png","null"
"image-keyboard-response","83","209003","0.0-4.0-0.19","12","215.88000003248453","","","","Images/NewTrialWC.png","39"
"image-keyboard-response","84","209273","0.0-4.0-1.19","12","null","","","","Images/WhiteBeadChoice.png","null"
"image-keyboard-response","85","209776","0.0-4.0-2.19","12","null","","","","Images/WhiteBeadChoiceCorrect.png","null"
"image-keyboard-response","86","210048","0.0-4.0-0.20","12","269.66500002890825","","","","Images/NewTrialWC.png","39"
"image-keyboard-response","87","210305","0.0-4.0-1.20","12","null","","","","Images/WhiteBeadChoice.png","null"
"image-keyboard-response","88","210813","0.0-4.0-2.20","12","null","","","","Images/WhiteBeadChoiceCorrect.png","null"
"image-keyboard-response","89","211047","0.0-4.0-0.21","12","231.9549999665469","","","","Images/NewTrialWC.png","39"
"image-keyboard-response","90","211323","0.0-4.0-1.21","12","null","","","","Images/WhiteBeadChoice.png","null"
"image-keyboard-response","91","211838","0.0-4.0-2.21","12","null","","","","Images/WhiteBeadChoiceCorrect.png","null"
"image-keyboard-response","92","212144","0.0-4.0-0.22","12","303.70499985292554","","","","Images/NewTrialWC.png","39"
"image-keyboard-response","93","212403","0.0-4.0-1.22","12","null","","","","Images/WhiteBeadChoice.png","null"
"image-keyboard-response","94","212907","0.0-4.0-2.22","12","null","","","","Images/WhiteBeadChoiceCorrect.png","null"
"image-keyboard-response","95","213202","0.0-4.0-0.23","12","293.0950000882149","","","","Images/NewTrialWC.png","39"
"image-keyboard-response","96","213458","0.0-4.0-1.23","12","null","","","","Images/WhiteBeadChoice.png","null"
"image-keyboard-response","97","213966","0.0-4.0-2.23","12","null","","","","Images/WhiteBeadChoiceWrong.png","null"
"image-keyboard-response","98","214386","0.0-4.0-0.24","12","417.8550001233816","","","","Images/NewTrialBC.png","37"
"image-keyboard-response","99","214651","0.0-4.0-1.24","12","null","","","","Images/BlackBeadChoice.png","null"
"image-keyboard-response","100","215158","0.0-4.0-2.24","12","null","","","","Images/BlackBeadChoiceCorrect.png","null"
"image-keyboard-response","101","215313","0.0-4.0-0.25","12","153.21000013500452","","","","Images/NewTrialBC.png","37"
"image-keyboard-response","102","215581","0.0-4.0-1.25","12","null","","","","Images/BlackBeadChoice.png","null"
"image-keyboard-response","103","216084","0.0-4.0-2.25","12","null","","","","Images/BlackBeadChoiceCorrect.png","null"
"image-keyboard-response","104","216307","0.0-4.0-0.26","12","221.0099999792874","","","","Images/NewTrialBC.png","37"
"image-keyboard-response","105","216574","0.0-4.0-1.26","12","null","","","","Images/BlackBeadChoice.png","null"
"image-keyboard-response","106","217081","0.0-4.0-2.26","12","423.4400000423193","","","","Images/BlackBeadChoiceCorrect.png","37"
"image-keyboard-response","107","217512","0.0-4.0-0.27","12","429.11499994806945","","","","Images/NewTrialBC.png","37"
"image-keyboard-response","108","217776","0.0-4.0-1.27","12","null","","","","Images/BlackBeadChoice.png","null"
"image-keyboard-response","109","218288","0.0-4.0-2.27","12","null","","","","Images/BlackBeadChoiceCorrect.png","null"
"image-keyboard-response","110","218537","0.0-4.0-0.28","12","248.0750000104308","","","","Images/NewTrialBC.png","37"
"image-keyboard-response","111","218789","0.0-4.0-1.28","12","null","","","","Images/BlackBeadChoice.png","null"
"image-keyboard-response","112","219297","0.0-4.0-2.28","12","null","","","","Images/BlackBeadChoiceCorrect.png","null"
"image-keyboard-response","113","219601","0.0-4.0-0.29","12","302.20500007271767","","","","Images/NewTrialBC.png","37"
"image-keyboard-response","114","219854","0.0-4.0-1.29","12","null","","","","Images/BlackBeadChoice.png","null"
"image-keyboard-response","115","220371","0.0-4.0-2.29","12","498.50500002503395","","","","Images/BlackBeadChoiceWrong.png","39"
"image-keyboard-response","116","220738","0.0-4.0-0.30","12","364.37999992631376","","","","Images/NewTrialWC.png","39"
"image-keyboard-response","117","220993","0.0-4.0-1.30","12","null","","","","Images/WhiteBeadChoice.png","null"
"image-keyboard-response","118","221511","0.0-4.0-2.30","12","null","","","","Images/WhiteBeadChoiceWrong.png","null"
"image-keyboard-response","119","221676","0.0-4.0-0.31","12","163.084999890998","","","","Images/NewTrialBC.png","37"
"image-keyboard-response","120","221930","0.0-4.0-1.31","12","null","","","","Images/BlackBeadChoice.png","null"
"image-keyboard-response","121","222445","0.0-4.0-2.31","12","null","","","","Images/BlackBeadChoiceCorrect.png","null"
"image-keyboard-response","122","222694","0.0-4.0-0.32","12","246.684999903664","","","","Images/NewTrialBC.png","37"
"image-keyboard-response","123","222960","0.0-4.0-1.32","12","null","","","","Images/BlackBeadChoice.png","null"
"image-keyboard-response","124","223477","0.0-4.0-2.32","12","null","","","","Images/BlackBeadChoiceWrong.png","null"
"image-keyboard-response","125","223743","0.0-4.0-0.33","12","264.2099999357015","","","","Images/NewTrialWC.png","39"
"image-keyboard-response","126","224012","0.0-4.0-1.33","12","null","","","","Images/WhiteBeadChoice.png","null"
"image-keyboard-response","127","224530","0.0-4.0-2.33","12","null","","","","Images/WhiteBeadChoiceCorrect.png","null"
"image-keyboard-response","128","224742","0.0-4.0-0.34","12","210.85999999195337","","","","Images/NewTrialWC.png","39"
"image-keyboard-response","129","224995","0.0-4.0-1.34","12","null","","","","Images/WhiteBeadChoice.png","null"
"image-keyboard-response","130","225512","0.0-4.0-2.34","12","null","","","","Images/WhiteBeadChoiceCorrect.png","null"
"image-keyboard-response","131","225681","0.0-4.0-0.35","12","166.75500012934208","","","","Images/NewTrialWC.png","39"
"image-keyboard-response","132","225935","0.0-4.0-1.35","12","null","","","","Images/WhiteBeadChoice.png","null"
"image-keyboard-response","133","226449","0.0-4.0-2.35","12","null","","","","Images/WhiteBeadChoiceCorrect.png","null"
"image-keyboard-response","134","226676","0.0-4.0-0.36","12","225.3050000872463","","","","Images/NewTrialWC.png","39"
"image-keyboard-response","135","226943","0.0-4.0-1.36","12","null","","","","Images/WhiteBeadChoice.png","null"
"image-keyboard-response","136","227449","0.0-4.0-2.36","12","null","","","","Images/WhiteBeadChoiceCorrect.png","null"
"image-keyboard-response","137","227640","0.0-4.0-0.37","12","188.8700001873076","","","","Images/NewTrialWC.png","39"
"image-keyboard-response","138","227895","0.0-4.0-1.37","12","null","","","","Images/WhiteBeadChoice.png","null"
"image-keyboard-response","139","228411","0.0-4.0-2.37","12","null","","","","Images/WhiteBeadChoiceWrong.png","null"
"image-keyboard-response","140","228523","0.0-4.0-0.38","12","110.45999987982213","","","","Images/NewTrialBC.png","37"
"image-keyboard-response","141","228776","0.0-4.0-1.38","12","null","","","","Images/BlackBeadChoice.png","null"
"image-keyboard-response","142","229286","0.0-4.0-2.38","12","null","","","","Images/BlackBeadChoiceCorrect.png","null"
"image-keyboard-response","143","229294","0.0-4.0-0.39","12","6.065000081434846","","","","Images/NewTrialBC.png","37"
"image-keyboard-response","144","229556","0.0-4.0-1.39","12","null","","","","Images/BlackBeadChoice.png","null"
"image-keyboard-response","145","230071","0.0-4.0-2.39","12","null","","","","Images/BlackBeadChoiceCorrect.png","null"
"image-keyboard-response","146","230160","0.0-4.0-0.40","12","86.36999991722405","","","","Images/NewTrialBC.png","37"
"image-keyboard-response","147","230421","0.0-4.0-1.40","12","null","","","","Images/BlackBeadChoice.png","null"
"image-keyboard-response","148","230928","0.0-4.0-2.40","12","486.70499981381","","","","Images/BlackBeadChoiceWrong.png","39"
"image-keyboard-response","149","231548","0.0-4.0-0.41","12","618.5000000987202","","","","Images/NewTrialWC.png","39"
"image-keyboard-response","150","231801","0.0-4.0-1.41","12","null","","","","Images/WhiteBeadChoice.png","null"
"image-keyboard-response","151","232308","0.0-4.0-2.41","12","505.17000001855195","","","","Images/WhiteBeadChoiceWrong.png","39"
"image-keyboard-response","152","232841","0.0-4.0-0.42","12","530.9900001157075","","","","Images/NewTrialBC.png","39"
"image-keyboard-response","153","233099","0.0-4.0-1.42","12","null","","","","Images/WhiteBeadChoice.png","null"
"image-keyboard-response","154","233615","0.0-4.0-2.42","12","null","","","","Images/WhiteBeadChoiceWrong.png","null"
"image-keyboard-response","155","233732","0.0-4.0-0.43","12","115.59000005945563","","","","Images/NewTrialBC.png","39"
"image-keyboard-response","156","233993","0.0-4.0-1.43","12","null","","","","Images/WhiteBeadChoice.png","null"
"image-keyboard-response","157","234496","0.0-4.0-2.43","12","null","","","","Images/WhiteBeadChoiceWrong.png","null"
"image-keyboard-response","158","234607","0.0-4.0-0.44","12","109.23000006005168","","","","Images/NewTrialBC.png","37"
"image-keyboard-response","159","234873","0.0-4.0-1.44","12","null","","","","Images/BlackBeadChoice.png","null"
"image-keyboard-response","160","235377","0.0-4.0-2.44","12","437.52000015228987","","","","Images/BlackBeadChoiceWrong.png","39"
"image-keyboard-response","161","235589","0.0-4.0-0.45","12","210.90999990701675","","","","Images/NewTrialWC.png","39"
"image-keyboard-response","162","235845","0.0-4.0-1.45","12","null","","","","Images/WhiteBeadChoice.png","null"
"image-keyboard-response","163","236351","0.0-4.0-2.45","12","null","","","","Images/WhiteBeadChoiceCorrect.png","null"
"image-keyboard-response","164","236447","0.0-4.0-0.46","12","95.41000006720424","","","","Images/NewTrialWC.png","39"
"image-keyboard-response","165","236714","0.0-4.0-1.46","12","null","","","","Images/WhiteBeadChoice.png","null"
"image-keyboard-response","166","237231","0.0-4.0-2.46","12","null","","","","Images/WhiteBeadChoiceCorrect.png","null"
"image-keyboard-response","167","237330","0.0-4.0-0.47","12","97.70000004209578","","","","Images/NewTrialWC.png","39"
"image-keyboard-response","168","237582","0.0-4.0-1.47","12","null","","","","Images/WhiteBeadChoice.png","null"
"image-keyboard-response","169","238089","0.0-4.0-2.47","12","null","","","","Images/WhiteBeadChoiceCorrect.png","null"
"image-keyboard-response","170","238173","0.0-4.0-0.48","12","82.62999984435737","","","","Images/NewTrialWC.png","39"
"image-keyboard-response","171","238425","0.0-4.0-1.48","12","null","","","","Images/WhiteBeadChoice.png","null"
"image-keyboard-response","172","238943","0.0-4.0-2.48","12","null","","","","Images/WhiteBeadChoiceCorrect.png","null"
"image-keyboard-response","173","239031","0.0-4.0-0.49","12","86.65499999187887","","","","Images/NewTrialWC.png","39"
"image-keyboard-response","174","239291","0.0-4.0-1.49","12","null","","","","Images/WhiteBeadChoice.png","null"
"image-keyboard-response","175","239805","0.0-4.0-2.49","12","null","","","","Images/WhiteBeadChoiceCorrect.png","null"
"image-keyboard-response","176","240023","0.0-4.0-0.50","12","217.59000001475215","","","","Images/NewTrialWC.png","39"
"image-keyboard-response","177","240286","0.0-4.0-1.50","12","null","","","","Images/WhiteBeadChoice.png","null"
"image-keyboard-response","178","240789","0.0-4.0-2.50","12","null","","","","Images/WhiteBeadChoiceWrong.png","null"
"image-keyboard-response","179","241003","0.0-4.0-0.51","12","211.9849999435246","","","","Images/NewTrialBC.png","37"
"image-keyboard-response","180","241272","0.0-4.0-1.51","12","null","","","","Images/BlackBeadChoice.png","null"
"image-keyboard-response","181","241785","0.0-4.0-2.51","12","null","","","","Images/BlackBeadChoiceCorrect.png","null"
"image-keyboard-response","182","241905","0.0-4.0-0.52","12","117.66500002704561","","","","Images/NewTrialBC.png","37"
"image-keyboard-response","183","242164","0.0-4.0-1.52","12","null","","","","Images/BlackBeadChoice.png","null"
"image-keyboard-response","184","242692","0.0-4.0-2.52","12","null","","","","Images/BlackBeadChoiceWrong.png","null"
"image-keyboard-response","185","242693","0.0-4.0-0.53","12","0.1550000160932541","","","","Images/NewTrialWC.png","39"
"image-keyboard-response","186","242951","0.0-4.0-1.53","12","null","","","","Images/WhiteBeadChoice.png","null"
"image-keyboard-response","187","243462","0.0-4.0-2.53","12","268.65499978885055","","","","Images/WhiteBeadChoiceCorrect.png","39"
"image-keyboard-response","188","244073","0.0-4.0-0.54","12","609.3250000849366","","","","Images/NewTrialWC.png","37"
"image-keyboard-response","189","244334","0.0-4.0-1.54","12","null","","","","Images/BlackBeadChoice.png","null"
"image-keyboard-response","190","244840","0.0-4.0-2.54","12","329.7949999105185","","","","Images/BlackBeadChoiceCorrect.png","39"
"image-keyboard-response","191","245059","0.0-4.0-0.55","12","217.76499995030463","","","","Images/NewTrialBC.png","39"
"image-keyboard-response","192","245317","0.0-4.0-1.55","12","null","","","","Images/WhiteBeadChoice.png","null"
"image-keyboard-response","193","245820","0.0-4.0-2.55","12","null","","","","Images/WhiteBeadChoiceCorrect.png","null"
"image-keyboard-response","194","245889","0.0-4.0-0.56","12","66.80000014603138","","","","Images/NewTrialWC.png","37"
"image-keyboard-response","195","246146","0.0-4.0-1.56","12","null","","","","Images/BlackBeadChoice.png","null"
"image-keyboard-response","196","246659","0.0-4.0-2.56","12","null","","","","Images/BlackBeadChoiceWrong.png","null"
"image-keyboard-response","197","246752","0.0-4.0-0.57","12","91.46000002510846","","","","Images/NewTrialWC.png","39"
"image-keyboard-response","198","247016","0.0-4.0-1.57","12","null","","","","Images/WhiteBeadChoice.png","null"
"image-keyboard-response","199","247524","0.0-4.0-2.57","12","null","","","","Images/WhiteBeadChoiceCorrect.png","null"
"image-keyboard-response","200","247580","0.0-4.0-0.58","12","54.84000011347234","","","","Images/NewTrialWC.png","37"
"image-keyboard-response","201","247834","0.0-4.0-1.58","12","null","","","","Images/BlackBeadChoice.png","null"
"image-keyboard-response","202","248349","0.0-4.0-2.58","12","null","","","","Images/BlackBeadChoiceWrong.png","null"
"image-keyboard-response","203","248510","0.0-4.0-0.59","12","158.5949999280274","","","","Images/NewTrialWC.png","39"
"image-keyboard-response","204","248766","0.0-4.0-1.59","12","null","","","","Images/WhiteBeadChoice.png","null"
"image-keyboard-response","205","249283","0.0-4.0-2.59","12","null","","","","Images/WhiteBeadChoiceCorrect.png","null"
"image-keyboard-response","206","249360","0.0-4.0-0.60","12","74.01000009849668","","","","Images/NewTrialWC.png","39"
"image-keyboard-response","207","249613","0.0-4.0-1.60","12","null","","","","Images/WhiteBeadChoice.png","null"
"image-keyboard-response","208","250128","0.0-4.0-2.60","12","null","","","","Images/WhiteBeadChoiceCorrect.png","null"
"image-keyboard-response","209","250149","0.0-4.0-0.61","12","18.869999796152115","","","","Images/NewTrialWC.png","39"
"image-keyboard-response","210","250424","0.0-4.0-1.61","12","null","","","","Images/WhiteBeadChoice.png","null"
"image-keyboard-response","211","250955","0.0-4.0-2.61","12","492.57500004023314","","","","Images/WhiteBeadChoiceCorrect.png","39"
"image-keyboard-response","212","251361","0.0-4.0-0.62","12","403.02499989047647","","","","Images/NewTrialWC.png","39"
"image-keyboard-response","213","251622","0.0-4.0-1.62","12","null","","","","Images/WhiteBeadChoice.png","null"
"image-keyboard-response","214","252128","0.0-4.0-2.62","12","null","","","","Images/WhiteBeadChoiceCorrect.png","null"
"image-keyboard-response","215","252188","0.0-4.0-0.63","12","58.53499984368682","","","","Images/NewTrialWC.png","39"
"image-keyboard-response","216","252444","0.0-4.0-1.63","12","null","","","","Images/WhiteBeadChoice.png","null"
"image-keyboard-response","217","252947","0.0-4.0-2.63","12","null","","","","Images/WhiteBeadChoiceCorrect.png","null"
"image-keyboard-response","218","253160","0.0-4.0-0.64","12","210.47499985434115","","","","Images/NewTrialWC.png","39"
"image-keyboard-response","219","253421","0.0-4.0-1.64","12","null","","","","Images/WhiteBeadChoice.png","null"
"image-keyboard-response","220","253931","0.0-4.0-2.64","12","null","","","","Images/WhiteBeadChoiceWrong.png","null"
"image-keyboard-response","221","254026","0.0-4.0-0.65","12","92.8700000513345","","","","Images/NewTrialBC.png","39"
"image-keyboard-response","222","254286","0.0-4.0-1.65","12","null","","","","Images/WhiteBeadChoice.png","null"
"image-keyboard-response","223","254804","0.0-4.0-2.65","12","null","","","","Images/WhiteBeadChoiceCorrect.png","null"
"image-keyboard-response","224","254935","0.0-4.0-0.66","12","127.96000018715858","","","","Images/NewTrialWC.png","39"
"image-keyboard-response","225","255200","0.0-4.0-1.66","12","null","","","","Images/WhiteBeadChoice.png","null"
"image-keyboard-response","226","255709","0.0-4.0-2.66","12","null","","","","Images/WhiteBeadChoiceCorrect.png","null"
"image-keyboard-response","227","255867","0.0-4.0-0.67","12","155.24999983608723","","","","Images/NewTrialWC.png","39"
"image-keyboard-response","228","256120","0.0-4.0-1.67","12","null","","","","Images/WhiteBeadChoice.png","null"
"image-keyboard-response","229","256625","0.0-4.0-2.67","12","null","","","","Images/WhiteBeadChoiceCorrect.png","null"
"image-keyboard-response","230","256775","0.0-4.0-0.68","12","148.1449999846518","","","","Images/NewTrialWC.png","39"
"image-keyboard-response","231","257031","0.0-4.0-1.68","12","null","","","","Images/WhiteBeadChoice.png","null"
"image-keyboard-response","232","257555","0.0-4.0-2.68","12","null","","","","Images/WhiteBeadChoiceWrong.png","null"
"image-keyboard-response","233","257558","0.0-4.0-0.69","12","0.3800000995397568","","","","Images/NewTrialBC.png","37"
"image-keyboard-response","234","257828","0.0-4.0-1.69","12","null","","","","Images/BlackBeadChoice.png","null"
"image-keyboard-response","235","258344","0.0-4.0-2.69","12","186.22000003233552","","","","Images/BlackBeadChoiceWrong.png","37"
"image-keyboard-response","236","258524","0.0-4.0-0.70","12","177.79499990865588","","","","Images/NewTrialWC.png","37"
"image-keyboard-response","237","258800","0.0-4.0-1.70","12","null","","","","Images/BlackBeadChoice.png","null"
"image-keyboard-response","238","259310","0.0-4.0-2.70","12","333.37000012397766","","","","Images/BlackBeadChoiceCorrect.png","37"
"image-keyboard-response","239","259469","0.0-4.0-0.71","12","156.92500001750886","","","","Images/NewTrialBC.png","37"
"image-keyboard-response","240","259723","0.0-4.0-1.71","12","null","","","","Images/BlackBeadChoice.png","null"
"image-keyboard-response","241","260247","0.0-4.0-2.71","12","null","","","","Images/BlackBeadChoiceCorrect.png","null"
"image-keyboard-response","242","260501","0.0-4.0-0.72","12","251.6349998768419","","","","Images/NewTrialBC.png","37"
"image-keyboard-response","243","260763","0.0-4.0-1.72","12","null","","","","Images/BlackBeadChoice.png","null"
"image-keyboard-response","244","261283","0.0-4.0-2.72","12","null","","","","Images/BlackBeadChoiceCorrect.png","null"
"image-keyboard-response","245","261541","0.0-4.0-0.73","12","255.83999999798834","","","","Images/NewTrialBC.png","39"
"image-keyboard-response","246","261795","0.0-4.0-1.73","12","null","","","","Images/WhiteBeadChoice.png","null"
"image-keyboard-response","247","262304","0.0-4.0-2.73","12","null","","","","Images/WhiteBeadChoiceWrong.png","null"
"image-keyboard-response","248","262500","0.0-4.0-0.74","12","193.24000016786158","","","","Images/NewTrialBC.png","39"
"image-keyboard-response","249","262764","0.0-4.0-1.74","12","null","","","","Images/WhiteBeadChoice.png","null"
"image-keyboard-response","250","263284","0.0-4.0-2.74","12","null","","","","Images/WhiteBeadChoiceWrong.png","null"
"image-keyboard-response","251","263502","0.0-4.0-0.75","12","216.17499995045364","","","","Images/NewTrialBC.png","39"
"image-keyboard-response","252","263767","0.0-4.0-1.75","12","null","","","","Images/WhiteBeadChoice.png","null"
"image-keyboard-response","253","264275","0.0-4.0-2.75","12","null","","","","Images/WhiteBeadChoiceWrong.png","null"
"image-keyboard-response","254","264438","0.0-4.0-0.76","12","160.94000008888543","","","","Images/NewTrialBC.png","39"
"image-keyboard-response","255","264693","0.0-4.0-1.76","12","null","","","","Images/WhiteBeadChoice.png","null"
"image-keyboard-response","256","265221","0.0-4.0-2.76","12","null","","","","Images/WhiteBeadChoiceWrong.png","null"
"image-keyboard-response","257","265343","0.0-4.0-0.77","12","121.0450001526624","","","","Images/NewTrialBC.png","37"
"image-keyboard-response","258","265600","0.0-4.0-1.77","12","null","","","","Images/BlackBeadChoice.png","null"
"image-keyboard-response","259","266109","0.0-4.0-2.77","12","null","","","","Images/BlackBeadChoiceCorrect.png","null"
"image-keyboard-response","260","266265","0.0-4.0-0.78","12","154.10500019788742","","","","Images/NewTrialBC.png","37"
"image-keyboard-response","261","266530","0.0-4.0-1.78","12","null","","","","Images/BlackBeadChoice.png","null"
"image-keyboard-response","262","267044","0.0-4.0-2.78","12","null","","","","Images/BlackBeadChoiceCorrect.png","null"
"image-keyboard-response","263","267277","0.0-4.0-0.79","12","229.90999999456108","","","","Images/NewTrialBC.png","37"
"image-keyboard-response","264","267547","0.0-4.0-1.79","12","null","","","","Images/BlackBeadChoice.png","null"
"image-keyboard-response","265","268063","0.0-4.0-2.79","12","null","","","","Images/BlackBeadChoiceWrong.png","null"
"image-keyboard-response","266","268066","0.0-4.0-0.80","12","0.3549999091774225","","","","Images/NewTrialWC.png","39"
"image-keyboard-response","267","268326","0.0-4.0-1.80","12","null","","","","Images/WhiteBeadChoice.png","null"
"image-keyboard-response","268","268842","0.0-4.0-2.80","12","68.41999990865588","","","","Images/WhiteBeadChoiceCorrect.png","39"
"image-keyboard-response","269","268965","0.0-4.0-0.81","12","120.8899999037385","","","","Images/NewTrialWC.png","39"
"image-keyboard-response","270","269217","0.0-4.0-1.81","12","null","","","","Images/WhiteBeadChoice.png","null"
"image-keyboard-response","271","269731","0.0-4.0-2.81","12","null","","","","Images/WhiteBeadChoiceCorrect.png","null"
"image-keyboard-response","272","269880","0.0-4.0-0.82","12","146.27499994821846","","","","Images/NewTrialWC.png","39"
"image-keyboard-response","273","270139","0.0-4.0-1.82","12","null","","","","Images/WhiteBeadChoice.png","null"
"image-keyboard-response","274","270652","0.0-4.0-2.82","12","null","","","","Images/WhiteBeadChoiceWrong.png","null"
"image-keyboard-response","275","270747","0.0-4.0-0.83","12","93.05999986827374","","","","Images/NewTrialBC.png","39"
"image-keyboard-response","276","271010","0.0-4.0-1.83","12","null","","","","Images/WhiteBeadChoice.png","null"
"image-keyboard-response","277","271536","0.0-4.0-2.83","12","null","","","","Images/WhiteBeadChoiceWrong.png","null"
"image-keyboard-response","278","271615","0.0-4.0-0.84","12","76.7000000923872","","","","Images/NewTrialBC.png","37"
"image-keyboard-response","279","271871","0.0-4.0-1.84","12","null","","","","Images/BlackBeadChoice.png","null"
"image-keyboard-response","280","272381","0.0-4.0-2.84","12","null","","","","Images/BlackBeadChoiceCorrect.png","null"
"image-keyboard-response","281","272511","0.0-4.0-0.85","12","128.16999992355704","","","","Images/NewTrialBC.png","37"
"image-keyboard-response","282","272765","0.0-4.0-1.85","12","null","","","","Images/BlackBeadChoice.png","null"
"image-keyboard-response","283","273278","0.0-4.0-2.85","12","null","","","","Images/BlackBeadChoiceCorrect.png","null"
"image-keyboard-response","284","273364","0.0-4.0-0.86","12","84.19499988667667","","","","Images/NewTrialBC.png","37"
"image-keyboard-response","285","273630","0.0-4.0-1.86","12","null","","","","Images/BlackBeadChoice.png","null"
"image-keyboard-response","286","274143","0.0-4.0-2.86","12","null","","","","Images/BlackBeadChoiceCorrect.png","null"
"image-keyboard-response","287","274217","0.0-4.0-0.87","12","71.49500004015863","","","","Images/NewTrialBC.png","37"
"image-keyboard-response","288","274488","0.0-4.0-1.87","12","null","","","","Images/BlackBeadChoice.png","null"
"image-keyboard-response","289","274993","0.0-4.0-2.87","12","null","","","","Images/BlackBeadChoiceCorrect.png","null"
"image-keyboard-response","290","275076","0.0-4.0-0.88","12","80.95999993383884","","","","Images/NewTrialBC.png","37"
"image-keyboard-response","291","275331","0.0-4.0-1.88","12","null","","","","Images/BlackBeadChoice.png","null"
"image-keyboard-response","292","275834","0.0-4.0-2.88","12","null","","","","Images/BlackBeadChoiceCorrect.png","null"
"image-keyboard-response","293","275933","0.0-4.0-0.89","12","97.16499992646277","","","","Images/NewTrialBC.png","37"
"image-keyboard-response","294","276190","0.0-4.0-1.89","12","null","","","","Images/BlackBeadChoice.png","null"
"image-keyboard-response","295","276696","0.0-4.0-2.89","12","null","","","","Images/BlackBeadChoiceCorrect.png","null"
"image-keyboard-response","296","276839","0.0-4.0-0.90","12","141.5200000628829","","","","Images/NewTrialBC.png","37"
"image-keyboard-response","297","277107","0.0-4.0-1.90","12","null","","","","Images/BlackBeadChoice.png","null"
"image-keyboard-response","298","277612","0.0-4.0-2.90","12","null","","","","Images/BlackBeadChoiceCorrect.png","null"
"image-keyboard-response","299","277748","0.0-4.0-0.91","12","134.55500011332333","","","","Images/NewTrialBC.png","37"
"image-keyboard-response","300","278005","0.0-4.0-1.91","12","null","","","","Images/BlackBeadChoice.png","null"
"image-keyboard-response","301","278510","0.0-4.0-2.91","12","null","","","","Images/BlackBeadChoiceCorrect.png","null"
"image-keyboard-response","302","278615","0.0-4.0-0.92","12","102.51499991863966","","","","Images/NewTrialBC.png","37"
"image-keyboard-response","303","278871","0.0-4.0-1.92","12","null","","","","Images/BlackBeadChoice.png","null"
"image-keyboard-response","304","279377","0.0-4.0-2.92","12","null","","","","Images/BlackBeadChoiceWrong.png","null"
"image-keyboard-response","305","279409","0.0-4.0-0.93","12","31.495000002905726","","","","Images/NewTrialWC.png","39"
"image-keyboard-response","306","279674","0.0-4.0-1.93","12","null","","","","Images/WhiteBeadChoice.png","null"
"image-keyboard-response","307","280190","0.0-4.0-2.93","12","null","","","","Images/WhiteBeadChoiceCorrect.png","null"
"image-keyboard-response","308","280221","0.0-4.0-0.94","12","30.67500004544854","","","","Images/NewTrialWC.png","39"
"image-keyboard-response","309","280491","0.0-4.0-1.94","12","null","","","","Images/WhiteBeadChoice.png","null"
"image-keyboard-response","310","281002","0.0-4.0-2.94","12","452.15000002644956","","","","Images/WhiteBeadChoiceWrong.png","39"
"image-keyboard-response","311","281402","0.0-4.0-0.95","12","398.1600000988692","","","","Images/NewTrialBC.png","39"
"image-keyboard-response","312","281665","0.0-4.0-1.95","12","null","","","","Images/WhiteBeadChoice.png","null"
"image-keyboard-response","313","282168","0.0-4.0-2.95","12","255.3000000771135","","","","Images/WhiteBeadChoiceWrong.png","39"
"image-keyboard-response","314","282526","0.0-4.0-0.96","12","356.5450001042336","","","","Images/NewTrialBC.png","37"
"image-keyboard-response","315","282790","0.0-4.0-1.96","12","null","","","","Images/BlackBeadChoice.png","null"
"image-keyboard-response","316","283307","0.0-4.0-2.96","12","334.9750000052154","","","","Images/BlackBeadChoiceCorrect.png","37"
"image-keyboard-response","317","283584","0.0-4.0-0.97","12","275.6099998950958","","","","Images/NewTrialBC.png","37"
"image-keyboard-response","318","283846","0.0-4.0-1.97","12","null","","","","Images/BlackBeadChoice.png","null"
"image-keyboard-response","319","284349","0.0-4.0-2.97","12","359.03499997220933","","","","Images/BlackBeadChoiceWrong.png","37"
"image-keyboard-response","320","284708","0.0-4.0-0.98","12","356.96000000461936","","","","Images/NewTrialWC.png","39"
"image-keyboard-response","321","284972","0.0-4.0-1.98","12","null","","","","Images/WhiteBeadChoice.png","null"
"image-keyboard-response","322","285483","0.0-4.0-2.98","12","484.6350001171231","","","","Images/WhiteBeadChoiceCorrect.png","39"
"image-keyboard-response","323","285913","0.0-4.0-0.99","12","426.4250001870096","","","","Images/NewTrialWC.png","39"
"image-keyboard-response","324","286170","0.0-4.0-1.99","12","null","","","","Images/WhiteBeadChoice.png","null"
"image-keyboard-response","325","286688","0.0-4.0-2.99","12","null","","","","Images/WhiteBeadChoiceCorrect.png","null"
"image-keyboard-response","326","287093","0.0-4.0-0.100","12","403.1500001437962","","","","Images/NewTrialWC.png","39"
"image-keyboard-response","327","287357","0.0-4.0-1.100","12","null","","","","Images/WhiteBeadChoice.png","null"
"image-keyboard-response","328","287865","0.0-4.0-2.100","12","421.67500010691583","","","","Images/WhiteBeadChoiceCorrect.png","39"
"image-keyboard-response","329","288119","0.0-4.0-0.101","12","253.28999990597367","","","","Images/NewTrialWC.png","39"
"image-keyboard-response","330","288386","0.0-4.0-1.101","12","null","","","","Images/WhiteBeadChoice.png","null"
"image-keyboard-response","331","288909","0.0-4.0-2.101","12","482.29499999433756","","","","Images/WhiteBeadChoiceCorrect.png","39"
"image-keyboard-response","332","289278","0.0-4.0-0.102","12","366.2749999202788","","","","Images/NewTrialWC.png","39"
"image-keyboard-response","333","289546","0.0-4.0-1.102","12","null","","","","Images/WhiteBeadChoice.png","null"
"image-keyboard-response","334","290051","0.0-4.0-2.102","12","null","","","","Images/WhiteBeadChoiceWrong.png","null"
"image-keyboard-response","335","290270","0.0-4.0-0.103","12","217.62499981559813","","","","Images/NewTrialBC.png","39"
"image-keyboard-response","336","290529","0.0-4.0-1.103","12","null","","","","Images/WhiteBeadChoice.png","null"
"image-keyboard-response","337","291038","0.0-4.0-2.103","12","472.6599999703467","","","","Images/WhiteBeadChoiceCorrect.png","39"
"image-keyboard-response","338","291293","0.0-4.0-0.104","12","253.26499994844198","","","","Images/NewTrialWC.png","39"
"image-keyboard-response","339","291552","0.0-4.0-1.104","12","null","","","","Images/WhiteBeadChoice.png","null"
"image-keyboard-response","340","292060","0.0-4.0-2.104","12","null","","","","Images/WhiteBeadChoiceWrong.png","null"
"image-keyboard-response","341","292120","0.0-4.0-0.105","12","57.62999993748963","","","","Images/NewTrialBC.png","39"
"image-keyboard-response","342","292373","0.0-4.0-1.105","12","null","","","","Images/WhiteBeadChoice.png","null"
"image-keyboard-response","343","292887","0.0-4.0-2.105","12","null","","","","Images/WhiteBeadChoiceCorrect.png","null"
"image-keyboard-response","344","292992","0.0-4.0-0.106","12","102.44000004604459","","","","Images/NewTrialWC.png","39"
"image-keyboard-response","345","293259","0.0-4.0-1.106","12","null","","","","Images/WhiteBeadChoice.png","null"
"image-keyboard-response","346","293772","0.0-4.0-2.106","12","null","","","","Images/WhiteBeadChoiceCorrect.png","null"
"image-keyboard-response","347","293898","0.0-4.0-0.107","12","124.0100001450628","","","","Images/NewTrialWC.png","39"
"image-keyboard-response","348","294153","0.0-4.0-1.107","12","null","","","","Images/WhiteBeadChoice.png","null"
"image-keyboard-response","349","294686","0.0-4.0-2.107","12","null","","","","Images/WhiteBeadChoiceCorrect.png","null"
"image-keyboard-response","350","294774","0.0-4.0-0.108","12","85.49500000663102","","","","Images/NewTrialWC.png","39"
"image-keyboard-response","351","295033","0.0-4.0-1.108","12","null","","","","Images/WhiteBeadChoice.png","null"
"image-keyboard-response","352","295537","0.0-4.0-2.108","12","null","","","","Images/WhiteBeadChoiceCorrect.png","null"
"image-keyboard-response","353","295648","0.0-4.0-0.109","12","107.07999998703599","","","","Images/NewTrialWC.png","39"
"image-keyboard-response","354","295915","0.0-4.0-1.109","12","null","","","","Images/WhiteBeadChoice.png","null"
"image-keyboard-response","355","296420","0.0-4.0-2.109","12","null","","","","Images/WhiteBeadChoiceCorrect.png","null"
"image-keyboard-response","356","296520","0.0-4.0-0.110","12","98.10000006109476","","","","Images/NewTrialWC.png","39"
"image-keyboard-response","357","296780","0.0-4.0-1.110","12","null","","","","Images/WhiteBeadChoice.png","null"
"image-keyboard-response","358","297287","0.0-4.0-2.110","12","null","","","","Images/WhiteBeadChoiceCorrect.png","null"
"image-keyboard-response","359","297359","0.0-4.0-0.111","12","69.08999988809228","","","","Images/NewTrialWC.png","39"
"image-keyboard-response","360","297624","0.0-4.0-1.111","12","null","","","","Images/WhiteBeadChoice.png","null"
"image-keyboard-response","361","298140","0.0-4.0-2.111","12","null","","","","Images/WhiteBeadChoiceCorrect.png","null"
"image-keyboard-response","362","298200","0.0-4.0-0.112","12","57.58499982766807","","","","Images/NewTrialWC.png","39"
"image-keyboard-response","363","298461","0.0-4.0-1.112","12","null","","","","Images/WhiteBeadChoice.png","null"
"image-keyboard-response","364","298969","0.0-4.0-2.112","12","null","","","","Images/WhiteBeadChoiceCorrect.png","null"
"image-keyboard-response","365","299134","0.0-4.0-0.113","12","162.72499994374812","","","","Images/NewTrialWC.png","39"
"image-keyboard-response","366","299402","0.0-4.0-1.113","12","null","","","","Images/WhiteBeadChoice.png","null"
"image-keyboard-response","367","299917","0.0-4.0-2.113","12","null","","","","Images/WhiteBeadChoiceCorrect.png","null"
"image-keyboard-response","368","299988","0.0-4.0-0.114","12","68.60000011511147","","","","Images/NewTrialWC.png","39"
"image-keyboard-response","369","300240","0.0-4.0-1.114","12","null","","","","Images/WhiteBeadChoice.png","null"
"image-keyboard-response","370","300757","0.0-4.0-2.114","12","null","","","","Images/WhiteBeadChoiceCorrect.png","null"
"image-keyboard-response","371","300864","0.0-4.0-0.115","12","103.46000012941658","","","","Images/NewTrialWC.png","39"
"image-keyboard-response","372","301123","0.0-4.0-1.115","12","null","","","","Images/WhiteBeadChoice.png","null"
"image-keyboard-response","373","301628","0.0-4.0-2.115","12","null","","","","Images/WhiteBeadChoiceCorrect.png","null"
"image-keyboard-response","374","301719","0.0-4.0-0.116","12","88.4400000795722","","","","Images/NewTrialWC.png","39"
"image-keyboard-response","375","301988","0.0-4.0-1.116","12","null","","","","Images/WhiteBeadChoice.png","null"
"image-keyboard-response","376","302499","0.0-4.0-2.116","12","null","","","","Images/WhiteBeadChoiceCorrect.png","null"
"image-keyboard-response","377","302538","0.0-4.0-0.117","12","37.625000113621354","","","","Images/NewTrialWC.png","39"
"image-keyboard-response","378","302807","0.0-4.0-1.117","12","null","","","","Images/WhiteBeadChoice.png","null"
"image-keyboard-response","379","303313","0.0-4.0-2.117","12","null","","","","Images/WhiteBeadChoiceCorrect.png","null"
"image-keyboard-response","380","303524","0.0-4.0-0.118","12","209.4799999613315","","","","Images/NewTrialWC.png","39"
"image-keyboard-response","381","303782","0.0-4.0-1.118","12","null","","","","Images/WhiteBeadChoice.png","null"
"image-keyboard-response","382","304284","0.0-4.0-2.118","12","500.87499991059303","","","","Images/WhiteBeadChoiceCorrect.png","39"
"image-keyboard-response","383","304669","0.0-4.0-0.119","12","383.2900000270456","","","","Images/NewTrialWC.png","39"
"image-keyboard-response","384","304934","0.0-4.0-1.119","12","null","","","","Images/WhiteBeadChoice.png","null"
"image-keyboard-response","385","305438","0.0-4.0-2.119","12","null","","","","Images/WhiteBeadChoiceWrong.png","null"
"image-keyboard-response","386","305706","0.0-4.0-0.120","12","266.3549999706447","","","","Images/NewTrialBC.png","37"
"image-keyboard-response","387","305959","0.0-4.0-1.120","12","null","","","","Images/BlackBeadChoice.png","null"
"image-keyboard-response","388","306473","0.0-4.0-2.120","12","null","","","","Images/BlackBeadChoiceWrong.png","null"
"image-keyboard-response","389","306524","0.0-4.0-0.121","12","48.8750000949949","","","","Images/NewTrialWC.png","39"
"image-keyboard-response","390","306780","0.0-4.0-1.121","12","null","","","","Images/WhiteBeadChoice.png","null"
"image-keyboard-response","391","307285","0.0-4.0-2.121","12","null","","","","Images/WhiteBeadChoiceCorrect.png","null"
"image-keyboard-response","392","307636","0.0-4.0-0.122","12","348.46000000834465","","","","Images/NewTrialWC.png","39"
"image-keyboard-response","393","307896","0.0-4.0-1.122","12","null","","","","Images/WhiteBeadChoice.png","null"
"image-keyboard-response","394","308403","0.0-4.0-2.122","12","null","","","","Images/WhiteBeadChoiceWrong.png","null"
"image-keyboard-response","395","308450","0.0-4.0-0.123","12","45.854999916628","","","","Images/NewTrialBC.png","39"
"image-keyboard-response","396","308709","0.0-4.0-1.123","12","null","","","","Images/WhiteBeadChoice.png","null"
"image-keyboard-response","397","309234","0.0-4.0-2.123","12","null","","","","Images/WhiteBeadChoiceCorrect.png","null"
"image-keyboard-response","398","309255","0.0-4.0-0.124","12","19.210000056773424","","","","Images/NewTrialWC.png","39"
"image-keyboard-response","399","309509","0.0-4.0-1.124","12","null","","","","Images/WhiteBeadChoice.png","null"
"image-keyboard-response","400","310019","0.0-4.0-2.124","12","null","","","","Images/WhiteBeadChoiceCorrect.png","null"
"image-keyboard-response","401","310092","0.0-4.0-0.125","12","70.30000002123415","","","","Images/NewTrialWC.png","39"
"image-keyboard-response","402","310346","0.0-4.0-1.125","12","null","","","","Images/WhiteBeadChoice.png","null"
"image-keyboard-response","403","310865","0.0-4.0-2.125","12","null","","","","Images/WhiteBeadChoiceCorrect.png","null"
"image-keyboard-response","404","310928","0.0-4.0-0.126","12","60.09999988600612","","","","Images/NewTrialWC.png","39"
"image-keyboard-response","405","311183","0.0-4.0-1.126","12","null","","","","Images/WhiteBeadChoice.png","null"
"image-keyboard-response","406","311686","0.0-4.0-2.126","12","null","","","","Images/WhiteBeadChoiceCorrect.png","null"
"image-keyboard-response","407","311695","0.0-4.0-0.127","12","6.610000040382147","","","","Images/NewTrialWC.png","39"
"image-keyboard-response","408","311957","0.0-4.0-1.127","12","null","","","","Images/WhiteBeadChoice.png","null"
"image-keyboard-response","409","312460","0.0-4.0-2.127","12","null","","","","Images/WhiteBeadChoiceCorrect.png","null"
"image-keyboard-response","410","312480","0.0-4.0-0.128","12","17.370000015944242","","","","Images/NewTrialWC.png","39"
"image-keyboard-response","411","312737","0.0-4.0-1.128","12","null","","","","Images/WhiteBeadChoice.png","null"
"image-keyboard-response","412","313241","0.0-4.0-2.128","12","501.844999846071","","","","Images/WhiteBeadChoiceCorrect.png","39"
"image-keyboard-response","413","313668","0.0-4.0-0.129","12","425.1550000626594","","","","Images/NewTrialWC.png","39"
"image-keyboard-response","414","313923","0.0-4.0-1.129","12","null","","","","Images/WhiteBeadChoice.png","null"
"image-keyboard-response","415","314430","0.0-4.0-2.129","12","null","","","","Images/WhiteBeadChoiceWrong.png","null"
"image-keyboard-response","416","314456","0.0-4.0-0.130","12","24.80500005185604","","","","Images/NewTrialBC.png","37"
"image-keyboard-response","417","314711","0.0-4.0-1.130","12","null","","","","Images/BlackBeadChoice.png","null"
"image-keyboard-response","418","315221","0.0-4.0-2.130","12","null","","","","Images/BlackBeadChoiceWrong.png","null"
"image-keyboard-response","419","315280","0.0-4.0-0.131","12","57.259999914094806","","","","Images/NewTrialWC.png","37"
"image-keyboard-response","420","315545","0.0-4.0-1.131","12","null","","","","Images/BlackBeadChoice.png","null"
"image-keyboard-response","421","316058","0.0-4.0-2.131","12","494.2900000605732","","","","Images/BlackBeadChoiceWrong.png","37"
"image-keyboard-response","422","316474","0.0-4.0-0.132","12","414.9199998937547","","","","Images/NewTrialWC.png","39"
"image-keyboard-response","423","316734","0.0-4.0-1.132","12","null","","","","Images/WhiteBeadChoice.png","null"
"image-keyboard-response","424","317236","0.0-4.0-2.132","12","null","","","","Images/WhiteBeadChoiceWrong.png","null"
"image-keyboard-response","425","317458","0.0-4.0-0.133","12","219.4799999706447","","","","Images/NewTrialBC.png","39"
"image-keyboard-response","426","317737","0.0-4.0-1.133","12","null","","","","Images/WhiteBeadChoice.png","null"
"image-keyboard-response","427","318255","0.0-4.0-2.133","12","null","","","","Images/WhiteBeadChoiceCorrect.png","null"
"image-keyboard-response","428","318324","0.0-4.0-0.134","12","67.5050001591444","","","","Images/NewTrialWC.png","39"
"image-keyboard-response","429","318592","0.0-4.0-1.134","12","null","","","","Images/WhiteBeadChoice.png","null"
"image-keyboard-response","430","319110","0.0-4.0-2.134","12","340.48999985679984","","","","Images/WhiteBeadChoiceCorrect.png","39"
"image-keyboard-response","431","319281","0.0-4.0-0.135","12","168.98000007495284","","","","Images/NewTrialWC.png","39"
"image-keyboard-response","432","319540","0.0-4.0-1.135","12","null","","","","Images/WhiteBeadChoice.png","null"
"image-keyboard-response","433","320053","0.0-4.0-2.135","12","null","","","","Images/WhiteBeadChoiceCorrect.png","null"
"image-keyboard-response","434","320099","0.0-4.0-0.136","12","43.649999890476465","","","","Images/NewTrialWC.png","39"
"image-keyboard-response","435","320375","0.0-4.0-1.136","12","null","","","","Images/WhiteBeadChoice.png","null"
"image-keyboard-response","436","320886","0.0-4.0-2.136","12","null","","","","Images/WhiteBeadChoiceWrong.png","null"
"image-keyboard-response","437","321060","0.0-4.0-0.137","12","172.19999991357327","","","","Images/NewTrialBC.png","37"
"image-keyboard-response","438","321320","0.0-4.0-1.137","12","null","","","","Images/BlackBeadChoice.png","null"
"image-keyboard-response","439","321836","0.0-4.0-2.137","12","425.31000007875264","","","","Images/BlackBeadChoiceCorrect.png","37"
"image-keyboard-response","440","322181","0.0-4.0-0.138","12","342.9999998770654","","","","Images/NewTrialBC.png","37"
"image-keyboard-response","441","322444","0.0-4.0-1.138","12","null","","","","Images/BlackBeadChoice.png","null"
"image-keyboard-response","442","322952","0.0-4.0-2.138","12","308.97000012919307","","","","Images/BlackBeadChoiceCorrect.png","39"
"image-keyboard-response","443","323023","0.0-4.0-0.139","12","68.53000004775822","","","","Images/NewTrialBC.png","37"
"image-keyboard-response","444","323286","0.0-4.0-1.139","12","null","","","","Images/BlackBeadChoice.png","null"
"image-keyboard-response","445","323793","0.0-4.0-2.139","12","null","","","","Images/BlackBeadChoiceCorrect.png","null"
"image-keyboard-response","446","323814","0.0-4.0-0.140","12","18.595000030472875","","","","Images/NewTrialBC.png","37"
"image-keyboard-response","447","324079","0.0-4.0-1.140","12","null","","","","Images/BlackBeadChoice.png","null"
"image-keyboard-response","448","324585","0.0-4.0-2.140","12","230.33000016584992","","","","Images/BlackBeadChoiceCorrect.png","37"
"image-keyboard-response","449","324622","0.0-4.0-0.141","12","35.364999901503325","","","","Images/NewTrialBC.png","37"
"image-keyboard-response","450","324887","0.0-4.0-1.141","12","null","","","","Images/BlackBeadChoice.png","null"
"image-keyboard-response","451","325395","0.0-4.0-2.141","12","null","","","","Images/BlackBeadChoiceCorrect.png","null"
"image-keyboard-response","452","325539","0.0-4.0-0.142","12","141.08999981544912","","","","Images/NewTrialBC.png","37"
"image-keyboard-response","453","325796","0.0-4.0-1.142","12","null","","","","Images/BlackBeadChoice.png","null"
"image-keyboard-response","454","326314","0.0-4.0-2.142","12","null","","","","Images/BlackBeadChoiceWrong.png","null"
"image-keyboard-response","455","326447","0.0-4.0-0.143","12","130.60500007122755","","","","Images/NewTrialWC.png","39"
"image-keyboard-response","456","326710","0.0-4.0-1.143","12","null","","","","Images/WhiteBeadChoice.png","null"
"image-keyboard-response","457","327223","0.0-4.0-2.143","12","null","","","","Images/WhiteBeadChoiceWrong.png","null"
"image-keyboard-response","458","327288","0.0-4.0-0.144","12","62.33999994583428","","","","Images/NewTrialBC.png","39"
"image-keyboard-response","459","327545","0.0-4.0-1.144","12","null","","","","Images/WhiteBeadChoice.png","null"
"image-keyboard-response","460","328064","0.0-4.0-2.144","12","null","","","","Images/WhiteBeadChoiceCorrect.png","null"
"image-keyboard-response","461","328066","0.0-4.0-0.145","12","0.3649999853223562","","","","Images/NewTrialWC.png","39"
"image-keyboard-response","462","328330","0.0-4.0-1.145","12","null","","","","Images/WhiteBeadChoice.png","null"
"image-keyboard-response","463","328837","0.0-4.0-2.145","12","139.8700000718236","","","","Images/WhiteBeadChoiceCorrect.png","39"
"image-keyboard-response","464","329063","0.0-4.0-0.146","12","223.83500006981194","","","","Images/NewTrialWC.png","39"
"image-keyboard-response","465","329319","0.0-4.0-1.146","12","null","","","","Images/WhiteBeadChoice.png","null"
"image-keyboard-response","466","329838","0.0-4.0-2.146","12","null","","","","Images/WhiteBeadChoiceWrong.png","null"
"image-keyboard-response","467","329907","0.0-4.0-0.147","12","67.19499989412725","","","","Images/NewTrialBC.png","39"
"image-keyboard-response","468","330166","0.0-4.0-1.147","12","null","","","","Images/WhiteBeadChoice.png","null"
"image-keyboard-response","469","330692","0.0-4.0-2.147","12","null","","","","Images/WhiteBeadChoiceWrong.png","null"
"image-keyboard-response","470","330699","0.0-4.0-0.148","12","4.9600000493228436","","","","Images/NewTrialBC.png","37"
"image-keyboard-response","471","330954","0.0-4.0-1.148","12","null","","","","Images/BlackBeadChoice.png","null"
"image-keyboard-response","472","331463","0.0-4.0-2.148","12","381.5750000067055","","","","Images/BlackBeadChoiceCorrect.png","37"
"image-keyboard-response","473","331846","0.0-4.0-0.149","12","380.0550000742078","","","","Images/NewTrialBC.png","37"
"image-keyboard-response","474","332101","0.0-4.0-1.149","12","null","","","","Images/BlackBeadChoice.png","null"
"image-keyboard-response","475","332619","0.0-4.0-2.149","12","395.72999998927116","","","","Images/BlackBeadChoiceCorrect.png","39"
"image-keyboard-response","476","332821","0.0-4.0-0.150","12","200.0949999783188","","","","Images/NewTrialBC.png","39"
"image-keyboard-response","477","333077","0.0-4.0-1.150","12","null","","","","Images/WhiteBeadChoice.png","null"
"image-keyboard-response","478","333587","0.0-4.0-2.150","12","null","","","","Images/WhiteBeadChoiceWrong.png","null"
"image-keyboard-response","479","333642","0.0-4.0-0.151","12","52.109999815002084","","","","Images/NewTrialBC.png","39"
"image-keyboard-response","480","333899","0.0-4.0-1.151","12","null","","","","Images/WhiteBeadChoice.png","null"
"image-keyboard-response","481","334415","0.0-4.0-2.151","12","null","","","","Images/WhiteBeadChoiceCorrect.png","null"
"image-keyboard-response","482","334507","0.0-4.0-0.152","12","89.23499984666705","","","","Images/NewTrialWC.png","39"
"image-keyboard-response","483","334764","0.0-4.0-1.152","12","null","","","","Images/WhiteBeadChoice.png","null"
"image-keyboard-response","484","335285","0.0-4.0-2.152","12","null","","","","Images/WhiteBeadChoiceWrong.png","null"
"image-keyboard-response","485","335382","0.0-4.0-0.153","12","94.8700001463294","","","","Images/NewTrialBC.png","39"
"image-keyboard-response","486","335648","0.0-4.0-1.153","12","null","","","","Images/WhiteBeadChoice.png","null"
"image-keyboard-response","487","336169","0.0-4.0-2.153","12","null","","","","Images/WhiteBeadChoiceCorrect.png","null"
"image-keyboard-response","488","336255","0.0-4.0-0.154","12","83.89999996870756","","","","Images/NewTrialWC.png","39"
"image-keyboard-response","489","336511","0.0-4.0-1.154","12","null","","","","Images/WhiteBeadChoice.png","null"
"image-keyboard-response","490","337016","0.0-4.0-2.154","12","407.17500005848706","","","","Images/WhiteBeadChoiceCorrect.png","39"
"image-keyboard-response","491","337606","0.0-4.0-0.155","12","587.2949999757111","","","","Images/NewTrialWC.png","37"
"image-keyboard-response","492","337875","0.0-4.0-1.155","12","null","","","","Images/BlackBeadChoice.png","null"
"image-keyboard-response","493","338379","0.0-4.0-2.155","12","null","","","","Images/BlackBeadChoiceWrong.png","null"
"image-keyboard-response","494","338497","0.0-4.0-0.156","12","115.33499998040497","","","","Images/NewTrialWC.png","39"
"image-keyboard-response","495","338762","0.0-4.0-1.156","12","null","","","","Images/WhiteBeadChoice.png","null"
"image-keyboard-response","496","339277","0.0-4.0-2.156","12","null","","","","Images/WhiteBeadChoiceCorrect.png","null"
"image-keyboard-response","497","339343","0.0-4.0-0.157","12","63.344999914988875","","","","Images/NewTrialWC.png","37"
"image-keyboard-response","498","339602","0.0-4.0-1.157","12","null","","","","Images/BlackBeadChoice.png","null"
"image-keyboard-response","499","340120","0.0-4.0-2.157","12","null","","","","Images/BlackBeadChoiceCorrect.png","null"
"image-keyboard-response","500","340221","0.0-4.0-0.158","12","98.91499998047948","","","","Images/NewTrialBC.png","39"
"image-keyboard-response","501","340491","0.0-4.0-1.158","12","null","","","","Images/WhiteBeadChoice.png","null"
"image-keyboard-response","502","341009","0.0-4.0-2.158","12","477.59500006213784","","","","Images/WhiteBeadChoiceCorrect.png","39"
"image-keyboard-response","503","341300","0.0-4.0-0.159","12","289.05000002123415","","","","Images/NewTrialWC.png","39"
"image-keyboard-response","504","341556","0.0-4.0-1.159","12","null","","","","Images/WhiteBeadChoice.png","null"
"image-keyboard-response","505","342071","0.0-4.0-2.159","12","491.32000003010035","","","","Images/WhiteBeadChoiceCorrect.png","39"
"image-keyboard-response","506","342494","0.0-4.0-0.160","12","421.02500004693866","","","","Images/NewTrialWC.png","39"
"image-keyboard-response","507","342759","0.0-4.0-1.160","12","null","","","","Images/WhiteBeadChoice.png","null"
"image-keyboard-response","508","343275","0.0-4.0-2.160","12","null","","","","Images/WhiteBeadChoiceCorrect.png","null"
"image-keyboard-response","509","343460","0.0-4.0-0.161","12","183.63499990664423","","","","Images/NewTrialWC.png","39"
"image-keyboard-response","510","343725","0.0-4.0-1.161","12","null","","","","Images/WhiteBeadChoice.png","null"
"image-keyboard-response","511","344241","0.0-4.0-2.161","12","null","","","","Images/WhiteBeadChoiceCorrect.png","null"
"image-keyboard-response","512","344379","0.0-4.0-0.162","12","136.72000006772578","","","","Images/NewTrialWC.png","39"
"image-keyboard-response","513","344634","0.0-4.0-1.162","12","null","","","","Images/WhiteBeadChoice.png","null"
"image-keyboard-response","514","345148","0.0-4.0-2.162","12","null","","","","Images/WhiteBeadChoiceCorrect.png","null"
"image-keyboard-response","515","345191","0.0-4.0-0.163","12","40.960000129416585","","","","Images/NewTrialWC.png","39"
"image-keyboard-response","516","345455","0.0-4.0-1.163","12","null","","","","Images/WhiteBeadChoice.png","null"
"image-keyboard-response","517","345963","0.0-4.0-2.163","12","null","","","","Images/WhiteBeadChoiceWrong.png","null"
"image-keyboard-response","518","345998","0.0-4.0-0.164","12","32.98499993979931","","","","Images/NewTrialBC.png","37"
"image-keyboard-response","519","346253","0.0-4.0-1.164","12","null","","","","Images/BlackBeadChoice.png","null"
"image-keyboard-response","520","346768","0.0-4.0-2.164","12","null","","","","Images/BlackBeadChoiceWrong.png","null"
"image-keyboard-response","521","346844","0.0-4.0-0.165","12","72.79499992728233","","","","Images/NewTrialWC.png","37"
"image-keyboard-response","522","347104","0.0-4.0-1.165","12","null","","","","Images/BlackBeadChoice.png","null"
"image-keyboard-response","523","347606","0.0-4.0-2.165","12","null","","","","Images/BlackBeadChoiceWrong.png","null"
"image-keyboard-response","524","347626","0.0-4.0-0.166","12","16.930000158026814","","","","Images/NewTrialWC.png","37"
"image-keyboard-response","525","347884","0.0-4.0-1.166","12","null","","","","Images/BlackBeadChoice.png","null"
"image-keyboard-response","526","348394","0.0-4.0-2.166","12","null","","","","Images/BlackBeadChoiceWrong.png","null"
"image-keyboard-response","527","348548","0.0-4.0-0.167","12","151.43500012345612","","","","Images/NewTrialWC.png","39"
"image-keyboard-response","528","348805","0.0-4.0-1.167","12","null","","","","Images/WhiteBeadChoice.png","null"
"image-keyboard-response","529","349313","0.0-4.0-2.167","12","null","","","","Images/WhiteBeadChoiceCorrect.png","null"
"image-keyboard-response","530","349410","0.0-4.0-0.168","12","95.16999986954033","","","","Images/NewTrialWC.png","39"
"image-keyboard-response","531","349679","0.0-4.0-1.168","12","null","","","","Images/WhiteBeadChoice.png","null"
"image-keyboard-response","532","350195","0.0-4.0-2.168","12","null","","","","Images/WhiteBeadChoiceWrong.png","null"
"image-keyboard-response","533","350220","0.0-4.0-0.169","12","22.050000028684735","","","","Images/NewTrialBC.png","37"
"image-keyboard-response","534","350478","0.0-4.0-1.169","12","null","","","","Images/BlackBeadChoice.png","null"
"image-keyboard-response","535","350993","0.0-4.0-2.169","12","167.7399999462068","","","","Images/BlackBeadChoiceCorrect.png","37"
"image-keyboard-response","536","351079","0.0-4.0-0.170","12","83.74000014737248","","","","Images/NewTrialBC.png","37"
"image-keyboard-response","537","351341","0.0-4.0-1.170","12","null","","","","Images/BlackBeadChoice.png","null"
"image-keyboard-response","538","351850","0.0-4.0-2.170","12","null","","","","Images/BlackBeadChoiceWrong.png","null"
"image-keyboard-response","539","352026","0.0-4.0-0.171","12","173.5400001052767","","","","Images/NewTrialWC.png","37"
"image-keyboard-response","540","352287","0.0-4.0-1.171","12","null","","","","Images/BlackBeadChoice.png","null"
"image-keyboard-response","541","352790","0.0-4.0-2.171","12","null","","","","Images/BlackBeadChoiceCorrect.png","null"
"image-keyboard-response","542","352900","0.0-4.0-0.172","12","106.23000003397465","","","","Images/NewTrialBC.png","37"
"image-keyboard-response","543","353155","0.0-4.0-1.172","12","null","","","","Images/BlackBeadChoice.png","null"
"image-keyboard-response","544","353660","0.0-4.0-2.172","12","null","","","","Images/BlackBeadChoiceCorrect.png","null"
"image-keyboard-response","545","353754","0.0-4.0-0.173","12","90.62000014819205","","","","Images/NewTrialBC.png","37"
"image-keyboard-response","546","354019","0.0-4.0-1.173","12","null","","","","Images/BlackBeadChoice.png","null"
"image-keyboard-response","547","354523","0.0-4.0-2.173","12","null","","","","Images/BlackBeadChoiceCorrect.png","null"
"image-keyboard-response","548","354612","0.0-4.0-0.174","12","86.83000016026199","","","","Images/NewTrialBC.png","37"
"image-keyboard-response","549","354876","0.0-4.0-1.174","12","null","","","","Images/BlackBeadChoice.png","null"
"image-keyboard-response","550","355389","0.0-4.0-2.174","12","null","","","","Images/BlackBeadChoiceCorrect.png","null"
"image-keyboard-response","551","355489","0.0-4.0-0.175","12","98.39000017382205","","","","Images/NewTrialBC.png","37"
"image-keyboard-response","552","355746","0.0-4.0-1.175","12","null","","","","Images/BlackBeadChoice.png","null"
"image-keyboard-response","553","356251","0.0-4.0-2.175","12","null","","","","Images/BlackBeadChoiceCorrect.png","null"
"image-keyboard-response","554","356342","0.0-4.0-0.176","12","87.82999985851347","","","","Images/NewTrialBC.png","37"
"image-keyboard-response","555","356597","0.0-4.0-1.176","12","null","","","","Images/BlackBeadChoice.png","null"
"image-keyboard-response","556","357104","0.0-4.0-2.176","12","null","","","","Images/BlackBeadChoiceCorrect.png","null"
"image-keyboard-response","557","357134","0.0-4.0-0.177","12","28.165000025182962","","","","Images/NewTrialBC.png","37"
"image-keyboard-response","558","357402","0.0-4.0-1.177","12","null","","","","Images/BlackBeadChoice.png","null"
"image-keyboard-response","559","357909","0.0-4.0-2.177","12","null","","","","Images/BlackBeadChoiceCorrect.png","null"
"image-keyboard-response","560","358055","0.0-4.0-0.178","12","143.2799999602139","","","","Images/NewTrialBC.png","37"
"image-keyboard-response","561","358309","0.0-4.0-1.178","12","null","","","","Images/BlackBeadChoice.png","null"
"image-keyboard-response","562","358820","0.0-4.0-2.178","12","null","","","","Images/BlackBeadChoiceWrong.png","null"
"image-keyboard-response","563","358969","0.0-4.0-0.179","12","147.15000009164214","","","","Images/NewTrialWC.png","39"
"image-keyboard-response","564","359224","0.0-4.0-1.179","12","null","","","","Images/WhiteBeadChoice.png","null"
"image-keyboard-response","565","359729","0.0-4.0-2.179","12","null","","","","Images/WhiteBeadChoiceCorrect.png","null"
"image-keyboard-response","566","359892","0.0-4.0-0.180","12","159.80500006116927","","","","Images/NewTrialWC.png","39"
"image-keyboard-response","567","360149","0.0-4.0-1.180","12","null","","","","Images/WhiteBeadChoice.png","null"
"image-keyboard-response","568","360660","0.0-4.0-2.180","12","null","","","","Images/WhiteBeadChoiceCorrect.png","null"
"image-keyboard-response","569","360877","0.0-4.0-0.181","12","215.1599999051541","","","","Images/NewTrialWC.png","39"
"image-keyboard-response","570","361136","0.0-4.0-1.181","12","null","","","","Images/WhiteBeadChoice.png","null"
"image-keyboard-response","571","361658","0.0-4.0-2.181","12","null","","","","Images/WhiteBeadChoiceCorrect.png","null"
"image-keyboard-response","572","361704","0.0-4.0-0.182","12","43.255000142380595","","","","Images/NewTrialWC.png","39"
"image-keyboard-response","573","361957","0.0-4.0-1.182","12","null","","","","Images/WhiteBeadChoice.png","null"
"image-keyboard-response","574","362464","0.0-4.0-2.182","12","null","","","","Images/WhiteBeadChoiceCorrect.png","null"
"image-keyboard-response","575","362596","0.0-4.0-0.183","12","130.11499983258545","","","","Images/NewTrialWC.png","39"
"image-keyboard-response","576","362861","0.0-4.0-1.183","12","null","","","","Images/WhiteBeadChoice.png","null"
"image-keyboard-response","577","363375","0.0-4.0-2.183","12","301.695000147447","","","","Images/WhiteBeadChoiceCorrect.png","39"
"image-keyboard-response","578","363676","0.0-4.0-0.184","12","299.55999995581806","","","","Images/NewTrialWC.png","39"
"image-keyboard-response","579","363939","0.0-4.0-1.184","12","null","","","","Images/WhiteBeadChoice.png","null"
"image-keyboard-response","580","364447","0.0-4.0-2.184","12","null","","","","Images/WhiteBeadChoiceCorrect.png","null"
"image-keyboard-response","581","364550","0.0-4.0-0.185","12","102.10999986156821","","","","Images/NewTrialWC.png","39"
"image-keyboard-response","582","364815","0.0-4.0-1.185","12","null","","","","Images/WhiteBeadChoice.png","null"
"image-keyboard-response","583","365328","0.0-4.0-2.185","12","null","","","","Images/WhiteBeadChoiceWrong.png","null"
"image-keyboard-response","584","365712","0.0-4.0-0.186","12","382.1000000461936","","","","Images/NewTrialBC.png","37"
"image-keyboard-response","585","365963","0.0-4.0-1.186","12","null","","","","Images/BlackBeadChoice.png","null"
"image-keyboard-response","586","366470","0.0-4.0-2.186","12","null","","","","Images/BlackBeadChoiceCorrect.png","null"
"image-keyboard-response","587","366568","0.0-4.0-0.187","12","96.23000002466142","","","","Images/NewTrialBC.png","37"
"image-keyboard-response","588","366824","0.0-4.0-1.187","12","null","","","","Images/BlackBeadChoice.png","null"
"image-keyboard-response","589","367328","0.0-4.0-2.187","12","null","","","","Images/BlackBeadChoiceCorrect.png","null"
"image-keyboard-response","590","367343","0.0-4.0-0.188","12","12.785000028088689","","","","Images/NewTrialBC.png","37"
"image-keyboard-response","591","367605","0.0-4.0-1.188","12","null","","","","Images/BlackBeadChoice.png","null"
"image-keyboard-response","592","368117","0.0-4.0-2.188","12","475.6550001911819","","","","Images/BlackBeadChoiceWrong.png","39"
"image-keyboard-response","593","368458","0.0-4.0-0.189","12","337.88500004447997","","","","Images/NewTrialWC.png","39"
"image-keyboard-response","594","368725","0.0-4.0-1.189","12","null","","","","Images/WhiteBeadChoice.png","null"
"image-keyboard-response","595","369243","0.0-4.0-2.189","12","null","","","","Images/WhiteBeadChoiceCorrect.png","null"
"image-keyboard-response","596","369289","0.0-4.0-0.190","12","43.55500009842217","","","","Images/NewTrialWC.png","39"
"image-keyboard-response","597","369544","0.0-4.0-1.190","12","null","","","","Images/WhiteBeadChoice.png","null"
"image-keyboard-response","598","370057","0.0-4.0-2.190","12","null","","","","Images/WhiteBeadChoiceWrong.png","null"
"image-keyboard-response","599","370128","0.0-4.0-0.191","12","68.32000007852912","","","","Images/NewTrialBC.png","37"
"image-keyboard-response","600","370389","0.0-4.0-1.191","12","null","","","","Images/BlackBeadChoice.png","null"
"image-keyboard-response","601","370895","0.0-4.0-2.191","12","null","","","","Images/BlackBeadChoiceCorrect.png","null"
"image-keyboard-response","602","370975","0.0-4.0-0.192","12","77.59999996051192","","","","Images/NewTrialBC.png","37"
"image-keyboard-response","603","371244","0.0-4.0-1.192","12","null","","","","Images/BlackBeadChoice.png","null"
"image-keyboard-response","604","371756","0.0-4.0-2.192","12","378.78999998793006","","","","Images/BlackBeadChoiceCorrect.png","37"
"image-keyboard-response","605","372204","0.0-4.0-0.193","12","444.84000001102686","","","","Images/NewTrialBC.png","37"
"image-keyboard-response","606","372468","0.0-4.0-1.193","12","null","","","","Images/BlackBeadChoice.png","null"
"image-keyboard-response","607","372978","0.0-4.0-2.193","12","443.13000002875924","","","","Images/BlackBeadChoiceCorrect.png","37"
"image-keyboard-response","608","373359","0.0-4.0-0.194","12","378.74500011093915","","","","Images/NewTrialBC.png","37"
"image-keyboard-response","609","373626","0.0-4.0-1.194","12","null","","","","Images/BlackBeadChoice.png","null"
"image-keyboard-response","610","374143","0.0-4.0-2.194","12","null","","","","Images/BlackBeadChoiceCorrect.png","null"
"image-keyboard-response","611","374341","0.0-4.0-0.195","12","195.49999991431832","","","","Images/NewTrialBC.png","37"
"image-keyboard-response","612","374607","0.0-4.0-1.195","12","null","","","","Images/BlackBeadChoice.png","null"
"image-keyboard-response","613","375111","0.0-4.0-2.195","12","null","","","","Images/BlackBeadChoiceWrong.png","null"
"image-keyboard-response","614","375231","0.0-4.0-0.196","12","118.27500001527369","","","","Images/NewTrialWC.png","37"
"image-keyboard-response","615","375511","0.0-4.0-1.196","12","null","","","","Images/BlackBeadChoice.png","null"
"image-keyboard-response","616","376022","0.0-4.0-2.196","12","null","","","","Images/BlackBeadChoiceCorrect.png","null"
"image-keyboard-response","617","376212","0.0-4.0-0.197","12","189.17999998666346","","","","Images/NewTrialBC.png","37"
"image-keyboard-response","618","376490","0.0-4.0-1.197","12","null","","","","Images/BlackBeadChoice.png","null"
"image-keyboard-response","619","376998","0.0-4.0-2.197","12","null","","","","Images/BlackBeadChoiceCorrect.png","null"
"image-keyboard-response","620","377161","0.0-4.0-0.198","12","159.9349998869002","","","","Images/NewTrialBC.png","37"
"image-keyboard-response","621","377417","0.0-4.0-1.198","12","null","","","","Images/BlackBeadChoice.png","null"
"image-keyboard-response","622","377922","0.0-4.0-2.198","12","null","","","","Images/BlackBeadChoiceWrong.png","null"
"image-keyboard-response","623","378096","0.0-4.0-0.199","12","170.73999997228384","","","","Images/NewTrialWC.png","39"
"image-keyboard-response","624","378358","0.0-4.0-1.199","12","null","","","","Images/WhiteBeadChoice.png","null"
"image-keyboard-response","625","378861","0.0-4.0-2.199","12","null","","","","Images/WhiteBeadChoiceCorrect.png","null"
"html-keyboard-response","626","382342","0.0-5.0","12","3478.5050000064075","","","","","32"
"html-keyboard-response","627","387290","0.0-6.0","12","4944.669999880716","","","","<div class=""container"" style=""height:800px;width:800px;display:flex;flex-direction:column;justify-content:center;align-items:center;text-align:center;font-weight:normal;font-family:Arial;font-size:20px""><p>Loading episode&hellip;</p><div>","32"
"image-keyboard-response","628","389149","0.0-7.0-0.0","12","1856.4600001554936","","","","Images/NoChoiceMM.png","39"
"image-keyboard-response","629","389404","0.0-7.0-1.0","12","null","","","","Images/WhiteBeadChoiceMM.png","null"
"image-keyboard-response","630","389920","0.0-7.0-2.0","12","null","","","","Images/WhiteBeadChoiceWrongMM.png","null"
"image-keyboard-response","631","391190","0.0-7.0-0.1","12","1267.8900000173599","","","","Images/NewTrialBCMM.png","39"
"image-keyboard-response","632","391446","0.0-7.0-1.1","12","null","","","","Images/WhiteBeadChoiceMM.png","null"
"image-keyboard-response","633","391955","0.0-7.0-2.1","12","null","","","","Images/WhiteBeadChoiceCorrectMM.png","null"
"image-keyboard-response","634","392854","0.0-7.0-0.2","12","897.5050000008196","","","","Images/NewTrialWCMM.png","39"
"image-keyboard-response","635","393108","0.0-7.0-1.2","12","null","","","","Images/WhiteBeadChoiceMM.png","null"
"image-keyboard-response","636","393613","0.0-7.0-2.2","12","null","","","","Images/WhiteBeadChoiceCorrectMM.png","null"
"image-keyboard-response","637","393638","0.0-7.0-0.3","12","22.11999986320734","","","","Images/NewTrialWCMM.png","39"
"image-keyboard-response","638","393898","0.0-7.0-1.3","12","null","","","","Images/WhiteBeadChoiceMM.png","null"
"image-keyboard-response","639","394420","0.0-7.0-2.3","12","null","","","","Images/WhiteBeadChoiceCorrectMM.png","null"
"image-keyboard-response","640","394492","0.0-7.0-0.4","12","69.95499995537102","","","","Images/NewTrialWCMM.png","39"
"image-keyboard-response","641","394760","0.0-7.0-1.4","12","null","","","","Images/WhiteBeadChoiceMM.png","null"
"image-keyboard-response","642","395264","0.0-7.0-2.4","12","null","","","","Images/WhiteBeadChoiceCorrectMM.png","null"
"image-keyboard-response","643","395363","0.0-7.0-0.5","12","96.16000019013882","","","","Images/NewTrialWCMM.png","39"
"image-keyboard-response","644","395635","0.0-7.0-1.5","12","null","","","","Images/WhiteBeadChoiceMM.png","null"
"image-keyboard-response","645","396150","0.0-7.0-2.5","12","483.84000011719763","","","","Images/WhiteBeadChoiceWrongMM.png","37"
"image-keyboard-response","646","396509","0.0-7.0-0.6","12","356.84499982744455","","","","Images/NewTrialBCMM.png","37"
"image-keyboard-response","647","396763","0.0-7.0-1.6","12","null","","","","Images/BlackBeadChoiceMM.png","null"
"image-keyboard-response","648","397269","0.0-7.0-2.6","12","null","","","","Images/BlackBeadChoiceCorrectMM.png","null"
"image-keyboard-response","649","398207","0.0-7.0-0.7","12","936.5150001831353","","","","Images/NewTrialBCMM.png","37"
"image-keyboard-response","650","398468","0.0-7.0-1.7","12","null","","","","Images/BlackBeadChoiceMM.png","null"
"image-keyboard-response","651","398974","0.0-7.0-2.7","12","null","","","","Images/BlackBeadChoiceCorrectMM.png","null"
"image-keyboard-response","652","399083","0.0-7.0-0.8","12","106.510000070557","","","","Images/NewTrialBCMM.png","37"
"image-keyboard-response","653","399336","0.0-7.0-1.8","12","null","","","","Images/BlackBeadChoiceMM.png","null"
"image-keyboard-response","654","399839","0.0-7.0-2.8","12","null","","","","Images/BlackBeadChoiceCorrectMM.png","null"
"image-keyboard-response","655","399929","0.0-7.0-0.9","12","87.89000008255243","","","","Images/NewTrialBCMM.png","37"
"image-keyboard-response","656","400196","0.0-7.0-1.9","12","null","","","","Images/BlackBeadChoiceMM.png","null"
"image-keyboard-response","657","400703","0.0-7.0-2.9","12","null","","","","Images/BlackBeadChoiceCorrectMM.png","null"
"image-keyboard-response","658","400776","0.0-7.0-0.10","12","69.79000009596348","","","","Images/NewTrialBCMM.png","37"
"image-keyboard-response","659","401043","0.0-7.0-1.10","12","null","","","","Images/BlackBeadChoiceMM.png","null"
"image-keyboard-response","660","401548","0.0-7.0-2.10","12","null","","","","Images/BlackBeadChoiceCorrectMM.png","null"
"image-keyboard-response","661","401633","0.0-7.0-0.11","12","83.40499992482364","","","","Images/NewTrialBCMM.png","37"
"image-keyboard-response","662","401886","0.0-7.0-1.11","12","null","","","","Images/BlackBeadChoiceMM.png","null"
"image-keyboard-response","663","402402","0.0-7.0-2.11","12","null","","","","Images/BlackBeadChoiceCorrectMM.png","null"
"image-keyboard-response","664","402456","0.0-7.0-0.12","12","52.25499998778105","","","","Images/NewTrialBCMM.png","37"
"image-keyboard-response","665","402722","0.0-7.0-1.12","12","null","","","","Images/BlackBeadChoiceMM.png","null"
"image-keyboard-response","666","403230","0.0-7.0-2.12","12","null","","","","Images/BlackBeadChoiceCorrectMM.png","null"
"image-keyboard-response","667","403286","0.0-7.0-0.13","12","52.20499983988702","","","","Images/NewTrialBCMM.png","37"
"image-keyboard-response","668","403544","0.0-7.0-1.13","12","null","","","","Images/BlackBeadChoiceMM.png","null"
"image-keyboard-response","669","404048","0.0-7.0-2.13","12","null","","","","Images/BlackBeadChoiceCorrectMM.png","null"
"image-keyboard-response","670","404173","0.0-7.0-0.14","12","123.08500008657575","","","","Images/NewTrialBCMM.png","37"
"image-keyboard-response","671","404441","0.0-7.0-1.14","12","null","","","","Images/BlackBeadChoiceMM.png","null"
"image-keyboard-response","672","404952","0.0-7.0-2.14","12","null","","","","Images/BlackBeadChoiceCorrectMM.png","null"
"image-keyboard-response","673","404994","0.0-7.0-0.15","12","39.11000001244247","","","","Images/NewTrialBCMM.png","37"
"image-keyboard-response","674","405252","0.0-7.0-1.15","12","null","","","","Images/BlackBeadChoiceMM.png","null"
"image-keyboard-response","675","405758","0.0-7.0-2.15","12","null","","","","Images/BlackBeadChoiceCorrectMM.png","null"
"image-keyboard-response","676","405811","0.0-7.0-0.16","12","51.16000003181398","","","","Images/NewTrialBCMM.png","37"
"image-keyboard-response","677","406074","0.0-7.0-1.16","12","null","","","","Images/BlackBeadChoiceMM.png","null"
"image-keyboard-response","678","406580","0.0-7.0-2.16","12","null","","","","Images/BlackBeadChoiceCorrectMM.png","null"
"image-keyboard-response","679","406679","0.0-7.0-0.17","12","98.37500005960464","","","","Images/NewTrialBCMM.png","37"
"image-keyboard-response","680","406936","0.0-7.0-1.17","12","null","","","","Images/BlackBeadChoiceMM.png","null"
"image-keyboard-response","681","407447","0.0-7.0-2.17","12","null","","","","Images/BlackBeadChoiceCorrectMM.png","null"
"image-keyboard-response","682","407560","0.0-7.0-0.18","12","111.58499983139336","","","","Images/NewTrialBCMM.png","37"
"image-keyboard-response","683","407828","0.0-7.0-1.18","12","null","","","","Images/BlackBeadChoiceMM.png","null"
"image-keyboard-response","684","408341","0.0-7.0-2.18","12","null","","","","Images/BlackBeadChoiceCorrectMM.png","null"
"image-keyboard-response","685","408396","0.0-7.0-0.19","12","52.09499993361533","","","","Images/NewTrialBCMM.png","37"
"image-keyboard-response","686","408649","0.0-7.0-1.19","12","null","","","","Images/BlackBeadChoiceMM.png","null"
"image-keyboard-response","687","409155","0.0-7.0-2.19","12","null","","","","Images/BlackBeadChoiceCorrectMM.png","null"
"image-keyboard-response","688","409234","0.0-7.0-0.20","12","76.4650001656264","","","","Images/NewTrialBCMM.png","37"
"image-keyboard-response","689","409497","0.0-7.0-1.20","12","null","","","","Images/BlackBeadChoiceMM.png","null"
"image-keyboard-response","690","410004","0.0-7.0-2.20","12","null","","","","Images/BlackBeadChoiceCorrectMM.png","null"
"image-keyboard-response","691","410054","0.0-7.0-0.21","12","48.67499996908009","","","","Images/NewTrialBCMM.png","37"
"image-keyboard-response","692","410306","0.0-7.0-1.21","12","null","","","","Images/BlackBeadChoiceMM.png","null"
"image-keyboard-response","693","410816","0.0-7.0-2.21","12","null","","","","Images/BlackBeadChoiceCorrectMM.png","null"
"image-keyboard-response","694","410909","0.0-7.0-0.22","12","90.20500001497567","","","","Images/NewTrialBCMM.png","37"
"image-keyboard-response","695","411176","0.0-7.0-1.22","12","null","","","","Images/BlackBeadChoiceMM.png","null"
"image-keyboard-response","696","411690","0.0-7.0-2.22","12","null","","","","Images/BlackBeadChoiceCorrectMM.png","null"
"image-keyboard-response","697","411721","0.0-7.0-0.23","12","27.909999946132302","","","","Images/NewTrialBCMM.png","37"
"image-keyboard-response","698","411978","0.0-7.0-1.23","12","null","","","","Images/BlackBeadChoiceMM.png","null"
"image-keyboard-response","699","412494","0.0-7.0-2.23","12","null","","","","Images/BlackBeadChoiceCorrectMM.png","null"
"image-keyboard-response","700","412603","0.0-7.0-0.24","12","106.35999985970557","","","","Images/NewTrialBCMM.png","37"
"image-keyboard-response","701","412868","0.0-7.0-1.24","12","null","","","","Images/BlackBeadChoiceMM.png","null"
"image-keyboard-response","702","413374","0.0-7.0-2.24","12","null","","","","Images/BlackBeadChoiceCorrectMM.png","null"
"image-keyboard-response","703","413591","0.0-7.0-0.25","12","215.5750000383705","","","","Images/NewTrialBCMM.png","37"
"image-keyboard-response","704","413845","0.0-7.0-1.25","12","null","","","","Images/BlackBeadChoiceMM.png","null"
"image-keyboard-response","705","414350","0.0-7.0-2.25","12","null","","","","Images/BlackBeadChoiceCorrectMM.png","null"
"image-keyboard-response","706","414567","0.0-7.0-0.26","12","215.95000009983778","","","","Images/NewTrialBCMM.png","37"
"image-keyboard-response","707","414821","0.0-7.0-1.26","12","null","","","","Images/BlackBeadChoiceMM.png","null"
"image-keyboard-response","708","415335","0.0-7.0-2.26","12","null","","","","Images/BlackBeadChoiceCorrectMM.png","null"
"image-keyboard-response","709","415639","0.0-7.0-0.27","12","301.10000004060566","","","","Images/NewTrialBCMM.png","37"
"image-keyboard-response","710","415898","0.0-7.0-1.27","12","null","","","","Images/BlackBeadChoiceMM.png","null"
"image-keyboard-response","711","416417","0.0-7.0-2.27","12","null","","","","Images/BlackBeadChoiceCorrectMM.png","null"
"image-keyboard-response","712","416574","0.0-7.0-0.28","12","155.6049999780953","","","","Images/NewTrialBCMM.png","37"
"image-keyboard-response","713","416838","0.0-7.0-1.28","12","null","","","","Images/BlackBeadChoiceMM.png","null"
"image-keyboard-response","714","417345","0.0-7.0-2.28","12","null","","","","Images/BlackBeadChoiceCorrectMM.png","null"
"image-keyboard-response","715","417441","0.0-7.0-0.29","12","93.48500007763505","","","","Images/NewTrialBCMM.png","37"
"image-keyboard-response","716","417718","0.0-7.0-1.29","12","null","","","","Images/BlackBeadChoiceMM.png","null"
"image-keyboard-response","717","418231","0.0-7.0-2.29","12","null","","","","Images/BlackBeadChoiceCorrectMM.png","null"
"image-keyboard-response","718","418304","0.0-7.0-0.30","12","70.25000010617077","","","","Images/NewTrialBCMM.png","37"
"image-keyboard-response","719","418561","0.0-7.0-1.30","12","null","","","","Images/BlackBeadChoiceMM.png","null"
"image-keyboard-response","720","419072","0.0-7.0-2.30","12","null","","","","Images/BlackBeadChoiceCorrectMM.png","null"
"image-keyboard-response","721","419087","0.0-7.0-0.31","12","12.695000041276217","","","","Images/NewTrialBCMM.png","37"
"image-keyboard-response","722","419342","0.0-7.0-1.31","12","null","","","","Images/BlackBeadChoiceMM.png","null"
"image-keyboard-response","723","419861","0.0-7.0-2.31","12","498.50500002503395","","","","Images/BlackBeadChoiceCorrectMM.png","37"
"image-keyboard-response","724","420654","0.0-7.0-0.32","12","790.294999955222","","","","Images/NewTrialBCMM.png","37"
"image-keyboard-response","725","420922","0.0-7.0-1.32","12","null","","","","Images/BlackBeadChoiceMM.png","null"
"image-keyboard-response","726","421435","0.0-7.0-2.32","12","null","","","","Images/BlackBeadChoiceCorrectMM.png","null"
"image-keyboard-response","727","421456","0.0-7.0-0.33","12","18.829999957233667","","","","Images/NewTrialBCMM.png","37"
"image-keyboard-response","728","421714","0.0-7.0-1.33","12","null","","","","Images/BlackBeadChoiceMM.png","null"
"image-keyboard-response","729","422232","0.0-7.0-2.33","12","null","","","","Images/BlackBeadChoiceCorrectMM.png","null"
"image-keyboard-response","730","422288","0.0-7.0-0.34","12","54.315000073984265","","","","Images/NewTrialBCMM.png","37"
"image-keyboard-response","731","422555","0.0-7.0-1.34","12","null","","","","Images/BlackBeadChoiceMM.png","null"
"image-keyboard-response","732","423074","0.0-7.0-2.34","12","null","","","","Images/BlackBeadChoiceCorrectMM.png","null"
"image-keyboard-response","733","423076","0.0-7.0-0.35","12","0.14999997802078724","","","","Images/NewTrialBCMM.png","37"
"image-keyboard-response","734","423335","0.0-7.0-1.35","12","null","","","","Images/BlackBeadChoiceMM.png","null"
"image-keyboard-response","735","423842","0.0-7.0-2.35","12","null","","","","Images/BlackBeadChoiceWrongMM.png","null"
"image-keyboard-response","736","424573","0.0-7.0-0.36","12","729.130000108853","","","","Images/NewTrialWCMM.png","39"
"image-keyboard-response","737","424833","0.0-7.0-1.36","12","null","","","","Images/WhiteBeadChoiceMM.png","null"
"image-keyboard-response","738","425343","0.0-7.0-2.36","12","null","","","","Images/WhiteBeadChoiceWrongMM.png","null"
"image-keyboard-response","739","425359","0.0-7.0-0.37","12","15.33500012010336","","","","Images/NewTrialBCMM.png","37"
"image-keyboard-response","740","425614","0.0-7.0-1.37","12","null","","","","Images/BlackBeadChoiceMM.png","null"
"image-keyboard-response","741","426119","0.0-7.0-2.37","12","280.6649999693036","","","","Images/BlackBeadChoiceWrongMM.png","37"
"image-keyboard-response","742","426657","0.0-7.0-0.38","12","536.8200000375509","","","","Images/NewTrialWCMM.png","39"
"image-keyboard-response","743","426921","0.0-7.0-1.38","12","null","","","","Images/WhiteBeadChoiceMM.png","null"
"image-keyboard-response","744","427425","0.0-7.0-2.38","12","null","","","","Images/WhiteBeadChoiceWrongMM.png","null"
"image-keyboard-response","745","427571","0.0-7.0-0.39","12","143.08000006712973","","","","Images/NewTrialBCMM.png","39"
"image-keyboard-response","746","427837","0.0-7.0-1.39","12","null","","","","Images/WhiteBeadChoiceMM.png","null"
"image-keyboard-response","747","428341","0.0-7.0-2.39","12","null","","","","Images/WhiteBeadChoiceWrongMM.png","null"
"image-keyboard-response","748","428453","0.0-7.0-0.40","12","109.62000000290573","","","","Images/NewTrialBCMM.png","37"
"image-keyboard-response","749","428716","0.0-7.0-1.40","12","null","","","","Images/BlackBeadChoiceMM.png","null"
"image-keyboard-response","750","429220","0.0-7.0-2.40","12","null","","","","Images/BlackBeadChoiceCorrectMM.png","null"
"image-keyboard-response","751","429353","0.0-7.0-0.41","12","132.17499991878867","","","","Images/NewTrialBCMM.png","37"
"image-keyboard-response","752","429611","0.0-7.0-1.41","12","null","","","","Images/BlackBeadChoiceMM.png","null"
"image-keyboard-response","753","430125","0.0-7.0-2.41","12","null","","","","Images/BlackBeadChoiceCorrectMM.png","null"
"image-keyboard-response","754","430230","0.0-7.0-0.42","12","102.33499994501472","","","","Images/NewTrialBCMM.png","37"
"image-keyboard-response","755","430497","0.0-7.0-1.42","12","null","","","","Images/BlackBeadChoiceMM.png","null"
"image-keyboard-response","756","431013","0.0-7.0-2.42","12","null","","","","Images/BlackBeadChoiceCorrectMM.png","null"
"image-keyboard-response","757","431114","0.0-7.0-0.43","12","98.14499993808568","","","","Images/NewTrialBCMM.png","37"
"image-keyboard-response","758","431372","0.0-7.0-1.43","12","null","","","","Images/BlackBeadChoiceMM.png","null"
"image-keyboard-response","759","431901","0.0-7.0-2.43","12","null","","","","Images/BlackBeadChoiceCorrectMM.png","null"
"image-keyboard-response","760","431940","0.0-7.0-0.44","12","37.07000007852912","","","","Images/NewTrialBCMM.png","37"
"image-keyboard-response","761","432200","0.0-7.0-1.44","12","null","","","","Images/BlackBeadChoiceMM.png","null"
"image-keyboard-response","762","432709","0.0-7.0-2.44","12","null","","","","Images/BlackBeadChoiceCorrectMM.png","null"
"image-keyboard-response","763","432771","0.0-7.0-0.45","12","59.87500003539026","","","","Images/NewTrialBCMM.png","37"
"image-keyboard-response","764","433029","0.0-7.0-1.45","12","null","","","","Images/BlackBeadChoiceMM.png","null"
"image-keyboard-response","765","433538","0.0-7.0-2.45","12","null","","","","Images/BlackBeadChoiceCorrectMM.png","null"
"image-keyboard-response","766","433694","0.0-7.0-0.46","12","154.6400000806898","","","","Images/NewTrialBCMM.png","37"
"image-keyboard-response","767","433947","0.0-7.0-1.46","12","null","","","","Images/BlackBeadChoiceMM.png","null"
"image-keyboard-response","768","434461","0.0-7.0-2.46","12","null","","","","Images/BlackBeadChoiceCorrectMM.png","null"
"image-keyboard-response","769","434530","0.0-7.0-0.47","12","66.12999993376434","","","","Images/NewTrialBCMM.png","37"
"image-keyboard-response","770","434789","0.0-7.0-1.47","12","null","","","","Images/BlackBeadChoiceMM.png","null"
"image-keyboard-response","771","435295","0.0-7.0-2.47","12","null","","","","Images/BlackBeadChoiceCorrectMM.png","null"
"image-keyboard-response","772","435416","0.0-7.0-0.48","12","119.08500012941658","","","","Images/NewTrialBCMM.png","37"
"image-keyboard-response","773","435682","0.0-7.0-1.48","12","null","","","","Images/BlackBeadChoiceMM.png","null"
"image-keyboard-response","774","436190","0.0-7.0-2.48","12","null","","","","Images/BlackBeadChoiceCorrectMM.png","null"
"image-keyboard-response","775","436323","0.0-7.0-0.49","12","130.52000012248755","","","","Images/NewTrialBCMM.png","37"
"image-keyboard-response","776","436585","0.0-7.0-1.49","12","null","","","","Images/BlackBeadChoiceMM.png","null"
"image-keyboard-response","777","437096","0.0-7.0-2.49","12","null","","","","Images/BlackBeadChoiceCorrectMM.png","null"
"image-keyboard-response","778","437154","0.0-7.0-0.50","12","55.00499997287989","","","","Images/NewTrialBCMM.png","37"
"image-keyboard-response","779","437422","0.0-7.0-1.50","12","null","","","","Images/BlackBeadChoiceMM.png","null"
"image-keyboard-response","780","437934","0.0-7.0-2.50","12","null","","","","Images/BlackBeadChoiceCorrectMM.png","null"
"image-keyboard-response","781","437946","0.0-7.0-0.51","12","9.914999827742577","","","","Images/NewTrialBCMM.png","37"
"image-keyboard-response","782","438211","0.0-7.0-1.51","12","null","","","","Images/BlackBeadChoiceMM.png","null"
"image-keyboard-response","783","438728","0.0-7.0-2.51","12","null","","","","Images/BlackBeadChoiceCorrectMM.png","null"
"image-keyboard-response","784","438790","0.0-7.0-0.52","12","59.984999941661954","","","","Images/NewTrialBCMM.png","37"
"image-keyboard-response","785","439057","0.0-7.0-1.52","12","null","","","","Images/BlackBeadChoiceMM.png","null"
"image-keyboard-response","786","439560","0.0-7.0-2.52","12","null","","","","Images/BlackBeadChoiceCorrectMM.png","null"
"image-keyboard-response","787","439581","0.0-7.0-0.53","12","18.725000089034438","","","","Images/NewTrialBCMM.png","37"
"image-keyboard-response","788","439845","0.0-7.0-1.53","12","null","","","","Images/BlackBeadChoiceMM.png","null"
"image-keyboard-response","789","440355","0.0-7.0-2.53","12","null","","","","Images/BlackBeadChoiceWrongMM.png","null"
"image-keyboard-response","790","440605","0.0-7.0-0.54","12","247.8899999987334","","","","Images/NewTrialWCMM.png","37"
"image-keyboard-response","791","440877","0.0-7.0-1.54","12","null","","","","Images/BlackBeadChoiceMM.png","null"
"image-keyboard-response","792","441386","0.0-7.0-2.54","12","null","","","","Images/BlackBeadChoiceWrongMM.png","null"
"image-keyboard-response","793","441808","0.0-7.0-0.55","12","419.08499994315207","","","","Images/NewTrialWCMM.png","37"
"image-keyboard-response","794","442075","0.0-7.0-1.55","12","null","","","","Images/BlackBeadChoiceMM.png","null"
"image-keyboard-response","795","442580","0.0-7.0-2.55","12","null","","","","Images/BlackBeadChoiceWrongMM.png","null"
"image-keyboard-response","796","442663","0.0-7.0-0.56","12","80.73000004515052","","","","Images/NewTrialWCMM.png","39"
"image-keyboard-response","797","442922","0.0-7.0-1.56","12","null","","","","Images/WhiteBeadChoiceMM.png","null"
"image-keyboard-response","798","443432","0.0-7.0-2.56","12","null","","","","Images/WhiteBeadChoiceWrongMM.png","null"
"image-keyboard-response","799","443538","0.0-7.0-0.57","12","103.47500001080334","","","","Images/NewTrialBCMM.png","37"
"image-keyboard-response","800","443794","0.0-7.0-1.57","12","null","","","","Images/BlackBeadChoiceMM.png","null"
"image-keyboard-response","801","444303","0.0-7.0-2.57","12","null","","","","Images/BlackBeadChoiceCorrectMM.png","null"
"image-keyboard-response","802","444428","0.0-7.0-0.58","12","122.789999935776","","","","Images/NewTrialBCMM.png","37"
"image-keyboard-response","803","444697","0.0-7.0-1.58","12","null","","","","Images/BlackBeadChoiceMM.png","null"
