"trial_type","trial_index","time_elapsed","internal_node_id","Script_Picker","Block_Type","rt","url","responses","question_order","stimulus","key_press"
"pavlovia","0","8","0.0-0.0","17","Low_HMMActual","","","","","",""
"external-html","1","2863","0.0-1.0-0.0","17","Low_HMMActual","2734.1100000194274","consent.html","","","",""
"survey-multi-choice","2","6880","0.0-1.0-1.0","17","Low_HMMActual","4013.589999987744","","{""Q0"":""Female"",""Q1"":""White""}","[0,1]","",""
"survey-text","3","10543","0.0-1.0-2.0","17","Low_HMMActual","3651.339999982156","","{""Q0"":""39""}","","",""
"survey-text","4","18386","0.0-1.0-3.0","17","Low_HMMActual","7733.40000002645","","{""Q0"":""5e351fbb5aa7004e016178f4""}","","",""
"html-keyboard-response","5","25869","0.0-2.0-0.0","17","Low_HMMActual","7377.195000008214","","","","<div class=""container"" style=""height:800px;width:800px;display:flex;flex-direction:column;justify-content:center;align-items:center;text-align:center;font-weight:normal;font-family:Arial;font-size:20px""><p>In this task you will see black or white beads being pulled from jars. <br><br>On each trial, a bead will be pulled from one of two jars. Once you see this bead, your goal is to predict the color of NEXT bead that will be pulled. <br> <br>Every time you correctly guess the color of the NEXT bead, you will get a point. <br><br>Press the SPACEBAR to continue.</p><div>","32"
"html-keyboard-response","6","31060","0.0-2.0-1.0","17","Low_HMMActual","5189.854999945965","","","","<div class=""container"" style=""height:800px;width:800px;display:flex;flex-direction:column;justify-content:center;align-items:center;text-align:center;font-weight:normal;font-family:Arial;font-size:20px""><p>Jars are filled with 85% white or black beads and 15% of the opposite color mixed in<br><br>Press the SPACEBAR to continue. </p><div>","32"
"image-keyboard-response","7","40860","0.0-2.0-2.0","17","Low_HMMActual","9796.964999986812","","","","resources/WhiteJar_HMM.png","32"
"image-keyboard-response","8","43622","0.0-2.0-3.0","17","Low_HMMActual","2759.230000025127","","","","resources/BlackJar_HMM.png","32"
"html-keyboard-response","9","46451","0.0-2.0-4.0","17","Low_HMMActual","2828.240000002552","","","","<div class=""container"" style=""height:800px;width:800px;display:flex;flex-direction:column;justify-content:center;align-items:center;text-align:center;font-weight:normal;font-family:Arial;font-size:20px""><p>There will be two blocks of trials. Each block will contain 500 trials. <br><br>Here are examples of what you will see on each trial.<br><br>Press the SPACEBAR to continue. </p><div>","32"
"image-keyboard-response","10","49802","0.0-2.0-5.0","17","Low_HMMActual","3349.3149999994785","","","","Images/NoChoice.png","32"
"html-keyboard-response","11","56457","0.0-2.0-6.0","17","Low_HMMActual","6653.905000013765","","","","<div class=""container"" style=""height:800px;width:800px;display:flex;flex-direction:column;justify-content:center;align-items:center;text-align:center;font-weight:normal;font-family:Arial;font-size:20px""><p> The jar the beads are pulled from is NOT choosen at random on each trial.<br><br>After each prediction, there will be a chance that the jars will switch, and that the next bead will be pulled from the opposite jar as the previous trial.<br><br>In each block, the chance that a jar will switch will either be LOW (the jars will not switch very often), or HIGH (the jars will switch almost all the time).<br><br>At the start of each block, you will be told the probability that the jars will switch on each trial. This switch probability will stay constant throughout the block.<br><br>Press the SPACEBAR to continue. </p><div>","32"
"image-keyboard-response","12","58606","0.0-2.0-7.0","17","Low_HMMActual","2148.0099999462254","","","","Images/TutorialWhiteJarDrawHMMC.png","32"
"image-keyboard-response","13","62505","0.0-2.0-8.0","17","Low_HMMActual","3898.079999955371","","","","Images/TutorialBlackJarDrawHMMC.png","32"
"image-keyboard-response","14","70866","0.0-2.0-9.0","17","Low_HMMActual","8359.140000015032","","","","Images/TutorialBlackJarDrawHMMI.png","32"
"html-keyboard-response","15","78435","0.0-2.0-10.0","17","Low_HMMActual","7567.665000038687","","","","<div class=""container"" style=""height:800px;width:800px;display:flex;flex-direction:column;justify-content:center;align-items:center;text-align:center;font-weight:normal;font-family:Arial;font-size:20px""><p> As you observed, a white bead was pulled from a 85% white jar, the jars switched and a black bead was pulled from the 85% black jar, but then low-probability white bead was pulled from the 90% black jar. <br><br>In these mixed-jar blocks, you will first have to figure out which jar the current bead was pulled from, then use the jar switch probability to predict the color of the next bead.<br><br>Press SPACEBAR to conitnue.</p><div>","32"
"html-keyboard-response","16","80854","0.0-2.0-11.0","17","Low_HMMActual","2418.530000024475","","","","<div class=""container"" style=""height:800px;width:800px;display:flex;flex-direction:column;justify-content:center;align-items:center;text-align:center;font-weight:normal;font-family:Arial;font-size:20px""><p> You will now be given a 2 question quiz to make sure you understand the fundamentals. </p><div>","32"
"image-keyboard-response","17","93167","0.0-2.0-12.0","17","Low_HMMActual","12311.054999998305","","","","Images/TutorialQuestion1.png","39"
"image-keyboard-response","18","98617","0.0-2.0-13.0","17","Low_HMMActual","3352.264999994077","","","","Images/TutorialQuestion2.png","38"
"html-keyboard-response","19","112598","0.0-3.0","17","Low_HMMActual","12580.870000005234","","","","<div class=""container"" style=""height:800px;width:800px;display:flex;flex-direction:column;justify-content:center;align-items:center;text-align:center;font-weight:normal;font-family:Arial;font-size:20px""><p>Loading episode&hellip;</p><div>","32"
"image-keyboard-response","20","116395","0.0-4.0-0.0","17","Low_HMMActual","3793.839999998454","","","","Images/NoChoice.png","37"
"image-keyboard-response","21","116648","0.0-4.0-1.0","17","Low_HMMActual","null","","","","Images/BlackBeadChoice.png","null"
"image-keyboard-response","22","117149","0.0-4.0-2.0","17","Low_HMMActual","null","","","","Images/BlackBeadChoiceWrong.png","null"
"image-keyboard-response","23","120951","0.0-4.0-0.1","17","Low_HMMActual","3799.8150000348687","","","","Images/NewTrialWC.png","39"
"image-keyboard-response","24","121204","0.0-4.0-1.1","17","Low_HMMActual","null","","","","Images/WhiteBeadChoice.png","null"
"image-keyboard-response","25","121705","0.0-4.0-2.1","17","Low_HMMActual","null","","","","Images/WhiteBeadChoiceCorrect.png","null"
"image-keyboard-response","26","123666","0.0-4.0-0.2","17","Low_HMMActual","1959.7100000246428","","","","Images/NewTrialWC.png","39"
"image-keyboard-response","27","123918","0.0-4.0-1.2","17","Low_HMMActual","null","","","","Images/WhiteBeadChoice.png","null"
"image-keyboard-response","28","124419","0.0-4.0-2.2","17","Low_HMMActual","null","","","","Images/WhiteBeadChoiceCorrect.png","null"
"image-keyboard-response","29","125812","0.0-4.0-0.3","17","Low_HMMActual","1391.5300000226125","","","","Images/NewTrialWC.png","39"
"image-keyboard-response","30","126066","0.0-4.0-1.3","17","Low_HMMActual","null","","","","Images/WhiteBeadChoice.png","null"
"image-keyboard-response","31","126567","0.0-4.0-2.3","17","Low_HMMActual","null","","","","Images/WhiteBeadChoiceCorrect.png","null"
"image-keyboard-response","32","127216","0.0-4.0-0.4","17","Low_HMMActual","648.1750000384636","","","","Images/NewTrialWC.png","39"
"image-keyboard-response","33","127468","0.0-4.0-1.4","17","Low_HMMActual","null","","","","Images/WhiteBeadChoice.png","null"
"image-keyboard-response","34","127970","0.0-4.0-2.4","17","Low_HMMActual","null","","","","Images/WhiteBeadChoiceWrong.png","null"
"image-keyboard-response","35","129765","0.0-4.0-0.5","17","Low_HMMActual","1792.119999998249","","","","Images/NewTrialBC.png","37"
"image-keyboard-response","36","130017","0.0-4.0-1.5","17","Low_HMMActual","null","","","","Images/BlackBeadChoice.png","null"
"image-keyboard-response","37","130519","0.0-4.0-2.5","17","Low_HMMActual","null","","","","Images/BlackBeadChoiceWrong.png","null"
"image-keyboard-response","38","132454","0.0-4.0-0.6","17","Low_HMMActual","1932.7599999960512","","","","Images/NewTrialWC.png","39"
"image-keyboard-response","39","132706","0.0-4.0-1.6","17","Low_HMMActual","null","","","","Images/WhiteBeadChoice.png","null"
"image-keyboard-response","40","133210","0.0-4.0-2.6","17","Low_HMMActual","null","","","","Images/WhiteBeadChoiceCorrect.png","null"
"image-keyboard-response","41","134120","0.0-4.0-0.7","17","Low_HMMActual","908.8599999668077","","","","Images/NewTrialWC.png","39"
"image-keyboard-response","42","134372","0.0-4.0-1.7","17","Low_HMMActual","null","","","","Images/WhiteBeadChoice.png","null"
"image-keyboard-response","43","134876","0.0-4.0-2.7","17","Low_HMMActual","null","","","","Images/WhiteBeadChoiceCorrect.png","null"
"image-keyboard-response","44","135196","0.0-4.0-0.8","17","Low_HMMActual","318.8899999950081","","","","Images/NewTrialWC.png","39"
"image-keyboard-response","45","135448","0.0-4.0-1.8","17","Low_HMMActual","null","","","","Images/WhiteBeadChoice.png","null"
"image-keyboard-response","46","135950","0.0-4.0-2.8","17","Low_HMMActual","null","","","","Images/WhiteBeadChoiceCorrect.png","null"
"image-keyboard-response","47","136374","0.0-4.0-0.9","17","Low_HMMActual","423.3799999929033","","","","Images/NewTrialWC.png","39"
"image-keyboard-response","48","136627","0.0-4.0-1.9","17","Low_HMMActual","null","","","","Images/WhiteBeadChoice.png","null"
"image-keyboard-response","49","137129","0.0-4.0-2.9","17","Low_HMMActual","null","","","","Images/WhiteBeadChoiceWrong.png","null"
"image-keyboard-response","50","137425","0.0-4.0-0.10","17","Low_HMMActual","294.60500000277534","","","","Images/NewTrialBC.png","37"
"image-keyboard-response","51","137679","0.0-4.0-1.10","17","Low_HMMActual","null","","","","Images/BlackBeadChoice.png","null"
"image-keyboard-response","52","138181","0.0-4.0-2.10","17","Low_HMMActual","null","","","","Images/BlackBeadChoiceWrong.png","null"
"image-keyboard-response","53","138928","0.0-4.0-0.11","17","Low_HMMActual","746.1100000073202","","","","Images/NewTrialWC.png","39"
"image-keyboard-response","54","139181","0.0-4.0-1.11","17","Low_HMMActual","null","","","","Images/WhiteBeadChoice.png","null"
"image-keyboard-response","55","139684","0.0-4.0-2.11","17","Low_HMMActual","null","","","","Images/WhiteBeadChoiceWrong.png","null"
"image-keyboard-response","56","140039","0.0-4.0-0.12","17","Low_HMMActual","353.1550000188872","","","","Images/NewTrialBC.png","37"
"image-keyboard-response","57","140294","0.0-4.0-1.12","17","Low_HMMActual","null","","","","Images/BlackBeadChoice.png","null"
"image-keyboard-response","58","140796","0.0-4.0-2.12","17","Low_HMMActual","null","","","","Images/BlackBeadChoiceCorrect.png","null"
"image-keyboard-response","59","141470","0.0-4.0-0.13","17","Low_HMMActual","664.2199999769218","","","","Images/NewTrialBC.png","37"
"image-keyboard-response","60","141721","0.0-4.0-1.13","17","Low_HMMActual","null","","","","Images/BlackBeadChoice.png","null"
"image-keyboard-response","61","142224","0.0-4.0-2.13","17","Low_HMMActual","null","","","","Images/BlackBeadChoiceCorrect.png","null"
"image-keyboard-response","62","142564","0.0-4.0-0.14","17","Low_HMMActual","337.13499997975305","","","","Images/NewTrialBC.png","37"
"image-keyboard-response","63","142818","0.0-4.0-1.14","17","Low_HMMActual","null","","","","Images/BlackBeadChoice.png","null"
"image-keyboard-response","64","143323","0.0-4.0-2.14","17","Low_HMMActual","null","","","","Images/BlackBeadChoiceWrong.png","null"
"image-keyboard-response","65","143472","0.0-4.0-0.15","17","Low_HMMActual","147.6799999945797","","","","Images/NewTrialWC.png","39"
"image-keyboard-response","66","143724","0.0-4.0-1.15","17","Low_HMMActual","null","","","","Images/WhiteBeadChoice.png","null"
"image-keyboard-response","67","144229","0.0-4.0-2.15","17","Low_HMMActual","null","","","","Images/WhiteBeadChoiceWrong.png","null"
"image-keyboard-response","68","144403","0.0-4.0-0.16","17","Low_HMMActual","173.09500003466383","","","","Images/NewTrialBC.png","37"
"image-keyboard-response","69","144658","0.0-4.0-1.16","17","Low_HMMActual","null","","","","Images/BlackBeadChoice.png","null"
"image-keyboard-response","70","145161","0.0-4.0-2.16","17","Low_HMMActual","null","","","","Images/BlackBeadChoiceCorrect.png","null"
"image-keyboard-response","71","145208","0.0-4.0-0.17","17","Low_HMMActual","44.77999999653548","","","","Images/NewTrialBC.png","37"
"image-keyboard-response","72","145462","0.0-4.0-1.17","17","Low_HMMActual","null","","","","Images/BlackBeadChoice.png","null"
"image-keyboard-response","73","145967","0.0-4.0-2.17","17","Low_HMMActual","479.49499997776","","","","Images/BlackBeadChoiceCorrect.png","37"
"image-keyboard-response","74","146607","0.0-4.0-0.18","17","Low_HMMActual","639.1150000272319","","","","Images/NewTrialBC.png","37"
"image-keyboard-response","75","146860","0.0-4.0-1.18","17","Low_HMMActual","null","","","","Images/BlackBeadChoice.png","null"
"image-keyboard-response","76","147362","0.0-4.0-2.18","17","Low_HMMActual","null","","","","Images/BlackBeadChoiceCorrect.png","null"
"image-keyboard-response","77","147398","0.0-4.0-0.19","17","Low_HMMActual","35.03999998793006","","","","Images/NewTrialBC.png","37"
"image-keyboard-response","78","147650","0.0-4.0-1.19","17","Low_HMMActual","null","","","","Images/BlackBeadChoice.png","null"
"image-keyboard-response","79","148153","0.0-4.0-2.19","17","Low_HMMActual","null","","","","Images/BlackBeadChoiceCorrect.png","null"
"image-keyboard-response","80","148176","0.0-4.0-0.20","17","Low_HMMActual","21.810000005643815","","","","Images/NewTrialBC.png","37"
"image-keyboard-response","81","148429","0.0-4.0-1.20","17","Low_HMMActual","null","","","","Images/BlackBeadChoice.png","null"
"image-keyboard-response","82","148930","0.0-4.0-2.20","17","Low_HMMActual","471.5699999942444","","","","Images/BlackBeadChoiceCorrect.png","37"
"image-keyboard-response","83","149507","0.0-4.0-0.21","17","Low_HMMActual","575.8500000229105","","","","Images/NewTrialBC.png","37"
"image-keyboard-response","84","149762","0.0-4.0-1.21","17","Low_HMMActual","null","","","","Images/BlackBeadChoice.png","null"
"image-keyboard-response","85","150265","0.0-4.0-2.21","17","Low_HMMActual","null","","","","Images/BlackBeadChoiceWrong.png","null"
"image-keyboard-response","86","150421","0.0-4.0-0.22","17","Low_HMMActual","154.84999999171123","","","","Images/NewTrialWC.png","39"
"image-keyboard-response","87","150672","0.0-4.0-1.22","17","Low_HMMActual","null","","","","Images/WhiteBeadChoice.png","null"
"image-keyboard-response","88","151175","0.0-4.0-2.22","17","Low_HMMActual","null","","","","Images/WhiteBeadChoiceWrong.png","null"
"image-keyboard-response","89","151442","0.0-4.0-0.23","17","Low_HMMActual","265.7650000182912","","","","Images/NewTrialBC.png","37"
"image-keyboard-response","90","151693","0.0-4.0-1.23","17","Low_HMMActual","null","","","","Images/BlackBeadChoice.png","null"
"image-keyboard-response","91","152194","0.0-4.0-2.23","17","Low_HMMActual","null","","","","Images/BlackBeadChoiceWrong.png","null"
"image-keyboard-response","92","152308","0.0-4.0-0.24","17","Low_HMMActual","112.39999998360872","","","","Images/NewTrialWC.png","39"
"image-keyboard-response","93","152560","0.0-4.0-1.24","17","Low_HMMActual","null","","","","Images/WhiteBeadChoice.png","null"
"image-keyboard-response","94","153063","0.0-4.0-2.24","17","Low_HMMActual","null","","","","Images/WhiteBeadChoiceCorrect.png","null"
"image-keyboard-response","95","153266","0.0-4.0-0.25","17","Low_HMMActual","201.52499998221174","","","","Images/NewTrialWC.png","39"
"image-keyboard-response","96","153518","0.0-4.0-1.25","17","Low_HMMActual","null","","","","Images/WhiteBeadChoice.png","null"
"image-keyboard-response","97","154025","0.0-4.0-2.25","17","Low_HMMActual","null","","","","Images/WhiteBeadChoiceWrong.png","null"
"image-keyboard-response","98","154172","0.0-4.0-0.26","17","Low_HMMActual","141.9400000013411","","","","Images/NewTrialBC.png","37"
"image-keyboard-response","99","154423","0.0-4.0-1.26","17","Low_HMMActual","null","","","","Images/BlackBeadChoice.png","null"
"image-keyboard-response","100","154929","0.0-4.0-2.26","17","Low_HMMActual","null","","","","Images/BlackBeadChoiceCorrect.png","null"
"image-keyboard-response","101","155099","0.0-4.0-0.27","17","Low_HMMActual","168.08000003220513","","","","Images/NewTrialBC.png","37"
"image-keyboard-response","102","155353","0.0-4.0-1.27","17","Low_HMMActual","null","","","","Images/BlackBeadChoice.png","null"
"image-keyboard-response","103","155859","0.0-4.0-2.27","17","Low_HMMActual","null","","","","Images/BlackBeadChoiceCorrect.png","null"
"image-keyboard-response","104","155920","0.0-4.0-0.28","17","Low_HMMActual","57.52500001108274","","","","Images/NewTrialBC.png","37"
"image-keyboard-response","105","156177","0.0-4.0-1.28","17","Low_HMMActual","null","","","","Images/BlackBeadChoice.png","null"
"image-keyboard-response","106","156680","0.0-4.0-2.28","17","Low_HMMActual","null","","","","Images/BlackBeadChoiceCorrect.png","null"
"image-keyboard-response","107","156974","0.0-4.0-0.29","17","Low_HMMActual","292.029999953229","","","","Images/NewTrialBC.png","37"
"image-keyboard-response","108","157232","0.0-4.0-1.29","17","Low_HMMActual","null","","","","Images/BlackBeadChoice.png","null"
"image-keyboard-response","109","157734","0.0-4.0-2.29","17","Low_HMMActual","null","","","","Images/BlackBeadChoiceCorrect.png","null"
"image-keyboard-response","110","157772","0.0-4.0-0.30","17","Low_HMMActual","36.20000003138557","","","","Images/NewTrialBC.png","37"
"image-keyboard-response","111","158028","0.0-4.0-1.30","17","Low_HMMActual","null","","","","Images/BlackBeadChoice.png","null"
"image-keyboard-response","112","158531","0.0-4.0-2.30","17","Low_HMMActual","null","","","","Images/BlackBeadChoiceCorrect.png","null"
"image-keyboard-response","113","158582","0.0-4.0-0.31","17","Low_HMMActual","48.04500000318512","","","","Images/NewTrialBC.png","37"
"image-keyboard-response","114","158835","0.0-4.0-1.31","17","Low_HMMActual","null","","","","Images/BlackBeadChoice.png","null"
"image-keyboard-response","115","159342","0.0-4.0-2.31","17","Low_HMMActual","null","","","","Images/BlackBeadChoiceCorrect.png","null"
"image-keyboard-response","116","159537","0.0-4.0-0.32","17","Low_HMMActual","193.39500000933185","","","","Images/NewTrialBC.png","37"
"image-keyboard-response","117","159792","0.0-4.0-1.32","17","Low_HMMActual","null","","","","Images/BlackBeadChoice.png","null"
"image-keyboard-response","118","160295","0.0-4.0-2.32","17","Low_HMMActual","null","","","","Images/BlackBeadChoiceWrong.png","null"
"image-keyboard-response","119","160396","0.0-4.0-0.33","17","Low_HMMActual","98.54499995708466","","","","Images/NewTrialWC.png","39"
"image-keyboard-response","120","160649","0.0-4.0-1.33","17","Low_HMMActual","null","","","","Images/WhiteBeadChoice.png","null"
"image-keyboard-response","121","161152","0.0-4.0-2.33","17","Low_HMMActual","null","","","","Images/WhiteBeadChoiceWrong.png","null"
"image-keyboard-response","122","161242","0.0-4.0-0.34","17","Low_HMMActual","88.02500000456348","","","","Images/NewTrialBC.png","37"
"image-keyboard-response","123","161497","0.0-4.0-1.34","17","Low_HMMActual","null","","","","Images/BlackBeadChoice.png","null"
"image-keyboard-response","124","162002","0.0-4.0-2.34","17","Low_HMMActual","null","","","","Images/BlackBeadChoiceWrong.png","null"
"image-keyboard-response","125","162085","0.0-4.0-0.35","17","Low_HMMActual","81.59999997587875","","","","Images/NewTrialWC.png","39"
"image-keyboard-response","126","162341","0.0-4.0-1.35","17","Low_HMMActual","null","","","","Images/WhiteBeadChoice.png","null"
"image-keyboard-response","127","162848","0.0-4.0-2.35","17","Low_HMMActual","null","","","","Images/WhiteBeadChoiceWrong.png","null"
"image-keyboard-response","128","162908","0.0-4.0-0.36","17","Low_HMMActual","53.565000009257346","","","","Images/NewTrialBC.png","37"
"image-keyboard-response","129","163159","0.0-4.0-1.36","17","Low_HMMActual","null","","","","Images/BlackBeadChoice.png","null"
"image-keyboard-response","130","163666","0.0-4.0-2.36","17","Low_HMMActual","null","","","","Images/BlackBeadChoiceCorrect.png","null"
"image-keyboard-response","131","163697","0.0-4.0-0.37","17","Low_HMMActual","29.125000000931323","","","","Images/NewTrialBC.png","37"
"image-keyboard-response","132","163953","0.0-4.0-1.37","17","Low_HMMActual","null","","","","Images/BlackBeadChoice.png","null"
"image-keyboard-response","133","164460","0.0-4.0-2.37","17","Low_HMMActual","null","","","","Images/BlackBeadChoiceCorrect.png","null"
"image-keyboard-response","134","164551","0.0-4.0-0.38","17","Low_HMMActual","85.88999998755753","","","","Images/NewTrialBC.png","37"
"image-keyboard-response","135","164804","0.0-4.0-1.38","17","Low_HMMActual","null","","","","Images/BlackBeadChoice.png","null"
"image-keyboard-response","136","165308","0.0-4.0-2.38","17","Low_HMMActual","null","","","","Images/BlackBeadChoiceCorrect.png","null"
"image-keyboard-response","137","165377","0.0-4.0-0.39","17","Low_HMMActual","67.46499997097999","","","","Images/NewTrialBC.png","37"
"image-keyboard-response","138","165630","0.0-4.0-1.39","17","Low_HMMActual","null","","","","Images/BlackBeadChoice.png","null"
"image-keyboard-response","139","166135","0.0-4.0-2.39","17","Low_HMMActual","null","","","","Images/BlackBeadChoiceCorrect.png","null"
"image-keyboard-response","140","166178","0.0-4.0-0.40","17","Low_HMMActual","22.200000006705523","","","","Images/NewTrialBC.png","37"
"image-keyboard-response","141","166432","0.0-4.0-1.40","17","Low_HMMActual","null","","","","Images/BlackBeadChoice.png","null"
"image-keyboard-response","142","166936","0.0-4.0-2.40","17","Low_HMMActual","null","","","","Images/BlackBeadChoiceCorrect.png","null"
"image-keyboard-response","143","166944","0.0-4.0-0.41","17","Low_HMMActual","6.2550000147894025","","","","Images/NewTrialBC.png","37"
"image-keyboard-response","144","167201","0.0-4.0-1.41","17","Low_HMMActual","null","","","","Images/BlackBeadChoice.png","null"
"image-keyboard-response","145","167706","0.0-4.0-2.41","17","Low_HMMActual","null","","","","Images/BlackBeadChoiceCorrect.png","null"
"image-keyboard-response","146","167838","0.0-4.0-0.42","17","Low_HMMActual","128.97999997949228","","","","Images/NewTrialBC.png","37"
"image-keyboard-response","147","168092","0.0-4.0-1.42","17","Low_HMMActual","null","","","","Images/BlackBeadChoice.png","null"
"image-keyboard-response","148","168595","0.0-4.0-2.42","17","Low_HMMActual","null","","","","Images/BlackBeadChoiceCorrect.png","null"
"image-keyboard-response","149","168694","0.0-4.0-0.43","17","Low_HMMActual","97.85999997984618","","","","Images/NewTrialBC.png","37"
"image-keyboard-response","150","168947","0.0-4.0-1.43","17","Low_HMMActual","null","","","","Images/BlackBeadChoice.png","null"
"image-keyboard-response","151","169450","0.0-4.0-2.43","17","Low_HMMActual","null","","","","Images/BlackBeadChoiceCorrect.png","null"
"image-keyboard-response","152","169834","0.0-4.0-0.44","17","Low_HMMActual","382.17999995686114","","","","Images/NewTrialBC.png","37"
"image-keyboard-response","153","170090","0.0-4.0-1.44","17","Low_HMMActual","null","","","","Images/BlackBeadChoice.png","null"
"image-keyboard-response","154","170592","0.0-4.0-2.44","17","Low_HMMActual","null","","","","Images/BlackBeadChoiceCorrect.png","null"
"image-keyboard-response","155","170669","0.0-4.0-0.45","17","Low_HMMActual","75.63000003574416","","","","Images/NewTrialBC.png","37"
"image-keyboard-response","156","170924","0.0-4.0-1.45","17","Low_HMMActual","null","","","","Images/BlackBeadChoice.png","null"
"image-keyboard-response","157","171430","0.0-4.0-2.45","17","Low_HMMActual","null","","","","Images/BlackBeadChoiceWrong.png","null"
"image-keyboard-response","158","171459","0.0-4.0-0.46","17","Low_HMMActual","27.16499997768551","","","","Images/NewTrialWC.png","39"
"image-keyboard-response","159","171711","0.0-4.0-1.46","17","Low_HMMActual","null","","","","Images/WhiteBeadChoice.png","null"
"image-keyboard-response","160","172218","0.0-4.0-2.46","17","Low_HMMActual","null","","","","Images/WhiteBeadChoiceWrong.png","null"
"image-keyboard-response","161","172228","0.0-4.0-0.47","17","Low_HMMActual","7.829999958630651","","","","Images/NewTrialBC.png","37"
"image-keyboard-response","162","172480","0.0-4.0-1.47","17","Low_HMMActual","null","","","","Images/BlackBeadChoice.png","null"
"image-keyboard-response","163","172986","0.0-4.0-2.47","17","Low_HMMActual","null","","","","Images/BlackBeadChoiceCorrect.png","null"
"image-keyboard-response","164","173111","0.0-4.0-0.48","17","Low_HMMActual","124.19000000227243","","","","Images/NewTrialBC.png","37"
"image-keyboard-response","165","173366","0.0-4.0-1.48","17","Low_HMMActual","null","","","","Images/BlackBeadChoice.png","null"
"image-keyboard-response","166","173872","0.0-4.0-2.48","17","Low_HMMActual","null","","","","Images/BlackBeadChoiceCorrect.png","null"
"image-keyboard-response","167","174072","0.0-4.0-0.49","17","Low_HMMActual","198.3800000161864","","","","Images/NewTrialBC.png","37"
"image-keyboard-response","168","174327","0.0-4.0-1.49","17","Low_HMMActual","null","","","","Images/BlackBeadChoice.png","null"
"image-keyboard-response","169","174833","0.0-4.0-2.49","17","Low_HMMActual","null","","","","Images/BlackBeadChoiceWrong.png","null"
"image-keyboard-response","170","175007","0.0-4.0-0.50","17","Low_HMMActual","171.5599999879487","","","","Images/NewTrialWC.png","39"
"image-keyboard-response","171","175262","0.0-4.0-1.50","17","Low_HMMActual","null","","","","Images/WhiteBeadChoice.png","null"
"image-keyboard-response","172","175764","0.0-4.0-2.50","17","Low_HMMActual","null","","","","Images/WhiteBeadChoiceWrong.png","null"
"image-keyboard-response","173","175803","0.0-4.0-0.51","17","Low_HMMActual","36.72999999253079","","","","Images/NewTrialBC.png","37"
"image-keyboard-response","174","176059","0.0-4.0-1.51","17","Low_HMMActual","null","","","","Images/BlackBeadChoice.png","null"
"image-keyboard-response","175","176562","0.0-4.0-2.51","17","Low_HMMActual","null","","","","Images/BlackBeadChoiceWrong.png","null"
"image-keyboard-response","176","176610","0.0-4.0-0.52","17","Low_HMMActual","45.799999963492155","","","","Images/NewTrialWC.png","39"
"image-keyboard-response","177","176869","0.0-4.0-1.52","17","Low_HMMActual","null","","","","Images/WhiteBeadChoice.png","null"
"image-keyboard-response","178","177376","0.0-4.0-2.52","17","Low_HMMActual","null","","","","Images/WhiteBeadChoiceCorrect.png","null"
"image-keyboard-response","179","177401","0.0-4.0-0.53","17","Low_HMMActual","23.58999999705702","","","","Images/NewTrialWC.png","39"
"image-keyboard-response","180","177656","0.0-4.0-1.53","17","Low_HMMActual","null","","","","Images/WhiteBeadChoice.png","null"
"image-keyboard-response","181","178161","0.0-4.0-2.53","17","Low_HMMActual","466.7500000214204","","","","Images/WhiteBeadChoiceCorrect.png","39"
"image-keyboard-response","182","179202","0.0-4.0-0.54","17","Low_HMMActual","1040.0499999523163","","","","Images/NewTrialWC.png","39"
"image-keyboard-response","183","179455","0.0-4.0-1.54","17","Low_HMMActual","null","","","","Images/WhiteBeadChoice.png","null"
"image-keyboard-response","184","179959","0.0-4.0-2.54","17","Low_HMMActual","null","","","","Images/WhiteBeadChoiceWrong.png","null"
"image-keyboard-response","185","179978","0.0-4.0-0.55","17","Low_HMMActual","17.125000013038516","","","","Images/NewTrialBC.png","37"
"image-keyboard-response","186","180230","0.0-4.0-1.55","17","Low_HMMActual","null","","","","Images/BlackBeadChoice.png","null"
"image-keyboard-response","187","180732","0.0-4.0-2.55","17","Low_HMMActual","null","","","","Images/BlackBeadChoiceWrong.png","null"
"image-keyboard-response","188","180777","0.0-4.0-0.56","17","Low_HMMActual","42.639999999664724","","","","Images/NewTrialWC.png","39"
"image-keyboard-response","189","181030","0.0-4.0-1.56","17","Low_HMMActual","null","","","","Images/WhiteBeadChoice.png","null"
"image-keyboard-response","190","181532","0.0-4.0-2.56","17","Low_HMMActual","null","","","","Images/WhiteBeadChoiceCorrect.png","null"
"image-keyboard-response","191","181675","0.0-4.0-0.57","17","Low_HMMActual","141.4249999797903","","","","Images/NewTrialWC.png","39"
"image-keyboard-response","192","181930","0.0-4.0-1.57","17","Low_HMMActual","null","","","","Images/WhiteBeadChoice.png","null"
"image-keyboard-response","193","182432","0.0-4.0-2.57","17","Low_HMMActual","null","","","","Images/WhiteBeadChoiceCorrect.png","null"
"image-keyboard-response","194","182472","0.0-4.0-0.58","17","Low_HMMActual","38.75000000698492","","","","Images/NewTrialWC.png","39"
"image-keyboard-response","195","182724","0.0-4.0-1.58","17","Low_HMMActual","null","","","","Images/WhiteBeadChoice.png","null"
"image-keyboard-response","196","183228","0.0-4.0-2.58","17","Low_HMMActual","null","","","","Images/WhiteBeadChoiceWrong.png","null"
"image-keyboard-response","197","183290","0.0-4.0-0.59","17","Low_HMMActual","59.93499996839091","","","","Images/NewTrialBC.png","37"
"image-keyboard-response","198","183544","0.0-4.0-1.59","17","Low_HMMActual","null","","","","Images/BlackBeadChoice.png","null"
"image-keyboard-response","199","184046","0.0-4.0-2.59","17","Low_HMMActual","null","","","","Images/BlackBeadChoiceWrong.png","null"
"image-keyboard-response","200","184314","0.0-4.0-0.60","17","Low_HMMActual","266.06999995419756","","","","Images/NewTrialWC.png","39"
"image-keyboard-response","201","184566","0.0-4.0-1.60","17","Low_HMMActual","null","","","","Images/WhiteBeadChoice.png","null"
"image-keyboard-response","202","185071","0.0-4.0-2.60","17","Low_HMMActual","null","","","","Images/WhiteBeadChoiceWrong.png","null"
"image-keyboard-response","203","185075","0.0-4.0-0.61","17","Low_HMMActual","2.035000012256205","","","","Images/NewTrialBC.png","37"
"image-keyboard-response","204","185330","0.0-4.0-1.61","17","Low_HMMActual","null","","","","Images/BlackBeadChoice.png","null"
"image-keyboard-response","205","185836","0.0-4.0-2.61","17","Low_HMMActual","null","","","","Images/BlackBeadChoiceWrong.png","null"
"image-keyboard-response","206","185947","0.0-4.0-0.62","17","Low_HMMActual","108.64999995101243","","","","Images/NewTrialWC.png","39"
"image-keyboard-response","207","186203","0.0-4.0-1.62","17","Low_HMMActual","null","","","","Images/WhiteBeadChoice.png","null"
"image-keyboard-response","208","186706","0.0-4.0-2.62","17","Low_HMMActual","null","","","","Images/WhiteBeadChoiceWrong.png","null"
"image-keyboard-response","209","186762","0.0-4.0-0.63","17","Low_HMMActual","53.50999999791384","","","","Images/NewTrialBC.png","37"
"image-keyboard-response","210","187018","0.0-4.0-1.63","17","Low_HMMActual","null","","","","Images/BlackBeadChoice.png","null"
"image-keyboard-response","211","187523","0.0-4.0-2.63","17","Low_HMMActual","401.00499999243766","","","","Images/BlackBeadChoiceCorrect.png","37"
"image-keyboard-response","212","188200","0.0-4.0-0.64","17","Low_HMMActual","675.3449999960139","","","","Images/NewTrialBC.png","37"
"image-keyboard-response","213","188457","0.0-4.0-1.64","17","Low_HMMActual","null","","","","Images/BlackBeadChoice.png","null"
"image-keyboard-response","214","188958","0.0-4.0-2.64","17","Low_HMMActual","null","","","","Images/BlackBeadChoiceCorrect.png","null"
"image-keyboard-response","215","188994","0.0-4.0-0.65","17","Low_HMMActual","34.099999989848584","","","","Images/NewTrialBC.png","37"
"image-keyboard-response","216","189250","0.0-4.0-1.65","17","Low_HMMActual","null","","","","Images/BlackBeadChoice.png","null"
"image-keyboard-response","217","189757","0.0-4.0-2.65","17","Low_HMMActual","null","","","","Images/BlackBeadChoiceCorrect.png","null"
"image-keyboard-response","218","189784","0.0-4.0-0.66","17","Low_HMMActual","25.22999997017905","","","","Images/NewTrialBC.png","37"
"image-keyboard-response","219","190040","0.0-4.0-1.66","17","Low_HMMActual","null","","","","Images/BlackBeadChoice.png","null"
"image-keyboard-response","220","190546","0.0-4.0-2.66","17","Low_HMMActual","460.7199999736622","","","","Images/BlackBeadChoiceCorrect.png","37"
"image-keyboard-response","221","191442","0.0-4.0-0.67","17","Low_HMMActual","894.6950000245124","","","","Images/NewTrialBC.png","37"
"image-keyboard-response","222","191698","0.0-4.0-1.67","17","Low_HMMActual","null","","","","Images/BlackBeadChoice.png","null"
"image-keyboard-response","223","192205","0.0-4.0-2.67","17","Low_HMMActual","null","","","","Images/BlackBeadChoiceCorrect.png","null"
"image-keyboard-response","224","192289","0.0-4.0-0.68","17","Low_HMMActual","82.32499996665865","","","","Images/NewTrialBC.png","37"
"image-keyboard-response","225","192548","0.0-4.0-1.68","17","Low_HMMActual","null","","","","Images/BlackBeadChoice.png","null"
"image-keyboard-response","226","193052","0.0-4.0-2.68","17","Low_HMMActual","491.9649999937974","","","","Images/BlackBeadChoiceWrong.png","39"
"image-keyboard-response","227","193838","0.0-4.0-0.69","17","Low_HMMActual","784.8150000208989","","","","Images/NewTrialWC.png","39"
"image-keyboard-response","228","194092","0.0-4.0-1.69","17","Low_HMMActual","null","","","","Images/WhiteBeadChoice.png","null"
"image-keyboard-response","229","194599","0.0-4.0-2.69","17","Low_HMMActual","472.07999997772276","","","","Images/WhiteBeadChoiceWrong.png","37"
"image-keyboard-response","230","195215","0.0-4.0-0.70","17","Low_HMMActual","614.000000001397","","","","Images/NewTrialBC.png","37"
"image-keyboard-response","231","195466","0.0-4.0-1.70","17","Low_HMMActual","null","","","","Images/BlackBeadChoice.png","null"
"image-keyboard-response","232","195969","0.0-4.0-2.70","17","Low_HMMActual","null","","","","Images/BlackBeadChoiceWrong.png","null"
"image-keyboard-response","233","196033","0.0-4.0-0.71","17","Low_HMMActual","61.76999997114763","","","","Images/NewTrialWC.png","39"
"image-keyboard-response","234","196284","0.0-4.0-1.71","17","Low_HMMActual","null","","","","Images/WhiteBeadChoice.png","null"
"image-keyboard-response","235","196789","0.0-4.0-2.71","17","Low_HMMActual","null","","","","Images/WhiteBeadChoiceCorrect.png","null"
"image-keyboard-response","236","196810","0.0-4.0-0.72","17","Low_HMMActual","19.345000036992133","","","","Images/NewTrialWC.png","39"
"image-keyboard-response","237","197061","0.0-4.0-1.72","17","Low_HMMActual","null","","","","Images/WhiteBeadChoice.png","null"
"image-keyboard-response","238","197568","0.0-4.0-2.72","17","Low_HMMActual","477.599999983795","","","","Images/WhiteBeadChoiceWrong.png","37"
"image-keyboard-response","239","198179","0.0-4.0-0.73","17","Low_HMMActual","609.3399999663234","","","","Images/NewTrialBC.png","37"
"image-keyboard-response","240","198432","0.0-4.0-1.73","17","Low_HMMActual","null","","","","Images/BlackBeadChoice.png","null"
"image-keyboard-response","241","198940","0.0-4.0-2.73","17","Low_HMMActual","475.4949999623932","","","","Images/BlackBeadChoiceWrong.png","39"
"image-keyboard-response","242","199772","0.0-4.0-0.74","17","Low_HMMActual","831.1099999700673","","","","Images/NewTrialWC.png","39"
"image-keyboard-response","243","200028","0.0-4.0-1.74","17","Low_HMMActual","null","","","","Images/WhiteBeadChoice.png","null"
"image-keyboard-response","244","200530","0.0-4.0-2.74","17","Low_HMMActual","436.0900000319816","","","","Images/WhiteBeadChoiceCorrect.png","39"
"image-keyboard-response","245","201185","0.0-4.0-0.75","17","Low_HMMActual","653.2000000006519","","","","Images/NewTrialWC.png","39"
"image-keyboard-response","246","201440","0.0-4.0-1.75","17","Low_HMMActual","null","","","","Images/WhiteBeadChoice.png","null"
"image-keyboard-response","247","201943","0.0-4.0-2.75","17","Low_HMMActual","469.83000001637265","","","","Images/WhiteBeadChoiceWrong.png","37"
"image-keyboard-response","248","202627","0.0-4.0-0.76","17","Low_HMMActual","682.9400000278838","","","","Images/NewTrialBC.png","37"
"image-keyboard-response","249","202879","0.0-4.0-1.76","17","Low_HMMActual","null","","","","Images/BlackBeadChoice.png","null"
"image-keyboard-response","250","203385","0.0-4.0-2.76","17","Low_HMMActual","null","","","","Images/BlackBeadChoiceWrong.png","null"
"image-keyboard-response","251","203412","0.0-4.0-0.77","17","Low_HMMActual","24.80499999364838","","","","Images/NewTrialWC.png","39"
"image-keyboard-response","252","203663","0.0-4.0-1.77","17","Low_HMMActual","null","","","","Images/WhiteBeadChoice.png","null"
"image-keyboard-response","253","204169","0.0-4.0-2.77","17","Low_HMMActual","470.97999998368323","","","","Images/WhiteBeadChoiceCorrect.png","39"
"image-keyboard-response","254","204972","0.0-4.0-0.78","17","Low_HMMActual","800.8499999996275","","","","Images/NewTrialWC.png","39"
"image-keyboard-response","255","205228","0.0-4.0-1.78","17","Low_HMMActual","null","","","","Images/WhiteBeadChoice.png","null"
"image-keyboard-response","256","205733","0.0-4.0-2.78","17","Low_HMMActual","424.34999998658895","","","","Images/WhiteBeadChoiceCorrect.png","39"
"image-keyboard-response","257","206432","0.0-4.0-0.79","17","Low_HMMActual","697.79499998549","","","","Images/NewTrialWC.png","39"
"image-keyboard-response","258","206685","0.0-4.0-1.79","17","Low_HMMActual","null","","","","Images/WhiteBeadChoice.png","null"
"image-keyboard-response","259","207191","0.0-4.0-2.79","17","Low_HMMActual","442.6399999647401","","","","Images/WhiteBeadChoiceCorrect.png","39"
"image-keyboard-response","260","207767","0.0-4.0-0.80","17","Low_HMMActual","574.4100000010803","","","","Images/NewTrialWC.png","39"
"image-keyboard-response","261","208020","0.0-4.0-1.80","17","Low_HMMActual","null","","","","Images/WhiteBeadChoice.png","null"
"image-keyboard-response","262","208526","0.0-4.0-2.80","17","Low_HMMActual","439.4050000119023","","","","Images/WhiteBeadChoiceCorrect.png","39"
"image-keyboard-response","263","209108","0.0-4.0-0.81","17","Low_HMMActual","581.0899999924004","","","","Images/NewTrialWC.png","39"
"image-keyboard-response","264","209365","0.0-4.0-1.81","17","Low_HMMActual","null","","","","Images/WhiteBeadChoice.png","null"
"image-keyboard-response","265","209872","0.0-4.0-2.81","17","Low_HMMActual","null","","","","Images/WhiteBeadChoiceCorrect.png","null"
"image-keyboard-response","266","209966","0.0-4.0-0.82","17","Low_HMMActual","92.60500001255423","","","","Images/NewTrialWC.png","39"
"image-keyboard-response","267","210223","0.0-4.0-1.82","17","Low_HMMActual","null","","","","Images/WhiteBeadChoice.png","null"
"image-keyboard-response","268","210728","0.0-4.0-2.82","17","Low_HMMActual","430.41000002995133","","","","Images/WhiteBeadChoiceWrong.png","37"
"image-keyboard-response","269","211257","0.0-4.0-0.83","17","Low_HMMActual","527.414999960456","","","","Images/NewTrialBC.png","37"
"image-keyboard-response","270","211509","0.0-4.0-1.83","17","Low_HMMActual","null","","","","Images/BlackBeadChoice.png","null"
"image-keyboard-response","271","212014","0.0-4.0-2.83","17","Low_HMMActual","484.9849999882281","","","","Images/BlackBeadChoiceWrong.png","39"
"image-keyboard-response","272","212679","0.0-4.0-0.84","17","Low_HMMActual","663.3550000260584","","","","Images/NewTrialWC.png","39"
"image-keyboard-response","273","212931","0.0-4.0-1.84","17","Low_HMMActual","null","","","","Images/WhiteBeadChoice.png","null"
"image-keyboard-response","274","213438","0.0-4.0-2.84","17","Low_HMMActual","479.8750000190921","","","","Images/WhiteBeadChoiceCorrect.png","39"
"image-keyboard-response","275","214116","0.0-4.0-0.85","17","Low_HMMActual","676.9399999757297","","","","Images/NewTrialWC.png","39"
"image-keyboard-response","276","214373","0.0-4.0-1.85","17","Low_HMMActual","null","","","","Images/WhiteBeadChoice.png","null"
"image-keyboard-response","277","214876","0.0-4.0-2.85","17","Low_HMMActual","433.64000000292435","","","","Images/WhiteBeadChoiceWrong.png","37"
"image-keyboard-response","278","215460","0.0-4.0-0.86","17","Low_HMMActual","582.9849999863654","","","","Images/NewTrialBC.png","37"
"image-keyboard-response","279","215712","0.0-4.0-1.86","17","Low_HMMActual","null","","","","Images/BlackBeadChoice.png","null"
"image-keyboard-response","280","216215","0.0-4.0-2.86","17","Low_HMMActual","426.0950000025332","","","","Images/BlackBeadChoiceCorrect.png","37"
"image-keyboard-response","281","216847","0.0-4.0-0.87","17","Low_HMMActual","630.9750000364147","","","","Images/NewTrialBC.png","37"
"image-keyboard-response","282","217099","0.0-4.0-1.87","17","Low_HMMActual","null","","","","Images/BlackBeadChoice.png","null"
"image-keyboard-response","283","217602","0.0-4.0-2.87","17","Low_HMMActual","444.7649999638088","","","","Images/BlackBeadChoiceCorrect.png","37"
"image-keyboard-response","284","218286","0.0-4.0-0.88","17","Low_HMMActual","682.5449999887496","","","","Images/NewTrialBC.png","37"
"image-keyboard-response","285","218542","0.0-4.0-1.88","17","Low_HMMActual","null","","","","Images/BlackBeadChoice.png","null"
"image-keyboard-response","286","219046","0.0-4.0-2.88","17","Low_HMMActual","435.9249999979511","","","","Images/BlackBeadChoiceCorrect.png","37"
"image-keyboard-response","287","219661","0.0-4.0-0.89","17","Low_HMMActual","613.7750000343658","","","","Images/NewTrialBC.png","37"
"image-keyboard-response","288","219913","0.0-4.0-1.89","17","Low_HMMActual","null","","","","Images/BlackBeadChoice.png","null"
"image-keyboard-response","289","220416","0.0-4.0-2.89","17","Low_HMMActual","453.55999999446794","","","","Images/BlackBeadChoiceCorrect.png","37"
"image-keyboard-response","290","221094","0.0-4.0-0.90","17","Low_HMMActual","676.3700000010431","","","","Images/NewTrialBC.png","37"
"image-keyboard-response","291","221348","0.0-4.0-1.90","17","Low_HMMActual","null","","","","Images/BlackBeadChoice.png","null"
"image-keyboard-response","292","221850","0.0-4.0-2.90","17","Low_HMMActual","null","","","","Images/BlackBeadChoiceCorrect.png","null"
"image-keyboard-response","293","221854","0.0-4.0-0.91","17","Low_HMMActual","1.7300000181421638","","","","Images/NewTrialBC.png","37"
"image-keyboard-response","294","222106","0.0-4.0-1.91","17","Low_HMMActual","null","","","","Images/BlackBeadChoice.png","null"
"image-keyboard-response","295","222611","0.0-4.0-2.91","17","Low_HMMActual","476.2549999868497","","","","Images/BlackBeadChoiceCorrect.png","37"
"image-keyboard-response","296","223356","0.0-4.0-0.92","17","Low_HMMActual","743.8949999632314","","","","Images/NewTrialBC.png","37"
"image-keyboard-response","297","223612","0.0-4.0-1.92","17","Low_HMMActual","null","","","","Images/BlackBeadChoice.png","null"
"image-keyboard-response","298","224114","0.0-4.0-2.92","17","Low_HMMActual","489.9849999928847","","","","Images/BlackBeadChoiceCorrect.png","37"
"image-keyboard-response","299","224775","0.0-4.0-0.93","17","Low_HMMActual","659.9249999853782","","","","Images/NewTrialBC.png","37"
"image-keyboard-response","300","225028","0.0-4.0-1.93","17","Low_HMMActual","null","","","","Images/BlackBeadChoice.png","null"
"image-keyboard-response","301","225535","0.0-4.0-2.93","17","Low_HMMActual","null","","","","Images/BlackBeadChoiceCorrect.png","null"
"image-keyboard-response","302","225642","0.0-4.0-0.94","17","Low_HMMActual","105.42500001611188","","","","Images/NewTrialBC.png","37"
"image-keyboard-response","303","225898","0.0-4.0-1.94","17","Low_HMMActual","null","","","","Images/BlackBeadChoice.png","null"
"image-keyboard-response","304","226401","0.0-4.0-2.94","17","Low_HMMActual","493.43500001123175","","","","Images/BlackBeadChoiceCorrect.png","37"
"image-keyboard-response","305","227109","0.0-4.0-0.95","17","Low_HMMActual","706.609999993816","","","","Images/NewTrialBC.png","37"
"image-keyboard-response","306","227361","0.0-4.0-1.95","17","Low_HMMActual","null","","","","Images/BlackBeadChoice.png","null"
"image-keyboard-response","307","227867","0.0-4.0-2.95","17","Low_HMMActual","null","","","","Images/BlackBeadChoiceCorrect.png","null"
"image-keyboard-response","308","227895","0.0-4.0-0.96","17","Low_HMMActual","26.309999986551702","","","","Images/NewTrialBC.png","37"
"image-keyboard-response","309","228148","0.0-4.0-1.96","17","Low_HMMActual","null","","","","Images/BlackBeadChoice.png","null"
"image-keyboard-response","310","228649","0.0-4.0-2.96","17","Low_HMMActual","null","","","","Images/BlackBeadChoiceWrong.png","null"
"image-keyboard-response","311","228690","0.0-4.0-0.97","17","Low_HMMActual","38.53499999968335","","","","Images/NewTrialWC.png","39"
"image-keyboard-response","312","228943","0.0-4.0-1.97","17","Low_HMMActual","null","","","","Images/WhiteBeadChoice.png","null"
"image-keyboard-response","313","229447","0.0-4.0-2.97","17","Low_HMMActual","458.94500002032146","","","","Images/WhiteBeadChoiceWrong.png","37"
"image-keyboard-response","314","230127","0.0-4.0-0.98","17","Low_HMMActual","678.7649999605492","","","","Images/NewTrialBC.png","37"
"image-keyboard-response","315","230381","0.0-4.0-1.98","17","Low_HMMActual","null","","","","Images/BlackBeadChoice.png","null"
"image-keyboard-response","316","230887","0.0-4.0-2.98","17","Low_HMMActual","447.28500000201166","","","","Images/BlackBeadChoiceCorrect.png","37"
"image-keyboard-response","317","231749","0.0-4.0-0.99","17","Low_HMMActual","859.8050000146031","","","","Images/NewTrialBC.png","37"
"image-keyboard-response","318","232005","0.0-4.0-1.99","17","Low_HMMActual","null","","","","Images/BlackBeadChoice.png","null"
"image-keyboard-response","319","232509","0.0-4.0-2.99","17","Low_HMMActual","434.3399999779649","","","","Images/BlackBeadChoiceCorrect.png","37"
"image-keyboard-response","320","233173","0.0-4.0-0.100","17","Low_HMMActual","662.2300000162795","","","","Images/NewTrialBC.png","37"
"image-keyboard-response","321","233429","0.0-4.0-1.100","17","Low_HMMActual","null","","","","Images/BlackBeadChoice.png","null"
"image-keyboard-response","322","233931","0.0-4.0-2.100","17","Low_HMMActual","422.64000000432134","","","","Images/BlackBeadChoiceCorrect.png","37"
"image-keyboard-response","323","234632","0.0-4.0-0.101","17","Low_HMMActual","699.5699999970384","","","","Images/NewTrialBC.png","37"
"image-keyboard-response","324","234889","0.0-4.0-1.101","17","Low_HMMActual","null","","","","Images/BlackBeadChoice.png","null"
"image-keyboard-response","325","235391","0.0-4.0-2.101","17","Low_HMMActual","433.2649999996647","","","","Images/BlackBeadChoiceCorrect.png","37"
"image-keyboard-response","326","236030","0.0-4.0-0.102","17","Low_HMMActual","636.5950000472367","","","","Images/NewTrialBC.png","37"
"image-keyboard-response","327","236283","0.0-4.0-1.102","17","Low_HMMActual","null","","","","Images/BlackBeadChoice.png","null"
"image-keyboard-response","328","236790","0.0-4.0-2.102","17","Low_HMMActual","341.94999997271225","","","","Images/BlackBeadChoiceWrong.png","39"
"image-keyboard-response","329","237298","0.0-4.0-0.103","17","Low_HMMActual","506.15999998990446","","","","Images/NewTrialWC.png","39"
"image-keyboard-response","330","237550","0.0-4.0-1.103","17","Low_HMMActual","null","","","","Images/WhiteBeadChoice.png","null"
"image-keyboard-response","331","238057","0.0-4.0-2.103","17","Low_HMMActual","428.0150000122376","","","","Images/WhiteBeadChoiceWrong.png","37"
"image-keyboard-response","332","239134","0.0-4.0-0.104","17","Low_HMMActual","1075.8599999826401","","","","Images/NewTrialBC.png","37"
"image-keyboard-response","333","239391","0.0-4.0-1.104","17","Low_HMMActual","null","","","","Images/BlackBeadChoice.png","null"
"image-keyboard-response","334","239896","0.0-4.0-2.104","17","Low_HMMActual","null","","","","Images/BlackBeadChoiceCorrect.png","null"
"image-keyboard-response","335","239951","0.0-4.0-0.105","17","Low_HMMActual","53.98999998578802","","","","Images/NewTrialBC.png","37"
"image-keyboard-response","336","240208","0.0-4.0-1.105","17","Low_HMMActual","null","","","","Images/BlackBeadChoice.png","null"
"image-keyboard-response","337","240710","0.0-4.0-2.105","17","Low_HMMActual","458.6649999837391","","","","Images/BlackBeadChoiceCorrect.png","37"
"image-keyboard-response","338","241368","0.0-4.0-0.106","17","Low_HMMActual","657.0449999999255","","","","Images/NewTrialBC.png","37"
"image-keyboard-response","339","241625","0.0-4.0-1.106","17","Low_HMMActual","null","","","","Images/BlackBeadChoice.png","null"
"image-keyboard-response","340","242131","0.0-4.0-2.106","17","Low_HMMActual","null","","","","Images/BlackBeadChoiceCorrect.png","null"
"image-keyboard-response","341","242158","0.0-4.0-0.107","17","Low_HMMActual","26.230000017676502","","","","Images/NewTrialBC.png","37"
"image-keyboard-response","342","242412","0.0-4.0-1.107","17","Low_HMMActual","null","","","","Images/BlackBeadChoice.png","null"
"image-keyboard-response","343","242915","0.0-4.0-2.107","17","Low_HMMActual","476.03000001981854","","","","Images/BlackBeadChoiceWrong.png","39"
"image-keyboard-response","344","243511","0.0-4.0-0.108","17","Low_HMMActual","595.2150000375696","","","","Images/NewTrialWC.png","39"
"image-keyboard-response","345","243768","0.0-4.0-1.108","17","Low_HMMActual","null","","","","Images/WhiteBeadChoice.png","null"
"image-keyboard-response","346","244273","0.0-4.0-2.108","17","Low_HMMActual","420.3749999869615","","","","Images/WhiteBeadChoiceCorrect.png","39"
"image-keyboard-response","347","244867","0.0-4.0-0.109","17","Low_HMMActual","592.5449999631383","","","","Images/NewTrialWC.png","39"
"image-keyboard-response","348","245121","0.0-4.0-1.109","17","Low_HMMActual","null","","","","Images/WhiteBeadChoice.png","null"
"image-keyboard-response","349","245627","0.0-4.0-2.109","17","Low_HMMActual","407.1750000002794","","","","Images/WhiteBeadChoiceCorrect.png","39"
"image-keyboard-response","350","246126","0.0-4.0-0.110","17","Low_HMMActual","497.29499995009974","","","","Images/NewTrialWC.png","39"
"image-keyboard-response","351","246380","0.0-4.0-1.110","17","Low_HMMActual","null","","","","Images/WhiteBeadChoice.png","null"
"image-keyboard-response","352","246882","0.0-4.0-2.110","17","Low_HMMActual","417.4500000081025","","","","Images/WhiteBeadChoiceWrong.png","37"
"image-keyboard-response","353","247451","0.0-4.0-0.111","17","Low_HMMActual","567.3449999885634","","","","Images/NewTrialBC.png","37"
"image-keyboard-response","354","247703","0.0-4.0-1.111","17","Low_HMMActual","null","","","","Images/BlackBeadChoice.png","null"
"image-keyboard-response","355","248207","0.0-4.0-2.111","17","Low_HMMActual","392.76499999687076","","","","Images/BlackBeadChoiceCorrect.png","37"
"image-keyboard-response","356","248782","0.0-4.0-0.112","17","Low_HMMActual","572.7349999942817","","","","Images/NewTrialBC.png","37"
"image-keyboard-response","357","249036","0.0-4.0-1.112","17","Low_HMMActual","null","","","","Images/BlackBeadChoice.png","null"
"image-keyboard-response","358","249538","0.0-4.0-2.112","17","Low_HMMActual","490.61999999685213","","","","Images/BlackBeadChoiceCorrect.png","37"
"image-keyboard-response","359","250248","0.0-4.0-0.113","17","Low_HMMActual","708.7400000309572","","","","Images/NewTrialBC.png","37"
"image-keyboard-response","360","250504","0.0-4.0-1.113","17","Low_HMMActual","null","","","","Images/BlackBeadChoice.png","null"
"image-keyboard-response","361","251011","0.0-4.0-2.113","17","Low_HMMActual","425.88499997509643","","","","Images/BlackBeadChoiceCorrect.png","37"
"image-keyboard-response","362","251690","0.0-4.0-0.114","17","Low_HMMActual","677.0099999848753","","","","Images/NewTrialBC.png","37"
"image-keyboard-response","363","251945","0.0-4.0-1.114","17","Low_HMMActual","null","","","","Images/BlackBeadChoice.png","null"
"image-keyboard-response","364","252451","0.0-4.0-2.114","17","Low_HMMActual","null","","","","Images/BlackBeadChoiceCorrect.png","null"
"image-keyboard-response","365","252491","0.0-4.0-0.115","17","Low_HMMActual","38.729999971110374","","","","Images/NewTrialBC.png","37"
"image-keyboard-response","366","252744","0.0-4.0-1.115","17","Low_HMMActual","null","","","","Images/BlackBeadChoice.png","null"
"image-keyboard-response","367","253250","0.0-4.0-2.115","17","Low_HMMActual","472.98000002047047","","","","Images/BlackBeadChoiceCorrect.png","37"
"image-keyboard-response","368","253863","0.0-4.0-0.116","17","Low_HMMActual","610.8249999815598","","","","Images/NewTrialBC.png","37"
"image-keyboard-response","369","254116","0.0-4.0-1.116","17","Low_HMMActual","null","","","","Images/BlackBeadChoice.png","null"
"image-keyboard-response","370","254623","0.0-4.0-2.116","17","Low_HMMActual","418.9699999988079","","","","Images/BlackBeadChoiceCorrect.png","37"
"image-keyboard-response","371","255244","0.0-4.0-0.117","17","Low_HMMActual","619.1550000221469","","","","Images/NewTrialBC.png","37"
"image-keyboard-response","372","255500","0.0-4.0-1.117","17","Low_HMMActual","null","","","","Images/BlackBeadChoice.png","null"
"image-keyboard-response","373","256006","0.0-4.0-2.117","17","Low_HMMActual","460.6999999959953","","","","Images/BlackBeadChoiceCorrect.png","37"
"image-keyboard-response","374","256676","0.0-4.0-0.118","17","Low_HMMActual","667.8400000091642","","","","Images/NewTrialBC.png","37"
"image-keyboard-response","375","256927","0.0-4.0-1.118","17","Low_HMMActual","null","","","","Images/BlackBeadChoice.png","null"
"image-keyboard-response","376","257429","0.0-4.0-2.118","17","Low_HMMActual","410.5299999937415","","","","Images/BlackBeadChoiceCorrect.png","37"
"image-keyboard-response","377","258012","0.0-4.0-0.119","17","Low_HMMActual","581.9849999970756","","","","Images/NewTrialBC.png","37"
"image-keyboard-response","378","258265","0.0-4.0-1.119","17","Low_HMMActual","null","","","","Images/BlackBeadChoice.png","null"
"image-keyboard-response","379","258766","0.0-4.0-2.119","17","Low_HMMActual","384.5099999452941","","","","Images/BlackBeadChoiceCorrect.png","37"
"image-keyboard-response","380","259281","0.0-4.0-0.120","17","Low_HMMActual","513.8049999950454","","","","Images/NewTrialBC.png","37"
"image-keyboard-response","381","259538","0.0-4.0-1.120","17","Low_HMMActual","null","","","","Images/BlackBeadChoice.png","null"
"image-keyboard-response","382","260043","0.0-4.0-2.120","17","Low_HMMActual","null","","","","Images/BlackBeadChoiceWrong.png","null"
"image-keyboard-response","383","260057","0.0-4.0-0.121","17","Low_HMMActual","11.409999977331609","","","","Images/NewTrialWC.png","39"
"image-keyboard-response","384","260308","0.0-4.0-1.121","17","Low_HMMActual","null","","","","Images/WhiteBeadChoice.png","null"
"image-keyboard-response","385","260813","0.0-4.0-2.121","17","Low_HMMActual","427.6500000269152","","","","Images/WhiteBeadChoiceCorrect.png","39"
"image-keyboard-response","386","261412","0.0-4.0-0.122","17","Low_HMMActual","597.3650000523776","","","","Images/NewTrialWC.png","39"
"image-keyboard-response","387","261664","0.0-4.0-1.122","17","Low_HMMActual","null","","","","Images/WhiteBeadChoice.png","null"
"image-keyboard-response","388","262171","0.0-4.0-2.122","17","Low_HMMActual","366.2250000052154","","","","Images/WhiteBeadChoiceCorrect.png","39"
"image-keyboard-response","389","262713","0.0-4.0-0.123","17","Low_HMMActual","540.4950000229292","","","","Images/NewTrialWC.png","39"
"image-keyboard-response","390","262964","0.0-4.0-1.123","17","Low_HMMActual","null","","","","Images/WhiteBeadChoice.png","null"
"image-keyboard-response","391","263471","0.0-4.0-2.123","17","Low_HMMActual","407.01999998418614","","","","Images/WhiteBeadChoiceCorrect.png","39"
"image-keyboard-response","392","264016","0.0-4.0-0.124","17","Low_HMMActual","543.5600000200793","","","","Images/NewTrialWC.png","39"
"image-keyboard-response","393","264269","0.0-4.0-1.124","17","Low_HMMActual","null","","","","Images/WhiteBeadChoice.png","null"
"image-keyboard-response","394","264773","0.0-4.0-2.124","17","Low_HMMActual","453.15499999560416","","","","Images/WhiteBeadChoiceWrong.png","37"
"image-keyboard-response","395","265374","0.0-4.0-0.125","17","Low_HMMActual","599.7349999961443","","","","Images/NewTrialBC.png","37"
"image-keyboard-response","396","265631","0.0-4.0-1.125","17","Low_HMMActual","null","","","","Images/BlackBeadChoice.png","null"
"image-keyboard-response","397","266136","0.0-4.0-2.125","17","Low_HMMActual","441.34499999927357","","","","Images/BlackBeadChoiceCorrect.png","37"
"image-keyboard-response","398","266735","0.0-4.0-0.126","17","Low_HMMActual","597.5500000058673","","","","Images/NewTrialBC.png","37"
"image-keyboard-response","399","266987","0.0-4.0-1.126","17","Low_HMMActual","null","","","","Images/BlackBeadChoice.png","null"
"image-keyboard-response","400","267494","0.0-4.0-2.126","17","Low_HMMActual","410.6150000006892","","","","Images/BlackBeadChoiceCorrect.png","37"
"image-keyboard-response","401","267995","0.0-4.0-0.127","17","Low_HMMActual","500.09500002488494","","","","Images/NewTrialBC.png","37"
"image-keyboard-response","402","268250","0.0-4.0-1.127","17","Low_HMMActual","null","","","","Images/BlackBeadChoice.png","null"
"image-keyboard-response","403","268755","0.0-4.0-2.127","17","Low_HMMActual","377.75499996496364","","","","Images/BlackBeadChoiceCorrect.png","37"
"image-keyboard-response","404","269210","0.0-4.0-0.128","17","Low_HMMActual","453.59500002814457","","","","Images/NewTrialBC.png","37"
"image-keyboard-response","405","269464","0.0-4.0-1.128","17","Low_HMMActual","null","","","","Images/BlackBeadChoice.png","null"
"image-keyboard-response","406","269968","0.0-4.0-2.128","17","Low_HMMActual","386.24999998137355","","","","Images/BlackBeadChoiceCorrect.png","37"
"image-keyboard-response","407","270484","0.0-4.0-0.129","17","Low_HMMActual","514.7649999707937","","","","Images/NewTrialBC.png","37"
"image-keyboard-response","408","270737","0.0-4.0-1.129","17","Low_HMMActual","null","","","","Images/BlackBeadChoice.png","null"
"image-keyboard-response","409","271244","0.0-4.0-2.129","17","Low_HMMActual","385.0800000363961","","","","Images/BlackBeadChoiceCorrect.png","37"
"image-keyboard-response","410","271730","0.0-4.0-0.130","17","Low_HMMActual","484.2449999996461","","","","Images/NewTrialBC.png","37"
"image-keyboard-response","411","271984","0.0-4.0-1.130","17","Low_HMMActual","null","","","","Images/BlackBeadChoice.png","null"
"image-keyboard-response","412","272487","0.0-4.0-2.130","17","Low_HMMActual","451.43000001553446","","","","Images/BlackBeadChoiceWrong.png","39"
"image-keyboard-response","413","272978","0.0-4.0-0.131","17","Low_HMMActual","489.0950000262819","","","","Images/NewTrialWC.png","39"
"image-keyboard-response","414","273234","0.0-4.0-1.131","17","Low_HMMActual","null","","","","Images/WhiteBeadChoice.png","null"
"image-keyboard-response","415","273738","0.0-4.0-2.131","17","Low_HMMActual","453.5850000102073","","","","Images/WhiteBeadChoiceCorrect.png","39"
"image-keyboard-response","416","274319","0.0-4.0-0.132","17","Low_HMMActual","579.3200000189245","","","","Images/NewTrialWC.png","39"
"image-keyboard-response","417","274575","0.0-4.0-1.132","17","Low_HMMActual","null","","","","Images/WhiteBeadChoice.png","null"
"image-keyboard-response","418","275082","0.0-4.0-2.132","17","Low_HMMActual","419.0999999991618","","","","Images/WhiteBeadChoiceCorrect.png","39"
"image-keyboard-response","419","275640","0.0-4.0-0.133","17","Low_HMMActual","556.4550000126474","","","","Images/NewTrialWC.png","39"
"image-keyboard-response","420","275895","0.0-4.0-1.133","17","Low_HMMActual","null","","","","Images/WhiteBeadChoice.png","null"
"image-keyboard-response","421","276402","0.0-4.0-2.133","17","Low_HMMActual","382.6699999626726","","","","Images/WhiteBeadChoiceCorrect.png","39"
"image-keyboard-response","422","276886","0.0-4.0-0.134","17","Low_HMMActual","482.48500004410744","","","","Images/NewTrialWC.png","39"
"image-keyboard-response","423","277139","0.0-4.0-1.134","17","Low_HMMActual","null","","","","Images/WhiteBeadChoice.png","null"
"image-keyboard-response","424","277645","0.0-4.0-2.134","17","Low_HMMActual","457.860000024084","","","","Images/WhiteBeadChoiceWrong.png","37"
"image-keyboard-response","425","278211","0.0-4.0-0.135","17","Low_HMMActual","563.9249999658205","","","","Images/NewTrialBC.png","37"
"image-keyboard-response","426","278467","0.0-4.0-1.135","17","Low_HMMActual","null","","","","Images/BlackBeadChoice.png","null"
"image-keyboard-response","427","278971","0.0-4.0-2.135","17","Low_HMMActual","394.1299999714829","","","","Images/BlackBeadChoiceCorrect.png","37"
"image-keyboard-response","428","279541","0.0-4.0-0.136","17","Low_HMMActual","568.619999976363","","","","Images/NewTrialBC.png","37"
"image-keyboard-response","429","279794","0.0-4.0-1.136","17","Low_HMMActual","null","","","","Images/BlackBeadChoice.png","null"
"image-keyboard-response","430","280301","0.0-4.0-2.136","17","Low_HMMActual","412.3149999650195","","","","Images/BlackBeadChoiceCorrect.png","37"
"image-keyboard-response","431","280902","0.0-4.0-0.137","17","Low_HMMActual","599.869999976363","","","","Images/NewTrialBC.png","37"
"image-keyboard-response","432","281156","0.0-4.0-1.137","17","Low_HMMActual","null","","","","Images/BlackBeadChoice.png","null"
"image-keyboard-response","433","281663","0.0-4.0-2.137","17","Low_HMMActual","392.0749999815598","","","","Images/BlackBeadChoiceCorrect.png","37"
"image-keyboard-response","434","282213","0.0-4.0-0.138","17","Low_HMMActual","548.9250000100583","","","","Images/NewTrialBC.png","37"
"image-keyboard-response","435","282468","0.0-4.0-1.138","17","Low_HMMActual","null","","","","Images/BlackBeadChoice.png","null"
"image-keyboard-response","436","282973","0.0-4.0-2.138","17","Low_HMMActual","346.6699999989942","","","","Images/BlackBeadChoiceCorrect.png","37"
"image-keyboard-response","437","283401","0.0-4.0-0.139","17","Low_HMMActual","426.9649999914691","","","","Images/NewTrialBC.png","37"
"image-keyboard-response","438","283657","0.0-4.0-1.139","17","Low_HMMActual","null","","","","Images/BlackBeadChoice.png","null"
"image-keyboard-response","439","284161","0.0-4.0-2.139","17","Low_HMMActual","349.6099999756552","","","","Images/BlackBeadChoiceCorrect.png","37"
"image-keyboard-response","440","284663","0.0-4.0-0.140","17","Low_HMMActual","500.4450000124052","","","","Images/NewTrialBC.png","37"
"image-keyboard-response","441","284914","0.0-4.0-1.140","17","Low_HMMActual","null","","","","Images/BlackBeadChoice.png","null"
"image-keyboard-response","442","285418","0.0-4.0-2.140","17","Low_HMMActual","425.71500001940876","","","","Images/BlackBeadChoiceCorrect.png","37"
"image-keyboard-response","443","286013","0.0-4.0-0.141","17","Low_HMMActual","591.530000034254","","","","Images/NewTrialBC.png","37"
"image-keyboard-response","444","286270","0.0-4.0-1.141","17","Low_HMMActual","null","","","","Images/BlackBeadChoice.png","null"
"image-keyboard-response","445","286772","0.0-4.0-2.141","17","Low_HMMActual","390.46999998390675","","","","Images/BlackBeadChoiceCorrect.png","37"
"image-keyboard-response","446","287261","0.0-4.0-0.142","17","Low_HMMActual","487.49500000849366","","","","Images/NewTrialBC.png","37"
"image-keyboard-response","447","287513","0.0-4.0-1.142","17","Low_HMMActual","null","","","","Images/BlackBeadChoice.png","null"
"image-keyboard-response","448","288020","0.0-4.0-2.142","17","Low_HMMActual","350.6199999828823","","","","Images/BlackBeadChoiceCorrect.png","37"
"image-keyboard-response","449","288421","0.0-4.0-0.143","17","Low_HMMActual","399.6599999954924","","","","Images/NewTrialBC.png","37"
"image-keyboard-response","450","288678","0.0-4.0-1.143","17","Low_HMMActual","null","","","","Images/BlackBeadChoice.png","null"
"image-keyboard-response","451","289185","0.0-4.0-2.143","17","Low_HMMActual","345.21500003756955","","","","Images/BlackBeadChoiceCorrect.png","37"
"image-keyboard-response","452","289595","0.0-4.0-0.144","17","Low_HMMActual","408.4549999679439","","","","Images/NewTrialBC.png","37"
"image-keyboard-response","453","289851","0.0-4.0-1.144","17","Low_HMMActual","null","","","","Images/BlackBeadChoice.png","null"
"image-keyboard-response","454","290358","0.0-4.0-2.144","17","Low_HMMActual","322.74999999208376","","","","Images/BlackBeadChoiceCorrect.png","37"
"image-keyboard-response","455","290831","0.0-4.0-0.145","17","Low_HMMActual","470.64999997382984","","","","Images/NewTrialBC.png","37"
"image-keyboard-response","456","291087","0.0-4.0-1.145","17","Low_HMMActual","null","","","","Images/BlackBeadChoice.png","null"
"image-keyboard-response","457","291592","0.0-4.0-2.145","17","Low_HMMActual","442.49499996658415","","","","Images/BlackBeadChoiceCorrect.png","37"
"image-keyboard-response","458","292168","0.0-4.0-0.146","17","Low_HMMActual","574.3449999717996","","","","Images/NewTrialBC.png","37"
"image-keyboard-response","459","292424","0.0-4.0-1.146","17","Low_HMMActual","null","","","","Images/BlackBeadChoice.png","null"
"image-keyboard-response","460","292931","0.0-4.0-2.146","17","Low_HMMActual","null","","","","Images/BlackBeadChoiceWrong.png","null"
"image-keyboard-response","461","292947","0.0-4.0-0.147","17","Low_HMMActual","14.48999997228384","","","","Images/NewTrialWC.png","39"
"image-keyboard-response","462","293203","0.0-4.0-1.147","17","Low_HMMActual","null","","","","Images/WhiteBeadChoice.png","null"
"image-keyboard-response","463","293705","0.0-4.0-2.147","17","Low_HMMActual","null","","","","Images/WhiteBeadChoiceWrong.png","null"
"image-keyboard-response","464","293815","0.0-4.0-0.148","17","Low_HMMActual","108.13499998766929","","","","Images/NewTrialBC.png","37"
"image-keyboard-response","465","294068","0.0-4.0-1.148","17","Low_HMMActual","null","","","","Images/BlackBeadChoice.png","null"
"image-keyboard-response","466","294570","0.0-4.0-2.148","17","Low_HMMActual","483.7699999916367","","","","Images/BlackBeadChoiceCorrect.png","37"
"image-keyboard-response","467","295187","0.0-4.0-0.149","17","Low_HMMActual","615.1350000291131","","","","Images/NewTrialBC.png","37"
"image-keyboard-response","468","295439","0.0-4.0-1.149","17","Low_HMMActual","null","","","","Images/BlackBeadChoice.png","null"
"image-keyboard-response","469","295944","0.0-4.0-2.149","17","Low_HMMActual","null","","","","Images/BlackBeadChoiceCorrect.png","null"
"image-keyboard-response","470","295948","0.0-4.0-0.150","17","Low_HMMActual","1.7000000225380063","","","","Images/NewTrialBC.png","37"
"image-keyboard-response","471","296205","0.0-4.0-1.150","17","Low_HMMActual","null","","","","Images/BlackBeadChoice.png","null"
"image-keyboard-response","472","296707","0.0-4.0-2.150","17","Low_HMMActual","null","","","","Images/BlackBeadChoiceCorrect.png","null"
"image-keyboard-response","473","297159","0.0-4.0-0.151","17","Low_HMMActual","450.78499999362975","","","","Images/NewTrialBC.png","37"
"image-keyboard-response","474","297412","0.0-4.0-1.151","17","Low_HMMActual","null","","","","Images/BlackBeadChoice.png","null"
"image-keyboard-response","475","297916","0.0-4.0-2.151","17","Low_HMMActual","null","","","","Images/BlackBeadChoiceCorrect.png","null"
"image-keyboard-response","476","298941","0.0-4.0-0.152","17","Low_HMMActual","1022.629999963101","","","","Images/NewTrialBC.png","37"
"image-keyboard-response","477","299194","0.0-4.0-1.152","17","Low_HMMActual","null","","","","Images/BlackBeadChoice.png","null"
"image-keyboard-response","478","299701","0.0-4.0-2.152","17","Low_HMMActual","null","","","","Images/BlackBeadChoiceWrong.png","null"
"image-keyboard-response","479","299768","0.0-4.0-0.153","17","Low_HMMActual","65.77000004472211","","","","Images/NewTrialWC.png","39"
"image-keyboard-response","480","300025","0.0-4.0-1.153","17","Low_HMMActual","null","","","","Images/WhiteBeadChoice.png","null"
"image-keyboard-response","481","300531","0.0-4.0-2.153","17","Low_HMMActual","null","","","","Images/WhiteBeadChoiceWrong.png","null"
"image-keyboard-response","482","301024","0.0-4.0-0.154","17","Low_HMMActual","491.5599999949336","","","","Images/NewTrialBC.png","37"
"image-keyboard-response","483","301280","0.0-4.0-1.154","17","Low_HMMActual","null","","","","Images/BlackBeadChoice.png","null"
"image-keyboard-response","484","301787","0.0-4.0-2.154","17","Low_HMMActual","412.75499999755993","","","","Images/BlackBeadChoiceCorrect.png","37"
"image-keyboard-response","485","302517","0.0-4.0-0.155","17","Low_HMMActual","728.2850000192411","","","","Images/NewTrialBC.png","37"
"image-keyboard-response","486","302773","0.0-4.0-1.155","17","Low_HMMActual","null","","","","Images/BlackBeadChoice.png","null"
"image-keyboard-response","487","303275","0.0-4.0-2.155","17","Low_HMMActual","385.8299999847077","","","","Images/BlackBeadChoiceWrong.png","39"
"image-keyboard-response","488","303777","0.0-4.0-0.156","17","Low_HMMActual","499.8349999659695","","","","Images/NewTrialWC.png","39"
"image-keyboard-response","489","304033","0.0-4.0-1.156","17","Low_HMMActual","null","","","","Images/WhiteBeadChoice.png","null"
"image-keyboard-response","490","304540","0.0-4.0-2.156","17","Low_HMMActual","440.17499999608845","","","","Images/WhiteBeadChoiceWrong.png","37"
"image-keyboard-response","491","305108","0.0-4.0-0.157","17","Low_HMMActual","566.4550000219606","","","","Images/NewTrialBC.png","37"
"image-keyboard-response","492","305365","0.0-4.0-1.157","17","Low_HMMActual","null","","","","Images/BlackBeadChoice.png","null"
"image-keyboard-response","493","305866","0.0-4.0-2.157","17","Low_HMMActual","411.8950000265613","","","","Images/BlackBeadChoiceCorrect.png","37"
"image-keyboard-response","494","306440","0.0-4.0-0.158","17","Low_HMMActual","572.2350000287406","","","","Images/NewTrialBC.png","37"
"image-keyboard-response","495","306694","0.0-4.0-1.158","17","Low_HMMActual","null","","","","Images/BlackBeadChoice.png","null"
"image-keyboard-response","496","307201","0.0-4.0-2.158","17","Low_HMMActual","445.04999998025596","","","","Images/BlackBeadChoiceCorrect.png","37"
"image-keyboard-response","497","307858","0.0-4.0-0.159","17","Low_HMMActual","654.7900000005029","","","","Images/NewTrialBC.png","37"
"image-keyboard-response","498","308110","0.0-4.0-1.159","17","Low_HMMActual","null","","","","Images/BlackBeadChoice.png","null"
"image-keyboard-response","499","308617","0.0-4.0-2.159","17","Low_HMMActual","412.33500000089407","","","","Images/BlackBeadChoiceCorrect.png","37"
"image-keyboard-response","500","309258","0.0-4.0-0.160","17","Low_HMMActual","638.7600000016391","","","","Images/NewTrialBC.png","37"
"image-keyboard-response","501","309510","0.0-4.0-1.160","17","Low_HMMActual","null","","","","Images/BlackBeadChoice.png","null"
"image-keyboard-response","502","310017","0.0-4.0-2.160","17","Low_HMMActual","388.1949999486096","","","","Images/BlackBeadChoiceCorrect.png","37"
"image-keyboard-response","503","310527","0.0-4.0-0.161","17","Low_HMMActual","508.10499995714054","","","","Images/NewTrialBC.png","37"
"image-keyboard-response","504","310784","0.0-4.0-1.161","17","Low_HMMActual","null","","","","Images/BlackBeadChoice.png","null"
"image-keyboard-response","505","311290","0.0-4.0-2.161","17","Low_HMMActual","466.2900000112131","","","","Images/BlackBeadChoiceCorrect.png","37"
"image-keyboard-response","506","312006","0.0-4.0-0.162","17","Low_HMMActual","713.1400000071153","","","","Images/NewTrialBC.png","37"
"image-keyboard-response","507","312263","0.0-4.0-1.162","17","Low_HMMActual","null","","","","Images/BlackBeadChoice.png","null"
"image-keyboard-response","508","312770","0.0-4.0-2.162","17","Low_HMMActual","null","","","","Images/BlackBeadChoiceCorrect.png","null"
"image-keyboard-response","509","312796","0.0-4.0-0.163","17","Low_HMMActual","23.930000024847686","","","","Images/NewTrialBC.png","37"
"image-keyboard-response","510","313053","0.0-4.0-1.163","17","Low_HMMActual","null","","","","Images/BlackBeadChoice.png","null"
"image-keyboard-response","511","313559","0.0-4.0-2.163","17","Low_HMMActual","null","","","","Images/BlackBeadChoiceCorrect.png","null"
"image-keyboard-response","512","313588","0.0-4.0-0.164","17","Low_HMMActual","27.865000010933727","","","","Images/NewTrialBC.png","37"
"image-keyboard-response","513","313841","0.0-4.0-1.164","17","Low_HMMActual","null","","","","Images/BlackBeadChoice.png","null"
"image-keyboard-response","514","314344","0.0-4.0-2.164","17","Low_HMMActual","493.19499998819083","","","","Images/BlackBeadChoiceCorrect.png","37"
"image-keyboard-response","515","315032","0.0-4.0-0.165","17","Low_HMMActual","685.8700000448152","","","","Images/NewTrialBC.png","37"
"image-keyboard-response","516","315285","0.0-4.0-1.165","17","Low_HMMActual","null","","","","Images/BlackBeadChoice.png","null"
"image-keyboard-response","517","315789","0.0-4.0-2.165","17","Low_HMMActual","490.5000000144355","","","","Images/BlackBeadChoiceCorrect.png","37"
"image-keyboard-response","518","316302","0.0-4.0-0.166","17","Low_HMMActual","510.9900000388734","","","","Images/NewTrialBC.png","37"
"image-keyboard-response","519","316558","0.0-4.0-1.166","17","Low_HMMActual","null","","","","Images/BlackBeadChoice.png","null"
"image-keyboard-response","520","317065","0.0-4.0-2.166","17","Low_HMMActual","null","","","","Images/BlackBeadChoiceCorrect.png","null"
"image-keyboard-response","521","317072","0.0-4.0-0.167","17","Low_HMMActual","5.200000014156103","","","","Images/NewTrialBC.png","37"
"image-keyboard-response","522","317327","0.0-4.0-1.167","17","Low_HMMActual","null","","","","Images/BlackBeadChoice.png","null"
"image-keyboard-response","523","317834","0.0-4.0-2.167","17","Low_HMMActual","null","","","","Images/BlackBeadChoiceCorrect.png","null"
"image-keyboard-response","524","318045","0.0-4.0-0.168","17","Low_HMMActual","209.40000005066395","","","","Images/NewTrialBC.png","37"
"image-keyboard-response","525","318300","0.0-4.0-1.168","17","Low_HMMActual","null","","","","Images/BlackBeadChoice.png","null"
"image-keyboard-response","526","318805","0.0-4.0-2.168","17","Low_HMMActual","null","","","","Images/BlackBeadChoiceCorrect.png","null"
"image-keyboard-response","527","319154","0.0-4.0-0.169","17","Low_HMMActual","347.295000043232","","","","Images/NewTrialBC.png","37"
"image-keyboard-response","528","319411","0.0-4.0-1.169","17","Low_HMMActual","null","","","","Images/BlackBeadChoice.png","null"
"image-keyboard-response","529","319913","0.0-4.0-2.169","17","Low_HMMActual","null","","","","Images/BlackBeadChoiceCorrect.png","null"
"image-keyboard-response","530","319922","0.0-4.0-0.170","17","Low_HMMActual","8.025000046472996","","","","Images/NewTrialBC.png","37"
"image-keyboard-response","531","320174","0.0-4.0-1.170","17","Low_HMMActual","null","","","","Images/BlackBeadChoice.png","null"
"image-keyboard-response","532","320677","0.0-4.0-2.170","17","Low_HMMActual","443.0949999950826","","","","Images/BlackBeadChoiceWrong.png","39"
"image-keyboard-response","533","321423","0.0-4.0-0.171","17","Low_HMMActual","743.8100000144914","","","","Images/NewTrialWC.png","39"
"image-keyboard-response","534","321676","0.0-4.0-1.171","17","Low_HMMActual","null","","","","Images/WhiteBeadChoice.png","null"
"image-keyboard-response","535","322180","0.0-4.0-2.171","17","Low_HMMActual","430.5449999519624","","","","Images/WhiteBeadChoiceWrong.png","37"
"image-keyboard-response","536","322745","0.0-4.0-0.172","17","Low_HMMActual","563.750000030268","","","","Images/NewTrialBC.png","37"
"image-keyboard-response","537","323002","0.0-4.0-1.172","17","Low_HMMActual","null","","","","Images/BlackBeadChoice.png","null"
"image-keyboard-response","538","323509","0.0-4.0-2.172","17","Low_HMMActual","440.96500001614913","","","","Images/BlackBeadChoiceCorrect.png","37"
"image-keyboard-response","539","324033","0.0-4.0-0.173","17","Low_HMMActual","522.6249999832362","","","","Images/NewTrialBC.png","37"
"image-keyboard-response","540","324288","0.0-4.0-1.173","17","Low_HMMActual","null","","","","Images/BlackBeadChoice.png","null"
"image-keyboard-response","541","324795","0.0-4.0-2.173","17","Low_HMMActual","399.9750000075437","","","","Images/BlackBeadChoiceCorrect.png","37"
"image-keyboard-response","542","325378","0.0-4.0-0.174","17","Low_HMMActual","581.670000043232","","","","Images/NewTrialBC.png","37"
"image-keyboard-response","543","325631","0.0-4.0-1.174","17","Low_HMMActual","null","","","","Images/BlackBeadChoice.png","null"
"image-keyboard-response","544","326137","0.0-4.0-2.174","17","Low_HMMActual","377.41000001551583","","","","Images/BlackBeadChoiceCorrect.png","37"
"image-keyboard-response","545","326634","0.0-4.0-0.175","17","Low_HMMActual","495.54999999236315","","","","Images/NewTrialBC.png","37"
"image-keyboard-response","546","326888","0.0-4.0-1.175","17","Low_HMMActual","null","","","","Images/BlackBeadChoice.png","null"
"image-keyboard-response","547","327395","0.0-4.0-2.175","17","Low_HMMActual","355.7649999856949","","","","Images/BlackBeadChoiceCorrect.png","37"
"image-keyboard-response","548","327878","0.0-4.0-0.176","17","Low_HMMActual","480.86999997030944","","","","Images/NewTrialBC.png","37"
"image-keyboard-response","549","328130","0.0-4.0-1.176","17","Low_HMMActual","null","","","","Images/BlackBeadChoice.png","null"
"image-keyboard-response","550","328634","0.0-4.0-2.176","17","Low_HMMActual","416.57000000122935","","","","Images/BlackBeadChoiceCorrect.png","37"
"image-keyboard-response","551","329183","0.0-4.0-0.177","17","Low_HMMActual","546.9549999688752","","","","Images/NewTrialBC.png","37"
"image-keyboard-response","552","329439","0.0-4.0-1.177","17","Low_HMMActual","null","","","","Images/BlackBeadChoice.png","null"
"image-keyboard-response","553","329945","0.0-4.0-2.177","17","Low_HMMActual","426.19999998714775","","","","Images/BlackBeadChoiceCorrect.png","37"
"image-keyboard-response","554","330490","0.0-4.0-0.178","17","Low_HMMActual","543.9799999585375","","","","Images/NewTrialBC.png","37"
"image-keyboard-response","555","330742","0.0-4.0-1.178","17","Low_HMMActual","null","","","","Images/BlackBeadChoice.png","null"
"image-keyboard-response","556","331245","0.0-4.0-2.178","17","Low_HMMActual","388.09999998193234","","","","Images/BlackBeadChoiceCorrect.png","37"
"image-keyboard-response","557","331691","0.0-4.0-0.179","17","Low_HMMActual","444.1600000136532","","","","Images/NewTrialBC.png","37"
"image-keyboard-response","558","331944","0.0-4.0-1.179","17","Low_HMMActual","null","","","","Images/BlackBeadChoice.png","null"
"image-keyboard-response","559","332451","0.0-4.0-2.179","17","Low_HMMActual","304.245000006631","","","","Images/BlackBeadChoiceCorrect.png","37"
"image-keyboard-response","560","332793","0.0-4.0-0.180","17","Low_HMMActual","340.7399999559857","","","","Images/NewTrialBC.png","37"
"image-keyboard-response","561","333045","0.0-4.0-1.180","17","Low_HMMActual","null","","","","Images/BlackBeadChoice.png","null"
"image-keyboard-response","562","333547","0.0-4.0-2.180","17","Low_HMMActual","307.0949999964796","","","","Images/BlackBeadChoiceCorrect.png","37"
"image-keyboard-response","563","333904","0.0-4.0-0.181","17","Low_HMMActual","355.90000002412125","","","","Images/NewTrialBC.png","37"
"image-keyboard-response","564","334156","0.0-4.0-1.181","17","Low_HMMActual","null","","","","Images/BlackBeadChoice.png","null"
"image-keyboard-response","565","334662","0.0-4.0-2.181","17","Low_HMMActual","361.45999998552725","","","","Images/BlackBeadChoiceCorrect.png","37"
"image-keyboard-response","566","335042","0.0-4.0-0.182","17","Low_HMMActual","378.84000001940876","","","","Images/NewTrialBC.png","37"
"image-keyboard-response","567","335295","0.0-4.0-1.182","17","Low_HMMActual","null","","","","Images/BlackBeadChoice.png","null"
"image-keyboard-response","568","335802","0.0-4.0-2.182","17","Low_HMMActual","359.92499999701977","","","","Images/BlackBeadChoiceCorrect.png","37"
"image-keyboard-response","569","336188","0.0-4.0-0.183","17","Low_HMMActual","384.83000005362555","","","","Images/NewTrialBC.png","37"
"image-keyboard-response","570","336443","0.0-4.0-1.183","17","Low_HMMActual","null","","","","Images/BlackBeadChoice.png","null"
"image-keyboard-response","571","336947","0.0-4.0-2.183","17","Low_HMMActual","302.1350000053644","","","","Images/BlackBeadChoiceCorrect.png","37"
"image-keyboard-response","572","337276","0.0-4.0-0.184","17","Low_HMMActual","327.31999998213723","","","","Images/NewTrialBC.png","37"
"image-keyboard-response","573","337528","0.0-4.0-1.184","17","Low_HMMActual","null","","","","Images/BlackBeadChoice.png","null"
"image-keyboard-response","574","338035","0.0-4.0-2.184","17","Low_HMMActual","350.05000000819564","","","","Images/BlackBeadChoiceCorrect.png","37"
"image-keyboard-response","575","338419","0.0-4.0-0.185","17","Low_HMMActual","382.6649999828078","","","","Images/NewTrialBC.png","37"
"image-keyboard-response","576","338672","0.0-4.0-1.185","17","Low_HMMActual","null","","","","Images/BlackBeadChoice.png","null"
"image-keyboard-response","577","339174","0.0-4.0-2.185","17","Low_HMMActual","494.69999998109415","","","","Images/BlackBeadChoiceWrong.png","39"
"image-keyboard-response","578","339717","0.0-4.0-0.186","17","Low_HMMActual","541.4250000030734","","","","Images/NewTrialWC.png","39"
"image-keyboard-response","579","339969","0.0-4.0-1.186","17","Low_HMMActual","null","","","","Images/WhiteBeadChoice.png","null"
"image-keyboard-response","580","340472","0.0-4.0-2.186","17","Low_HMMActual","null","","","","Images/WhiteBeadChoiceCorrect.png","null"
"image-keyboard-response","581","340603","0.0-4.0-0.187","17","Low_HMMActual","129.78499999735504","","","","Images/NewTrialWC.png","39"
"image-keyboard-response","582","340855","0.0-4.0-1.187","17","Low_HMMActual","null","","","","Images/WhiteBeadChoice.png","null"
"image-keyboard-response","583","341357","0.0-4.0-2.187","17","Low_HMMActual","406.8299999926239","","","","Images/WhiteBeadChoiceCorrect.png","39"
"image-keyboard-response","584","341880","0.0-4.0-0.188","17","Low_HMMActual","521.7549999943003","","","","Images/NewTrialWC.png","39"
"image-keyboard-response","585","342136","0.0-4.0-1.188","17","Low_HMMActual","null","","","","Images/WhiteBeadChoice.png","null"
"image-keyboard-response","586","342642","0.0-4.0-2.188","17","Low_HMMActual","479.2250000173226","","","","Images/WhiteBeadChoiceWrong.png","37"
"image-keyboard-response","587","343259","0.0-4.0-0.189","17","Low_HMMActual","615.0250000064261","","","","Images/NewTrialBC.png","37"
"image-keyboard-response","588","343510","0.0-4.0-1.189","17","Low_HMMActual","null","","","","Images/BlackBeadChoice.png","null"
"image-keyboard-response","589","344016","0.0-4.0-2.189","17","Low_HMMActual","474.7499999939464","","","","Images/BlackBeadChoiceWrong.png","39"
"image-keyboard-response","590","344621","0.0-4.0-0.190","17","Low_HMMActual","602.7149999863468","","","","Images/NewTrialWC.png","39"
"image-keyboard-response","591","344876","0.0-4.0-1.190","17","Low_HMMActual","null","","","","Images/WhiteBeadChoice.png","null"
"image-keyboard-response","592","345383","0.0-4.0-2.190","17","Low_HMMActual","414.8999999742955","","","","Images/WhiteBeadChoiceWrong.png","37"
"image-keyboard-response","593","345888","0.0-4.0-0.191","17","Low_HMMActual","502.295000012964","","","","Images/NewTrialBC.png","37"
"image-keyboard-response","594","346139","0.0-4.0-1.191","17","Low_HMMActual","null","","","","Images/BlackBeadChoice.png","null"
"image-keyboard-response","595","346645","0.0-4.0-2.191","17","Low_HMMActual","456.64000004762784","","","","Images/BlackBeadChoiceWrong.png","39"
"image-keyboard-response","596","347246","0.0-4.0-0.192","17","Low_HMMActual","599.9249999877065","","","","Images/NewTrialWC.png","39"
"image-keyboard-response","597","347501","0.0-4.0-1.192","17","Low_HMMActual","null","","","","Images/WhiteBeadChoice.png","null"
"image-keyboard-response","598","348007","0.0-4.0-2.192","17","Low_HMMActual","424.53000001842156","","","","Images/WhiteBeadChoiceWrong.png","37"
"image-keyboard-response","599","348493","0.0-4.0-0.193","17","Low_HMMActual","483.93500002566725","","","","Images/NewTrialBC.png","37"
"image-keyboard-response","600","348750","0.0-4.0-1.193","17","Low_HMMActual","null","","","","Images/BlackBeadChoice.png","null"
"image-keyboard-response","601","349252","0.0-4.0-2.193","17","Low_HMMActual","419.07000000355765","","","","Images/BlackBeadChoiceCorrect.png","37"
"image-keyboard-response","602","349777","0.0-4.0-0.194","17","Low_HMMActual","523.5500000417233","","","","Images/NewTrialBC.png","37"
"image-keyboard-response","603","350034","0.0-4.0-1.194","17","Low_HMMActual","null","","","","Images/BlackBeadChoice.png","null"
"image-keyboard-response","604","350542","0.0-4.0-2.194","17","Low_HMMActual","452.57500000298023","","","","Images/BlackBeadChoiceWrong.png","39"
"image-keyboard-response","605","351083","0.0-4.0-0.195","17","Low_HMMActual","539.9500000057742","","","","Images/NewTrialWC.png","39"
"image-keyboard-response","606","351338","0.0-4.0-1.195","17","Low_HMMActual","null","","","","Images/WhiteBeadChoice.png","null"
"image-keyboard-response","607","351841","0.0-4.0-2.195","17","Low_HMMActual","397.034999972675","","","","Images/WhiteBeadChoiceWrong.png","37"
"image-keyboard-response","608","352339","0.0-4.0-0.196","17","Low_HMMActual","496.3349999743514","","","","Images/NewTrialBC.png","37"
"image-keyboard-response","609","352594","0.0-4.0-1.196","17","Low_HMMActual","null","","","","Images/BlackBeadChoice.png","null"
"image-keyboard-response","610","353101","0.0-4.0-2.196","17","Low_HMMActual","324.66500002192333","","","","Images/BlackBeadChoiceWrong.png","39"
"image-keyboard-response","611","353526","0.0-4.0-0.197","17","Low_HMMActual","424.08000002615154","","","","Images/NewTrialWC.png","39"
"image-keyboard-response","612","353779","0.0-4.0-1.197","17","Low_HMMActual","null","","","","Images/WhiteBeadChoice.png","null"
"image-keyboard-response","613","354286","0.0-4.0-2.197","17","Low_HMMActual","352.7299999841489","","","","Images/WhiteBeadChoiceCorrect.png","39"
"image-keyboard-response","614","354734","0.0-4.0-0.198","17","Low_HMMActual","445.6249999930151","","","","Images/NewTrialWC.png","37"
"image-keyboard-response","615","354989","0.0-4.0-1.198","17","Low_HMMActual","null","","","","Images/BlackBeadChoice.png","null"
"image-keyboard-response","616","355495","0.0-4.0-2.198","17","Low_HMMActual","327.7900000102818","","","","Images/BlackBeadChoiceCorrect.png","39"
"image-keyboard-response","617","355743","0.0-4.0-0.199","17","Low_HMMActual","246.66999996406958","","","","Images/NewTrialBC.png","37"
"image-keyboard-response","618","355995","0.0-4.0-1.199","17","Low_HMMActual","null","","","","Images/BlackBeadChoice.png","null"
"image-keyboard-response","619","356501","0.0-4.0-2.199","17","Low_HMMActual","null","","","","Images/BlackBeadChoiceWrong.png","null"
"image-keyboard-response","620","356540","0.0-4.0-0.200","17","Low_HMMActual","37.42999996757135","","","","Images/NewTrialWC.png","39"
"image-keyboard-response","621","356795","0.0-4.0-1.200","17","Low_HMMActual","null","","","","Images/WhiteBeadChoice.png","null"
"image-keyboard-response","622","357297","0.0-4.0-2.200","17","Low_HMMActual","493.9850000082515","","","","Images/WhiteBeadChoiceCorrect.png","39"
"image-keyboard-response","623","357879","0.0-4.0-0.201","17","Low_HMMActual","580.820000031963","","","","Images/NewTrialWC.png","39"
"image-keyboard-response","624","358132","0.0-4.0-1.201","17","Low_HMMActual","null","","","","Images/WhiteBeadChoice.png","null"
"image-keyboard-response","625","358639","0.0-4.0-2.201","17","Low_HMMActual","449.41499998094514","","","","Images/WhiteBeadChoiceWrong.png","37"
"image-keyboard-response","626","359218","0.0-4.0-0.202","17","Low_HMMActual","576.9250000012107","","","","Images/NewTrialBC.png","37"
"image-keyboard-response","627","359470","0.0-4.0-1.202","17","Low_HMMActual","null","","","","Images/BlackBeadChoice.png","null"
"image-keyboard-response","628","359972","0.0-4.0-2.202","17","Low_HMMActual","486.6899999906309","","","","Images/BlackBeadChoiceWrong.png","39"
"image-keyboard-response","629","360827","0.0-4.0-0.203","17","Low_HMMActual","853.4349999972619","","","","Images/NewTrialWC.png","39"
"image-keyboard-response","630","361079","0.0-4.0-1.203","17","Low_HMMActual","null","","","","Images/WhiteBeadChoice.png","null"
"image-keyboard-response","631","361586","0.0-4.0-2.203","17","Low_HMMActual","456.37999998871237","","","","Images/WhiteBeadChoiceCorrect.png","39"
"image-keyboard-response","632","362080","0.0-4.0-0.204","17","Low_HMMActual","492.38000001059845","","","","Images/NewTrialWC.png","39"
"image-keyboard-response","633","362334","0.0-4.0-1.204","17","Low_HMMActual","null","","","","Images/WhiteBeadChoice.png","null"
"image-keyboard-response","634","362841","0.0-4.0-2.204","17","Low_HMMActual","344.5349999819882","","","","Images/WhiteBeadChoiceCorrect.png","39"
"image-keyboard-response","635","363247","0.0-4.0-0.205","17","Low_HMMActual","404.44999997271225","","","","Images/NewTrialWC.png","39"
"image-keyboard-response","636","363501","0.0-4.0-1.205","17","Low_HMMActual","null","","","","Images/WhiteBeadChoice.png","null"
"image-keyboard-response","637","364008","0.0-4.0-2.205","17","Low_HMMActual","369.42000000271946","","","","Images/WhiteBeadChoiceCorrect.png","39"
"image-keyboard-response","638","364394","0.0-4.0-0.206","17","Low_HMMActual","384.38000000314787","","","","Images/NewTrialWC.png","39"
"image-keyboard-response","639","364649","0.0-4.0-1.206","17","Low_HMMActual","null","","","","Images/WhiteBeadChoice.png","null"
"image-keyboard-response","640","365152","0.0-4.0-2.206","17","Low_HMMActual","null","","","","Images/WhiteBeadChoiceWrong.png","null"
"image-keyboard-response","641","365173","0.0-4.0-0.207","17","Low_HMMActual","20.164999994449317","","","","Images/NewTrialBC.png","37"
"image-keyboard-response","642","365430","0.0-4.0-1.207","17","Low_HMMActual","null","","","","Images/BlackBeadChoice.png","null"
"image-keyboard-response","643","365931","0.0-4.0-2.207","17","Low_HMMActual","null","","","","Images/BlackBeadChoiceWrong.png","null"
"image-keyboard-response","644","365978","0.0-4.0-0.208","17","Low_HMMActual","44.894999999087304","","","","Images/NewTrialWC.png","39"
"image-keyboard-response","645","366229","0.0-4.0-1.208","17","Low_HMMActual","null","","","","Images/WhiteBeadChoice.png","null"
"image-keyboard-response","646","366736","0.0-4.0-2.208","17","Low_HMMActual","475.2800000132993","","","","Images/WhiteBeadChoiceWrong.png","37"
"image-keyboard-response","647","367297","0.0-4.0-0.209","17","Low_HMMActual","558.2849999773316","","","","Images/NewTrialBC.png","37"
"image-keyboard-response","648","367550","0.0-4.0-1.209","17","Low_HMMActual","null","","","","Images/BlackBeadChoice.png","null"
"image-keyboard-response","649","368052","0.0-4.0-2.209","17","Low_HMMActual","null","","","","Images/BlackBeadChoiceWrong.png","null"
"image-keyboard-response","650","368064","0.0-4.0-0.210","17","Low_HMMActual","10.064999980386347","","","","Images/NewTrialWC.png","39"
"image-keyboard-response","651","368316","0.0-4.0-1.210","17","Low_HMMActual","null","","","","Images/WhiteBeadChoice.png","null"
"image-keyboard-response","652","368821","0.0-4.0-2.210","17","Low_HMMActual","394.6049999794923","","","","Images/WhiteBeadChoiceCorrect.png","39"
"image-keyboard-response","653","369371","0.0-4.0-0.211","17","Low_HMMActual","548.5999999800697","","","","Images/NewTrialWC.png","39"
"image-keyboard-response","654","369627","0.0-4.0-1.211","17","Low_HMMActual","null","","","","Images/WhiteBeadChoice.png","null"
"image-keyboard-response","655","370133","0.0-4.0-2.211","17","Low_HMMActual","418.86500001419336","","","","Images/WhiteBeadChoiceCorrect.png","39"
"image-keyboard-response","656","370653","0.0-4.0-0.212","17","Low_HMMActual","518.3599999872968","","","","Images/NewTrialWC.png","39"
"image-keyboard-response","657","370908","0.0-4.0-1.212","17","Low_HMMActual","null","","","","Images/WhiteBeadChoice.png","null"
"image-keyboard-response","658","371415","0.0-4.0-2.212","17","Low_HMMActual","411.76499996799976","","","","Images/WhiteBeadChoiceCorrect.png","39"
"image-keyboard-response","659","371882","0.0-4.0-0.213","17","Low_HMMActual","465.3099999995902","","","","Images/NewTrialWC.png","39"
"image-keyboard-response","660","372136","0.0-4.0-1.213","17","Low_HMMActual","null","","","","Images/WhiteBeadChoice.png","null"
"image-keyboard-response","661","372643","0.0-4.0-2.213","17","Low_HMMActual","330.6800000136718","","","","Images/WhiteBeadChoiceCorrect.png","39"
"image-keyboard-response","662","373054","0.0-4.0-0.214","17","Low_HMMActual","408.69000001112","","","","Images/NewTrialWC.png","39"
"image-keyboard-response","663","373309","0.0-4.0-1.214","17","Low_HMMActual","null","","","","Images/WhiteBeadChoice.png","null"
"image-keyboard-response","664","373816","0.0-4.0-2.214","17","Low_HMMActual","null","","","","Images/WhiteBeadChoiceWrong.png","null"
"image-keyboard-response","665","373867","0.0-4.0-0.215","17","Low_HMMActual","49.245000001974404","","","","Images/NewTrialBC.png","37"
"image-keyboard-response","666","374120","0.0-4.0-1.215","17","Low_HMMActual","null","","","","Images/BlackBeadChoice.png","null"
"image-keyboard-response","667","374626","0.0-4.0-2.215","17","Low_HMMActual","485.8850000309758","","","","Images/BlackBeadChoiceWrong.png","39"
"image-keyboard-response","668","375141","0.0-4.0-0.216","17","Low_HMMActual","513.8549999683164","","","","Images/NewTrialWC.png","39"
"image-keyboard-response","669","375395","0.0-4.0-1.216","17","Low_HMMActual","null","","","","Images/WhiteBeadChoice.png","null"
"image-keyboard-response","670","375899","0.0-4.0-2.216","17","Low_HMMActual","467.1150000067428","","","","Images/WhiteBeadChoiceCorrect.png","39"
"image-keyboard-response","671","376451","0.0-4.0-0.217","17","Low_HMMActual","550.3150000004098","","","","Images/NewTrialWC.png","39"
"image-keyboard-response","672","376708","0.0-4.0-1.217","17","Low_HMMActual","null","","","","Images/WhiteBeadChoice.png","null"
"image-keyboard-response","673","377214","0.0-4.0-2.217","17","Low_HMMActual","398.4700000146404","","","","Images/WhiteBeadChoiceCorrect.png","39"
"image-keyboard-response","674","377615","0.0-4.0-0.218","17","Low_HMMActual","399.5499999728054","","","","Images/NewTrialWC.png","39"
"image-keyboard-response","675","377872","0.0-4.0-1.218","17","Low_HMMActual","null","","","","Images/WhiteBeadChoice.png","null"
"image-keyboard-response","676","378379","0.0-4.0-2.218","17","Low_HMMActual","337.3950000386685","","","","Images/WhiteBeadChoiceCorrect.png","39"
"image-keyboard-response","677","378723","0.0-4.0-0.219","17","Low_HMMActual","342.34999999171123","","","","Images/NewTrialWC.png","39"
"image-keyboard-response","678","378976","0.0-4.0-1.219","17","Low_HMMActual","null","","","","Images/WhiteBeadChoice.png","null"
"image-keyboard-response","679","379479","0.0-4.0-2.219","17","Low_HMMActual","331.9599999813363","","","","Images/WhiteBeadChoiceCorrect.png","39"
"image-keyboard-response","680","379801","0.0-4.0-0.220","17","Low_HMMActual","320.4249999835156","","","","Images/NewTrialWC.png","39"
"image-keyboard-response","681","380055","0.0-4.0-1.220","17","Low_HMMActual","null","","","","Images/WhiteBeadChoice.png","null"
"image-keyboard-response","682","380562","0.0-4.0-2.220","17","Low_HMMActual","314.23499999800697","","","","Images/WhiteBeadChoiceCorrect.png","39"
"image-keyboard-response","683","380904","0.0-4.0-0.221","17","Low_HMMActual","340.4399999999441","","","","Images/NewTrialWC.png","39"
"image-keyboard-response","684","381155","0.0-4.0-1.221","17","Low_HMMActual","null","","","","Images/WhiteBeadChoice.png","null"
"image-keyboard-response","685","381658","0.0-4.0-2.221","17","Low_HMMActual","477.9349999735132","","","","Images/WhiteBeadChoiceWrong.png","37"
"image-keyboard-response","686","382312","0.0-4.0-0.222","17","Low_HMMActual","652.2250000271015","","","","Images/NewTrialBC.png","37"
"image-keyboard-response","687","382566","0.0-4.0-1.222","17","Low_HMMActual","null","","","","Images/BlackBeadChoice.png","null"
"image-keyboard-response","688","383072","0.0-4.0-2.222","17","Low_HMMActual","390.1049999985844","","","","Images/BlackBeadChoiceCorrect.png","37"
"image-keyboard-response","689","383464","0.0-4.0-0.223","17","Low_HMMActual","391.18500001495704","","","","Images/NewTrialBC.png","37"
"image-keyboard-response","690","383717","0.0-4.0-1.223","17","Low_HMMActual","null","","","","Images/BlackBeadChoice.png","null"
"image-keyboard-response","691","384224","0.0-4.0-2.223","17","Low_HMMActual","338.05500000016764","","","","Images/BlackBeadChoiceCorrect.png","37"
"image-keyboard-response","692","384597","0.0-4.0-0.224","17","Low_HMMActual","371.54999998165295","","","","Images/NewTrialBC.png","37"
"image-keyboard-response","693","384850","0.0-4.0-1.224","17","Low_HMMActual","null","","","","Images/BlackBeadChoice.png","null"
"image-keyboard-response","694","385356","0.0-4.0-2.224","17","Low_HMMActual","301.84500000905246","","","","Images/BlackBeadChoiceCorrect.png","37"
"image-keyboard-response","695","385663","0.0-4.0-0.225","17","Low_HMMActual","304.38499996671453","","","","Images/NewTrialBC.png","37"
"image-keyboard-response","696","385916","0.0-4.0-1.225","17","Low_HMMActual","null","","","","Images/BlackBeadChoice.png","null"
"image-keyboard-response","697","386421","0.0-4.0-2.225","17","Low_HMMActual","292.879999964498","","","","Images/BlackBeadChoiceCorrect.png","37"
"image-keyboard-response","698","386696","0.0-4.0-0.226","17","Low_HMMActual","273.03000004030764","","","","Images/NewTrialBC.png","37"
"image-keyboard-response","699","386948","0.0-4.0-1.226","17","Low_HMMActual","null","","","","Images/BlackBeadChoice.png","null"
"image-keyboard-response","700","387455","0.0-4.0-2.226","17","Low_HMMActual","275.83999995840713","","","","Images/BlackBeadChoiceCorrect.png","37"
"image-keyboard-response","701","387916","0.0-4.0-0.227","17","Low_HMMActual","459.15000000968575","","","","Images/NewTrialBC.png","37"
"image-keyboard-response","702","388167","0.0-4.0-1.227","17","Low_HMMActual","null","","","","Images/BlackBeadChoice.png","null"
"image-keyboard-response","703","388673","0.0-4.0-2.227","17","Low_HMMActual","473.3600000035949","","","","Images/BlackBeadChoiceCorrect.png","37"
"image-keyboard-response","704","389203","0.0-4.0-0.228","17","Low_HMMActual","527.6500000036322","","","","Images/NewTrialBC.png","37"
"image-keyboard-response","705","389454","0.0-4.0-1.228","17","Low_HMMActual","null","","","","Images/BlackBeadChoice.png","null"
"image-keyboard-response","706","389956","0.0-4.0-2.228","17","Low_HMMActual","335.92000004136935","","","","Images/BlackBeadChoiceCorrect.png","37"
"image-keyboard-response","707","390396","0.0-4.0-0.229","17","Low_HMMActual","438.010000041686","","","","Images/NewTrialBC.png","37"
"image-keyboard-response","708","390648","0.0-4.0-1.229","17","Low_HMMActual","null","","","","Images/BlackBeadChoice.png","null"
"image-keyboard-response","709","391151","0.0-4.0-2.229","17","Low_HMMActual","397.90999999968335","","","","Images/BlackBeadChoiceCorrect.png","37"
"image-keyboard-response","710","391607","0.0-4.0-0.230","17","Low_HMMActual","454.22999997390434","","","","Images/NewTrialBC.png","37"
"image-keyboard-response","711","391859","0.0-4.0-1.230","17","Low_HMMActual","null","","","","Images/BlackBeadChoice.png","null"
