"trial_type","trial_index","time_elapsed","internal_node_id","Script_Picker","Block_Type","rt","url","responses","question_order","stimulus","key_press"
"pavlovia","0","7","0.0-0.0","2","High_HMMActual","","","","","",""
"external-html","1","14733","0.0-1.0-0.0","2","High_HMMActual","14684.690000023693","consent.html","","","",""
"survey-multi-choice","2","23705","0.0-1.0-1.0","2","High_HMMActual","8969.00500007905","","{""Q0"":""Female"",""Q1"":""White""}","[0,1]","",""
"survey-text","3","27252","0.0-1.0-2.0","2","High_HMMActual","3543.7749999109656","","{""Q0"":""19""}","","",""
"survey-text","4","34078","0.0-1.0-3.0","2","High_HMMActual","6718.970000045374","","{""Q0"":""5ef1bf65b681b07df6e7ef80""}","","",""
"html-keyboard-response","5","43686","0.0-2.0-0.0","2","High_HMMActual","9491.42500013113","","","","<div class=""container"" style=""height:800px;width:800px;display:flex;flex-direction:column;justify-content:center;align-items:center;text-align:center;font-weight:normal;font-family:Arial;font-size:20px""><p>In this task you will see black or white beads being pulled from jars. <br><br>On each trial, a bead will be pulled from one of two jars. Once you see this bead, your goal is to predict the color of NEXT bead that will be pulled. <br> <br>Every time you correctly guess the color of the NEXT bead, you will get a point. <br><br>Press the SPACEBAR to continue.</p><div>","32"
"html-keyboard-response","6","51446","0.0-2.0-1.0","2","High_HMMActual","7757.93999992311","","","","<div class=""container"" style=""height:800px;width:800px;display:flex;flex-direction:column;justify-content:center;align-items:center;text-align:center;font-weight:normal;font-family:Arial;font-size:20px""><p>Jars are filled with 80% white or black beads and 20% of the opposite color mixed in.<br><br>Press the SPACEBAR to continue. </p><div>","32"
"image-keyboard-response","7","59719","0.0-2.0-2.0","2","High_HMMActual","8269.644999876618","","","","resources/WhiteJar_HMM.png","32"
"image-keyboard-response","8","61758","0.0-2.0-3.0","2","High_HMMActual","2037.4499999452382","","","","resources/BlackJar_HMM.png","32"
"html-keyboard-response","9","66135","0.0-2.0-4.0","2","High_HMMActual","4375.165000092238","","","","<div class=""container"" style=""height:800px;width:800px;display:flex;flex-direction:column;justify-content:center;align-items:center;text-align:center;font-weight:normal;font-family:Arial;font-size:20px""><p>There will be two blocks of trials. Each block will contain 500 trials. <br><br>Here are examples of what you will see on each trial.<br><br>Press the SPACEBAR to continue. </p><div>","32"
"image-keyboard-response","10","72979","0.0-2.0-5.0","2","High_HMMActual","6842.420000117272","","","","Images/NoChoice.png","32"
"html-keyboard-response","11","99340","0.0-2.0-6.0","2","High_HMMActual","26360.044999979436","","","","<div class=""container"" style=""height:800px;width:800px;display:flex;flex-direction:column;justify-content:center;align-items:center;text-align:center;font-weight:normal;font-family:Arial;font-size:20px""><p> The jar the beads are pulled from is NOT choosen at random on each trial.<br><br>After each prediction, there will be a chance that the jars will switch, and that the next bead will be pulled from the opposite jar as the previous trial.<br><br>In each block, the chance that a jar will switch will either be LOW (the jars will not switch very often), or HIGH (the jars will switch almost all the time).<br><br>At the start of each block, you will be told the probability that the jars will switch on each trial. This switch probability will stay constant throughout the block.<br><br>We will now show you some examples of beads being drawn from jars. The bead will appear in the middle of the screen, and the jar the bead was pulled from will be indicated with a black rectangle.<br><br>Press the SPACEBAR to continue. </p><div>","32"
"image-keyboard-response","12","106569","0.0-2.0-7.0","2","High_HMMActual","7227.544999914244","","","","Images/TutorialWhiteJarDrawHMMC.png","32"
"image-keyboard-response","13","109766","0.0-2.0-8.0","2","High_HMMActual","3195.204999996349","","","","Images/TutorialBlackJarDrawHMMC.png","32"
"image-keyboard-response","14","113717","0.0-2.0-9.0","2","High_HMMActual","3950.2350001130253","","","","Images/TutorialBlackJarDrawHMMI.png","32"
"html-keyboard-response","15","134638","0.0-2.0-10.0","2","High_HMMActual","20919.280000030994","","","","<div class=""container"" style=""height:800px;width:800px;display:flex;flex-direction:column;justify-content:center;align-items:center;text-align:center;font-weight:normal;font-family:Arial;font-size:20px""><p> As you observed, a white bead was pulled from a 80% white jar, the jars switched and a black bead was pulled from the 80% black jar, but then a low-probability white bead was pulled from the 80% black jar. <br><br>Because the jars have a mix of white and black beads, the best strategy to predict the next bead is to first figure out which jar the current bead was pulled from, then use the jar switch probability to predict which jar will be drawn from next.<br><br>Press SPACEBAR to conitnue.</p><div>","32"
"html-keyboard-response","16","138327","0.0-2.0-11.0","2","High_HMMActual","3687.849999871105","","","","<div class=""container"" style=""height:800px;width:800px;display:flex;flex-direction:column;justify-content:center;align-items:center;text-align:center;font-weight:normal;font-family:Arial;font-size:20px""><p> You will now be given a 2 question quiz to make sure you understand the task. </p><div>","32"
"image-keyboard-response","17","144036","0.0-2.0-12.0","2","High_HMMActual","5708.24999990873","","","","Images/TutorialQuestion1.png","39"
"image-keyboard-response","18","150261","0.0-2.0-13.0","2","High_HMMActual","3756.8949998822063","","","","Images/TutorialQuestion2.png","38"
"html-keyboard-response","19","171658","0.0-3.0","2","High_HMMActual","20134.369999868795","","","","<div class=""container"" style=""height:800px;width:800px;display:flex;flex-direction:column;justify-content:center;align-items:center;text-align:center;font-weight:normal;font-family:Arial;font-size:20px""><p>Loading episode&hellip;</p><div>","32"
"image-keyboard-response","20","173777","0.0-4.0-0.0","2","High_HMMActual","2116.690000053495","","","","Images/NoChoice.png","37"
"image-keyboard-response","21","174185","0.0-4.0-1.0","2","High_HMMActual","null","","","","Images/BlackBeadChoice.png","null"
"image-keyboard-response","22","174895","0.0-4.0-2.0","2","High_HMMActual","null","","","","Images/BlackBeadChoiceCorrect.png","null"
"image-keyboard-response","23","178221","0.0-4.0-0.1","2","High_HMMActual","3324.305000016466","","","","Images/NewTrialBC.png","39"
"image-keyboard-response","24","178650","0.0-4.0-1.1","2","High_HMMActual","null","","","","Images/WhiteBeadChoice.png","null"
"image-keyboard-response","25","179354","0.0-4.0-2.1","2","High_HMMActual","null","","","","Images/WhiteBeadChoiceCorrect.png","null"
"image-keyboard-response","26","180207","0.0-4.0-0.2","2","High_HMMActual","851.0900000110269","","","","Images/NewTrialWC.png","37"
"image-keyboard-response","27","180623","0.0-4.0-1.2","2","High_HMMActual","null","","","","Images/BlackBeadChoice.png","null"
"image-keyboard-response","28","181325","0.0-4.0-2.2","2","High_HMMActual","null","","","","Images/BlackBeadChoiceCorrect.png","null"
"image-keyboard-response","29","182938","0.0-4.0-0.3","2","High_HMMActual","1611.6649999748915","","","","Images/NewTrialBC.png","39"
"image-keyboard-response","30","183352","0.0-4.0-1.3","2","High_HMMActual","null","","","","Images/WhiteBeadChoice.png","null"
"image-keyboard-response","31","184065","0.0-4.0-2.3","2","High_HMMActual","null","","","","Images/WhiteBeadChoiceCorrect.png","null"
"image-keyboard-response","32","184766","0.0-4.0-0.4","2","High_HMMActual","698.7149999476969","","","","Images/NewTrialWC.png","37"
"image-keyboard-response","33","185179","0.0-4.0-1.4","2","High_HMMActual","null","","","","Images/BlackBeadChoice.png","null"
"image-keyboard-response","34","185888","0.0-4.0-2.4","2","High_HMMActual","null","","","","Images/BlackBeadChoiceCorrect.png","null"
"image-keyboard-response","35","186366","0.0-4.0-0.5","2","High_HMMActual","476.8550000153482","","","","Images/NewTrialBC.png","39"
"image-keyboard-response","36","186775","0.0-4.0-1.5","2","High_HMMActual","null","","","","Images/WhiteBeadChoice.png","null"
"image-keyboard-response","37","187478","0.0-4.0-2.5","2","High_HMMActual","null","","","","Images/WhiteBeadChoiceCorrect.png","null"
"image-keyboard-response","38","187943","0.0-4.0-0.6","2","High_HMMActual","463.11999997124076","","","","Images/NewTrialWC.png","37"
"image-keyboard-response","39","188345","0.0-4.0-1.6","2","High_HMMActual","null","","","","Images/BlackBeadChoice.png","null"
"image-keyboard-response","40","189058","0.0-4.0-2.6","2","High_HMMActual","null","","","","Images/BlackBeadChoiceWrong.png","null"
"image-keyboard-response","41","190244","0.0-4.0-0.7","2","High_HMMActual","1183.9350000955164","","","","Images/NewTrialWC.png","39"
"image-keyboard-response","42","190651","0.0-4.0-1.7","2","High_HMMActual","null","","","","Images/WhiteBeadChoice.png","null"
"image-keyboard-response","43","191354","0.0-4.0-2.7","2","High_HMMActual","null","","","","Images/WhiteBeadChoiceCorrect.png","null"
"image-keyboard-response","44","191860","0.0-4.0-0.8","2","High_HMMActual","504.52499999664724","","","","Images/NewTrialWC.png","37"
"image-keyboard-response","45","192274","0.0-4.0-1.8","2","High_HMMActual","null","","","","Images/BlackBeadChoice.png","null"
"image-keyboard-response","46","192983","0.0-4.0-2.8","2","High_HMMActual","null","","","","Images/BlackBeadChoiceCorrect.png","null"
"image-keyboard-response","47","193603","0.0-4.0-0.9","2","High_HMMActual","618.965000147","","","","Images/NewTrialBC.png","39"
"image-keyboard-response","48","194019","0.0-4.0-1.9","2","High_HMMActual","null","","","","Images/WhiteBeadChoice.png","null"
"image-keyboard-response","49","194729","0.0-4.0-2.9","2","High_HMMActual","null","","","","Images/WhiteBeadChoiceCorrect.png","null"
"image-keyboard-response","50","195194","0.0-4.0-0.10","2","High_HMMActual","462.8899998497218","","","","Images/NewTrialWC.png","37"
"image-keyboard-response","51","195598","0.0-4.0-1.10","2","High_HMMActual","null","","","","Images/BlackBeadChoice.png","null"
"image-keyboard-response","52","196308","0.0-4.0-2.10","2","High_HMMActual","null","","","","Images/BlackBeadChoiceWrong.png","null"
"image-keyboard-response","53","197126","0.0-4.0-0.11","2","High_HMMActual","815.6250000465661","","","","Images/NewTrialWC.png","39"
"image-keyboard-response","54","197534","0.0-4.0-1.11","2","High_HMMActual","null","","","","Images/WhiteBeadChoice.png","null"
"image-keyboard-response","55","198240","0.0-4.0-2.11","2","High_HMMActual","null","","","","Images/WhiteBeadChoiceCorrect.png","null"
"image-keyboard-response","56","198875","0.0-4.0-0.12","2","High_HMMActual","633.3599998615682","","","","Images/NewTrialWC.png","37"
"image-keyboard-response","57","199280","0.0-4.0-1.12","2","High_HMMActual","null","","","","Images/BlackBeadChoice.png","null"
"image-keyboard-response","58","199993","0.0-4.0-2.12","2","High_HMMActual","null","","","","Images/BlackBeadChoiceCorrect.png","null"
"image-keyboard-response","59","200604","0.0-4.0-0.13","2","High_HMMActual","609.2499999795109","","","","Images/NewTrialBC.png","39"
"image-keyboard-response","60","201023","0.0-4.0-1.13","2","High_HMMActual","null","","","","Images/WhiteBeadChoice.png","null"
"image-keyboard-response","61","201729","0.0-4.0-2.13","2","High_HMMActual","null","","","","Images/WhiteBeadChoiceCorrect.png","null"
"image-keyboard-response","62","202139","0.0-4.0-0.14","2","High_HMMActual","408.22999994270504","","","","Images/NewTrialWC.png","37"
"image-keyboard-response","63","202547","0.0-4.0-1.14","2","High_HMMActual","null","","","","Images/BlackBeadChoice.png","null"
"image-keyboard-response","64","203264","0.0-4.0-2.14","2","High_HMMActual","null","","","","Images/BlackBeadChoiceCorrect.png","null"
"image-keyboard-response","65","203712","0.0-4.0-0.15","2","High_HMMActual","446.2300001177937","","","","Images/NewTrialBC.png","39"
"image-keyboard-response","66","204122","0.0-4.0-1.15","2","High_HMMActual","null","","","","Images/WhiteBeadChoice.png","null"
"image-keyboard-response","67","204827","0.0-4.0-2.15","2","High_HMMActual","null","","","","Images/WhiteBeadChoiceCorrect.png","null"
"image-keyboard-response","68","205268","0.0-4.0-0.16","2","High_HMMActual","439.8399998899549","","","","Images/NewTrialWC.png","37"
"image-keyboard-response","69","205674","0.0-4.0-1.16","2","High_HMMActual","null","","","","Images/BlackBeadChoice.png","null"
"image-keyboard-response","70","206384","0.0-4.0-2.16","2","High_HMMActual","null","","","","Images/BlackBeadChoiceCorrect.png","null"
"image-keyboard-response","71","206924","0.0-4.0-0.17","2","High_HMMActual","537.8250000067055","","","","Images/NewTrialBC.png","39"
"image-keyboard-response","72","207330","0.0-4.0-1.17","2","High_HMMActual","null","","","","Images/WhiteBeadChoice.png","null"
"image-keyboard-response","73","208042","0.0-4.0-2.17","2","High_HMMActual","null","","","","Images/WhiteBeadChoiceCorrect.png","null"
"image-keyboard-response","74","208491","0.0-4.0-0.18","2","High_HMMActual","447.5450001191348","","","","Images/NewTrialWC.png","37"
"image-keyboard-response","75","208899","0.0-4.0-1.18","2","High_HMMActual","null","","","","Images/BlackBeadChoice.png","null"
"image-keyboard-response","76","209603","0.0-4.0-2.18","2","High_HMMActual","null","","","","Images/BlackBeadChoiceCorrect.png","null"
"image-keyboard-response","77","210151","0.0-4.0-0.19","2","High_HMMActual","546.3700001128018","","","","Images/NewTrialBC.png","39"
"image-keyboard-response","78","210566","0.0-4.0-1.19","2","High_HMMActual","null","","","","Images/WhiteBeadChoice.png","null"
"image-keyboard-response","79","211273","0.0-4.0-2.19","2","High_HMMActual","null","","","","Images/WhiteBeadChoiceWrong.png","null"
"image-keyboard-response","80","211768","0.0-4.0-0.20","2","High_HMMActual","493.50500013679266","","","","Images/NewTrialBC.png","37"
"image-keyboard-response","81","212171","0.0-4.0-1.20","2","High_HMMActual","null","","","","Images/BlackBeadChoice.png","null"
"image-keyboard-response","82","212878","0.0-4.0-2.20","2","High_HMMActual","null","","","","Images/BlackBeadChoiceCorrect.png","null"
"image-keyboard-response","83","213297","0.0-4.0-0.21","2","High_HMMActual","417.29000001214445","","","","Images/NewTrialBC.png","39"
"image-keyboard-response","84","213713","0.0-4.0-1.21","2","High_HMMActual","null","","","","Images/WhiteBeadChoice.png","null"
"image-keyboard-response","85","214431","0.0-4.0-2.21","2","High_HMMActual","null","","","","Images/WhiteBeadChoiceCorrect.png","null"
"image-keyboard-response","86","214798","0.0-4.0-0.22","2","High_HMMActual","364.89500012248755","","","","Images/NewTrialWC.png","37"
"image-keyboard-response","87","215213","0.0-4.0-1.22","2","High_HMMActual","null","","","","Images/BlackBeadChoice.png","null"
"image-keyboard-response","88","215945","0.0-4.0-2.22","2","High_HMMActual","null","","","","Images/BlackBeadChoiceCorrect.png","null"
"image-keyboard-response","89","216403","0.0-4.0-0.23","2","High_HMMActual","456.9049999117851","","","","Images/NewTrialBC.png","39"
"image-keyboard-response","90","216813","0.0-4.0-1.23","2","High_HMMActual","null","","","","Images/WhiteBeadChoice.png","null"
"image-keyboard-response","91","217527","0.0-4.0-2.23","2","High_HMMActual","null","","","","Images/WhiteBeadChoiceCorrect.png","null"
"image-keyboard-response","92","217893","0.0-4.0-0.24","2","High_HMMActual","363.45999990589917","","","","Images/NewTrialWC.png","37"
"image-keyboard-response","93","218306","0.0-4.0-1.24","2","High_HMMActual","null","","","","Images/BlackBeadChoice.png","null"
"image-keyboard-response","94","219010","0.0-4.0-2.24","2","High_HMMActual","null","","","","Images/BlackBeadChoiceCorrect.png","null"
"image-keyboard-response","95","219378","0.0-4.0-0.25","2","High_HMMActual","365.88499997742474","","","","Images/NewTrialBC.png","39"
"image-keyboard-response","96","219780","0.0-4.0-1.25","2","High_HMMActual","null","","","","Images/WhiteBeadChoice.png","null"
"image-keyboard-response","97","220499","0.0-4.0-2.25","2","High_HMMActual","null","","","","Images/WhiteBeadChoiceCorrect.png","null"
"image-keyboard-response","98","220911","0.0-4.0-0.26","2","High_HMMActual","410.35000002011657","","","","Images/NewTrialWC.png","37"
"image-keyboard-response","99","221316","0.0-4.0-1.26","2","High_HMMActual","null","","","","Images/BlackBeadChoice.png","null"
"image-keyboard-response","100","222023","0.0-4.0-2.26","2","High_HMMActual","null","","","","Images/BlackBeadChoiceCorrect.png","null"
"image-keyboard-response","101","222438","0.0-4.0-0.27","2","High_HMMActual","412.72500017657876","","","","Images/NewTrialBC.png","39"
"image-keyboard-response","102","222843","0.0-4.0-1.27","2","High_HMMActual","null","","","","Images/WhiteBeadChoice.png","null"
"image-keyboard-response","103","223557","0.0-4.0-2.27","2","High_HMMActual","null","","","","Images/WhiteBeadChoiceCorrect.png","null"
"image-keyboard-response","104","223898","0.0-4.0-0.28","2","High_HMMActual","338.87999993748963","","","","Images/NewTrialWC.png","37"
"image-keyboard-response","105","224314","0.0-4.0-1.28","2","High_HMMActual","null","","","","Images/BlackBeadChoice.png","null"
"image-keyboard-response","106","225028","0.0-4.0-2.28","2","High_HMMActual","null","","","","Images/BlackBeadChoiceCorrect.png","null"
"image-keyboard-response","107","225381","0.0-4.0-0.29","2","High_HMMActual","351.08000016771257","","","","Images/NewTrialBC.png","39"
"image-keyboard-response","108","225796","0.0-4.0-1.29","2","High_HMMActual","null","","","","Images/WhiteBeadChoice.png","null"
"image-keyboard-response","109","226506","0.0-4.0-2.29","2","High_HMMActual","null","","","","Images/WhiteBeadChoiceCorrect.png","null"
"image-keyboard-response","110","226843","0.0-4.0-0.30","2","High_HMMActual","334.96000012382865","","","","Images/NewTrialWC.png","37"
"image-keyboard-response","111","227263","0.0-4.0-1.30","2","High_HMMActual","null","","","","Images/BlackBeadChoice.png","null"
"image-keyboard-response","112","227986","0.0-4.0-2.30","2","High_HMMActual","null","","","","Images/BlackBeadChoiceCorrect.png","null"
"image-keyboard-response","113","228448","0.0-4.0-0.31","2","High_HMMActual","460.6699999421835","","","","Images/NewTrialBC.png","39"
"image-keyboard-response","114","228868","0.0-4.0-1.31","2","High_HMMActual","null","","","","Images/WhiteBeadChoice.png","null"
"image-keyboard-response","115","229574","0.0-4.0-2.31","2","High_HMMActual","null","","","","Images/WhiteBeadChoiceCorrect.png","null"
"image-keyboard-response","116","229901","0.0-4.0-0.32","2","High_HMMActual","326.17000001482666","","","","Images/NewTrialWC.png","37"
"image-keyboard-response","117","230306","0.0-4.0-1.32","2","High_HMMActual","null","","","","Images/BlackBeadChoice.png","null"
"image-keyboard-response","118","231024","0.0-4.0-2.32","2","High_HMMActual","null","","","","Images/BlackBeadChoiceCorrect.png","null"
"image-keyboard-response","119","231388","0.0-4.0-0.33","2","High_HMMActual","362.24000016227365","","","","Images/NewTrialBC.png","39"
"image-keyboard-response","120","231796","0.0-4.0-1.33","2","High_HMMActual","null","","","","Images/WhiteBeadChoice.png","null"
"image-keyboard-response","121","232498","0.0-4.0-2.33","2","High_HMMActual","null","","","","Images/WhiteBeadChoiceCorrect.png","null"
"image-keyboard-response","122","232853","0.0-4.0-0.34","2","High_HMMActual","353.2049998175353","","","","Images/NewTrialWC.png","37"
"image-keyboard-response","123","233267","0.0-4.0-1.34","2","High_HMMActual","null","","","","Images/BlackBeadChoice.png","null"
"image-keyboard-response","124","233990","0.0-4.0-2.34","2","High_HMMActual","null","","","","Images/BlackBeadChoiceCorrect.png","null"
"image-keyboard-response","125","234713","0.0-4.0-0.35","2","High_HMMActual","721.5999998152256","","","","Images/NewTrialBC.png","39"
"image-keyboard-response","126","235117","0.0-4.0-1.35","2","High_HMMActual","null","","","","Images/WhiteBeadChoice.png","null"
"image-keyboard-response","127","235820","0.0-4.0-2.35","2","High_HMMActual","null","","","","Images/WhiteBeadChoiceWrong.png","null"
"image-keyboard-response","128","236165","0.0-4.0-0.36","2","High_HMMActual","343.88000005856156","","","","Images/NewTrialBC.png","37"
"image-keyboard-response","129","236578","0.0-4.0-1.36","2","High_HMMActual","null","","","","Images/BlackBeadChoice.png","null"
"image-keyboard-response","130","237281","0.0-4.0-2.36","2","High_HMMActual","null","","","","Images/BlackBeadChoiceCorrect.png","null"
"image-keyboard-response","131","237636","0.0-4.0-0.37","2","High_HMMActual","353.61500014550984","","","","Images/NewTrialBC.png","39"
"image-keyboard-response","132","238053","0.0-4.0-1.37","2","High_HMMActual","null","","","","Images/WhiteBeadChoice.png","null"
"image-keyboard-response","133","238763","0.0-4.0-2.37","2","High_HMMActual","null","","","","Images/WhiteBeadChoiceCorrect.png","null"
"image-keyboard-response","134","239065","0.0-4.0-0.38","2","High_HMMActual","301.0599999688566","","","","Images/NewTrialWC.png","37"
"image-keyboard-response","135","239469","0.0-4.0-1.38","2","High_HMMActual","null","","","","Images/BlackBeadChoice.png","null"
"image-keyboard-response","136","240172","0.0-4.0-2.38","2","High_HMMActual","null","","","","Images/BlackBeadChoiceCorrect.png","null"
"image-keyboard-response","137","240517","0.0-4.0-0.39","2","High_HMMActual","343.3349998667836","","","","Images/NewTrialBC.png","39"
"image-keyboard-response","138","240923","0.0-4.0-1.39","2","High_HMMActual","null","","","","Images/WhiteBeadChoice.png","null"
"image-keyboard-response","139","241630","0.0-4.0-2.39","2","High_HMMActual","null","","","","Images/WhiteBeadChoiceWrong.png","null"
"image-keyboard-response","140","241953","0.0-4.0-0.40","2","High_HMMActual","321.70500000938773","","","","Images/NewTrialBC.png","37"
"image-keyboard-response","141","242370","0.0-4.0-1.40","2","High_HMMActual","null","","","","Images/BlackBeadChoice.png","null"
"image-keyboard-response","142","243077","0.0-4.0-2.40","2","High_HMMActual","null","","","","Images/BlackBeadChoiceCorrect.png","null"
"image-keyboard-response","143","243477","0.0-4.0-0.41","2","High_HMMActual","398.22500012815","","","","Images/NewTrialBC.png","39"
"image-keyboard-response","144","243880","0.0-4.0-1.41","2","High_HMMActual","null","","","","Images/WhiteBeadChoice.png","null"
"image-keyboard-response","145","244602","0.0-4.0-2.41","2","High_HMMActual","null","","","","Images/WhiteBeadChoiceCorrect.png","null"
"image-keyboard-response","146","244994","0.0-4.0-0.42","2","High_HMMActual","390.0800000410527","","","","Images/NewTrialWC.png","37"
"image-keyboard-response","147","245409","0.0-4.0-1.42","2","High_HMMActual","null","","","","Images/BlackBeadChoice.png","null"
"image-keyboard-response","148","246115","0.0-4.0-2.42","2","High_HMMActual","null","","","","Images/BlackBeadChoiceWrong.png","null"
"image-keyboard-response","149","246546","0.0-4.0-0.43","2","High_HMMActual","429.8549999948591","","","","Images/NewTrialWC.png","39"
"image-keyboard-response","150","246959","0.0-4.0-1.43","2","High_HMMActual","null","","","","Images/WhiteBeadChoice.png","null"
"image-keyboard-response","151","247662","0.0-4.0-2.43","2","High_HMMActual","null","","","","Images/WhiteBeadChoiceWrong.png","null"
"image-keyboard-response","152","248074","0.0-4.0-0.44","2","High_HMMActual","410.33999994397163","","","","Images/NewTrialBC.png","37"
"image-keyboard-response","153","248475","0.0-4.0-1.44","2","High_HMMActual","null","","","","Images/BlackBeadChoice.png","null"
"image-keyboard-response","154","249183","0.0-4.0-2.44","2","High_HMMActual","null","","","","Images/BlackBeadChoiceCorrect.png","null"
"image-keyboard-response","155","249857","0.0-4.0-0.45","2","High_HMMActual","671.3949998375028","","","","Images/NewTrialBC.png","39"
"image-keyboard-response","156","250271","0.0-4.0-1.45","2","High_HMMActual","null","","","","Images/WhiteBeadChoice.png","null"
"image-keyboard-response","157","250985","0.0-4.0-2.45","2","High_HMMActual","null","","","","Images/WhiteBeadChoiceWrong.png","null"
"image-keyboard-response","158","251614","0.0-4.0-0.46","2","High_HMMActual","626.8549999222159","","","","Images/NewTrialBC.png","37"
"image-keyboard-response","159","252022","0.0-4.0-1.46","2","High_HMMActual","null","","","","Images/BlackBeadChoice.png","null"
"image-keyboard-response","160","252736","0.0-4.0-2.46","2","High_HMMActual","null","","","","Images/BlackBeadChoiceCorrect.png","null"
"image-keyboard-response","161","253395","0.0-4.0-0.47","2","High_HMMActual","657.1749998256564","","","","Images/NewTrialBC.png","39"
"image-keyboard-response","162","253801","0.0-4.0-1.47","2","High_HMMActual","null","","","","Images/WhiteBeadChoice.png","null"
"image-keyboard-response","163","254507","0.0-4.0-2.47","2","High_HMMActual","null","","","","Images/WhiteBeadChoiceCorrect.png","null"
"image-keyboard-response","164","254951","0.0-4.0-0.48","2","High_HMMActual","442.5650001503527","","","","Images/NewTrialWC.png","37"
"image-keyboard-response","165","255354","0.0-4.0-1.48","2","High_HMMActual","null","","","","Images/BlackBeadChoice.png","null"
"image-keyboard-response","166","256060","0.0-4.0-2.48","2","High_HMMActual","null","","","","Images/BlackBeadChoiceCorrect.png","null"
"image-keyboard-response","167","256477","0.0-4.0-0.49","2","High_HMMActual","416.3249998819083","","","","Images/NewTrialBC.png","39"
"image-keyboard-response","168","256881","0.0-4.0-1.49","2","High_HMMActual","null","","","","Images/WhiteBeadChoice.png","null"
"image-keyboard-response","169","257584","0.0-4.0-2.49","2","High_HMMActual","null","","","","Images/WhiteBeadChoiceCorrect.png","null"
"image-keyboard-response","170","258040","0.0-4.0-0.50","2","High_HMMActual","454.41999984905124","","","","Images/NewTrialWC.png","37"
"image-keyboard-response","171","258442","0.0-4.0-1.50","2","High_HMMActual","null","","","","Images/BlackBeadChoice.png","null"
"image-keyboard-response","172","259150","0.0-4.0-2.50","2","High_HMMActual","null","","","","Images/BlackBeadChoiceCorrect.png","null"
"image-keyboard-response","173","259548","0.0-4.0-0.51","2","High_HMMActual","396.08000009320676","","","","Images/NewTrialBC.png","39"
"image-keyboard-response","174","259956","0.0-4.0-1.51","2","High_HMMActual","null","","","","Images/WhiteBeadChoice.png","null"
"image-keyboard-response","175","260668","0.0-4.0-2.51","2","High_HMMActual","null","","","","Images/WhiteBeadChoiceWrong.png","null"
"image-keyboard-response","176","261018","0.0-4.0-0.52","2","High_HMMActual","348.08000014163554","","","","Images/NewTrialBC.png","37"
"image-keyboard-response","177","261429","0.0-4.0-1.52","2","High_HMMActual","null","","","","Images/BlackBeadChoice.png","null"
"image-keyboard-response","178","262138","0.0-4.0-2.52","2","High_HMMActual","null","","","","Images/BlackBeadChoiceCorrect.png","null"
"image-keyboard-response","179","262572","0.0-4.0-0.53","2","High_HMMActual","432.1500000078231","","","","Images/NewTrialBC.png","39"
"image-keyboard-response","180","262976","0.0-4.0-1.53","2","High_HMMActual","null","","","","Images/WhiteBeadChoice.png","null"
"image-keyboard-response","181","263689","0.0-4.0-2.53","2","High_HMMActual","null","","","","Images/WhiteBeadChoiceCorrect.png","null"
"image-keyboard-response","182","264034","0.0-4.0-0.54","2","High_HMMActual","344.19500012882054","","","","Images/NewTrialWC.png","37"
"image-keyboard-response","183","264436","0.0-4.0-1.54","2","High_HMMActual","null","","","","Images/BlackBeadChoice.png","null"
"image-keyboard-response","184","265139","0.0-4.0-2.54","2","High_HMMActual","null","","","","Images/BlackBeadChoiceCorrect.png","null"
"image-keyboard-response","185","265556","0.0-4.0-0.55","2","High_HMMActual","415.6899999361485","","","","Images/NewTrialBC.png","39"
"image-keyboard-response","186","265963","0.0-4.0-1.55","2","High_HMMActual","null","","","","Images/WhiteBeadChoice.png","null"
"image-keyboard-response","187","266666","0.0-4.0-2.55","2","High_HMMActual","null","","","","Images/WhiteBeadChoiceCorrect.png","null"
"image-keyboard-response","188","266959","0.0-4.0-0.56","2","High_HMMActual","290.69000016897917","","","","Images/NewTrialWC.png","37"
"image-keyboard-response","189","267369","0.0-4.0-1.56","2","High_HMMActual","null","","","","Images/BlackBeadChoice.png","null"
"image-keyboard-response","190","268082","0.0-4.0-2.56","2","High_HMMActual","null","","","","Images/BlackBeadChoiceCorrect.png","null"
"image-keyboard-response","191","268480","0.0-4.0-0.57","2","High_HMMActual","395.7050000317395","","","","Images/NewTrialBC.png","39"
"image-keyboard-response","192","268886","0.0-4.0-1.57","2","High_HMMActual","null","","","","Images/WhiteBeadChoice.png","null"
"image-keyboard-response","193","269588","0.0-4.0-2.57","2","High_HMMActual","null","","","","Images/WhiteBeadChoiceCorrect.png","null"
"image-keyboard-response","194","269933","0.0-4.0-0.58","2","High_HMMActual","342.7450000308454","","","","Images/NewTrialWC.png","37"
"image-keyboard-response","195","270337","0.0-4.0-1.58","2","High_HMMActual","null","","","","Images/BlackBeadChoice.png","null"
"image-keyboard-response","196","271040","0.0-4.0-2.58","2","High_HMMActual","null","","","","Images/BlackBeadChoiceCorrect.png","null"
"image-keyboard-response","197","271435","0.0-4.0-0.59","2","High_HMMActual","393.37499998509884","","","","Images/NewTrialBC.png","39"
"image-keyboard-response","198","271847","0.0-4.0-1.59","2","High_HMMActual","null","","","","Images/WhiteBeadChoice.png","null"
"image-keyboard-response","199","272571","0.0-4.0-2.59","2","High_HMMActual","null","","","","Images/WhiteBeadChoiceCorrect.png","null"
"image-keyboard-response","200","272953","0.0-4.0-0.60","2","High_HMMActual","379.58499998785555","","","","Images/NewTrialWC.png","37"
"image-keyboard-response","201","273356","0.0-4.0-1.60","2","High_HMMActual","null","","","","Images/BlackBeadChoice.png","null"
"image-keyboard-response","202","274062","0.0-4.0-2.60","2","High_HMMActual","null","","","","Images/BlackBeadChoiceCorrect.png","null"
"image-keyboard-response","203","274614","0.0-4.0-0.61","2","High_HMMActual","550.4349998664111","","","","Images/NewTrialBC.png","39"
"image-keyboard-response","204","275028","0.0-4.0-1.61","2","High_HMMActual","null","","","","Images/WhiteBeadChoice.png","null"
"image-keyboard-response","205","275731","0.0-4.0-2.61","2","High_HMMActual","null","","","","Images/WhiteBeadChoiceCorrect.png","null"
"image-keyboard-response","206","276008","0.0-4.0-0.62","2","High_HMMActual","275.3700001630932","","","","Images/NewTrialWC.png","37"
"image-keyboard-response","207","276412","0.0-4.0-1.62","2","High_HMMActual","null","","","","Images/BlackBeadChoice.png","null"
"image-keyboard-response","208","277117","0.0-4.0-2.62","2","High_HMMActual","null","","","","Images/BlackBeadChoiceCorrect.png","null"
"image-keyboard-response","209","277388","0.0-4.0-0.63","2","High_HMMActual","269.1599999088794","","","","Images/NewTrialBC.png","39"
"image-keyboard-response","210","277805","0.0-4.0-1.63","2","High_HMMActual","null","","","","Images/WhiteBeadChoice.png","null"
"image-keyboard-response","211","278511","0.0-4.0-2.63","2","High_HMMActual","null","","","","Images/WhiteBeadChoiceWrong.png","null"
"image-keyboard-response","212","278874","0.0-4.0-0.64","2","High_HMMActual","361.1149999778718","","","","Images/NewTrialBC.png","37"
"image-keyboard-response","213","279279","0.0-4.0-1.64","2","High_HMMActual","null","","","","Images/BlackBeadChoice.png","null"
"image-keyboard-response","214","279982","0.0-4.0-2.64","2","High_HMMActual","null","","","","Images/BlackBeadChoiceCorrect.png","null"
"image-keyboard-response","215","280355","0.0-4.0-0.65","2","High_HMMActual","371.1399999447167","","","","Images/NewTrialBC.png","39"
"image-keyboard-response","216","280774","0.0-4.0-1.65","2","High_HMMActual","null","","","","Images/WhiteBeadChoice.png","null"
"image-keyboard-response","217","281478","0.0-4.0-2.65","2","High_HMMActual","null","","","","Images/WhiteBeadChoiceCorrect.png","null"
"image-keyboard-response","218","281836","0.0-4.0-0.66","2","High_HMMActual","356.3099999446422","","","","Images/NewTrialWC.png","37"
"image-keyboard-response","219","282249","0.0-4.0-1.66","2","High_HMMActual","null","","","","Images/BlackBeadChoice.png","null"
"image-keyboard-response","220","282961","0.0-4.0-2.66","2","High_HMMActual","null","","","","Images/BlackBeadChoiceCorrect.png","null"
"image-keyboard-response","221","283313","0.0-4.0-0.67","2","High_HMMActual","351.3250001706183","","","","Images/NewTrialBC.png","39"
"image-keyboard-response","222","283726","0.0-4.0-1.67","2","High_HMMActual","null","","","","Images/WhiteBeadChoice.png","null"
"image-keyboard-response","223","284450","0.0-4.0-2.67","2","High_HMMActual","null","","","","Images/WhiteBeadChoiceCorrect.png","null"
"image-keyboard-response","224","284774","0.0-4.0-0.68","2","High_HMMActual","323.66999983787537","","","","Images/NewTrialWC.png","37"
"image-keyboard-response","225","285189","0.0-4.0-1.68","2","High_HMMActual","null","","","","Images/BlackBeadChoice.png","null"
"image-keyboard-response","226","285895","0.0-4.0-2.68","2","High_HMMActual","null","","","","Images/BlackBeadChoiceCorrect.png","null"
"image-keyboard-response","227","286203","0.0-4.0-0.69","2","High_HMMActual","308.1049998290837","","","","Images/NewTrialBC.png","39"
"image-keyboard-response","228","286617","0.0-4.0-1.69","2","High_HMMActual","null","","","","Images/WhiteBeadChoice.png","null"
"image-keyboard-response","229","287326","0.0-4.0-2.69","2","High_HMMActual","null","","","","Images/WhiteBeadChoiceCorrect.png","null"
"image-keyboard-response","230","287610","0.0-4.0-0.70","2","High_HMMActual","282.3900000657886","","","","Images/NewTrialWC.png","37"
"image-keyboard-response","231","288015","0.0-4.0-1.70","2","High_HMMActual","null","","","","Images/BlackBeadChoice.png","null"
"image-keyboard-response","232","288732","0.0-4.0-2.70","2","High_HMMActual","null","","","","Images/BlackBeadChoiceCorrect.png","null"
"image-keyboard-response","233","289101","0.0-4.0-0.71","2","High_HMMActual","366.94000009447336","","","","Images/NewTrialBC.png","39"
"image-keyboard-response","234","289512","0.0-4.0-1.71","2","High_HMMActual","null","","","","Images/WhiteBeadChoice.png","null"
"image-keyboard-response","235","290226","0.0-4.0-2.71","2","High_HMMActual","null","","","","Images/WhiteBeadChoiceCorrect.png","null"
"image-keyboard-response","236","290516","0.0-4.0-0.72","2","High_HMMActual","287.90499991737306","","","","Images/NewTrialWC.png","37"
"image-keyboard-response","237","290931","0.0-4.0-1.72","2","High_HMMActual","null","","","","Images/BlackBeadChoice.png","null"
"image-keyboard-response","238","291640","0.0-4.0-2.72","2","High_HMMActual","null","","","","Images/BlackBeadChoiceCorrect.png","null"
"image-keyboard-response","239","291857","0.0-4.0-0.73","2","High_HMMActual","216.68499987572432","","","","Images/NewTrialBC.png","39"
"image-keyboard-response","240","292261","0.0-4.0-1.73","2","High_HMMActual","null","","","","Images/WhiteBeadChoice.png","null"
"image-keyboard-response","241","292983","0.0-4.0-2.73","2","High_HMMActual","null","","","","Images/WhiteBeadChoiceCorrect.png","null"
"image-keyboard-response","242","293288","0.0-4.0-0.74","2","High_HMMActual","303.0199999921024","","","","Images/NewTrialWC.png","37"
"image-keyboard-response","243","293695","0.0-4.0-1.74","2","High_HMMActual","null","","","","Images/BlackBeadChoice.png","null"
"image-keyboard-response","244","294401","0.0-4.0-2.74","2","High_HMMActual","null","","","","Images/BlackBeadChoiceCorrect.png","null"
"image-keyboard-response","245","294704","0.0-4.0-0.75","2","High_HMMActual","301.5599998179823","","","","Images/NewTrialBC.png","39"
"image-keyboard-response","246","295113","0.0-4.0-1.75","2","High_HMMActual","null","","","","Images/WhiteBeadChoice.png","null"
"image-keyboard-response","247","295824","0.0-4.0-2.75","2","High_HMMActual","null","","","","Images/WhiteBeadChoiceCorrect.png","null"
"image-keyboard-response","248","296135","0.0-4.0-0.76","2","High_HMMActual","309.1949999798089","","","","Images/NewTrialWC.png","37"
"image-keyboard-response","249","296550","0.0-4.0-1.76","2","High_HMMActual","null","","","","Images/BlackBeadChoice.png","null"
"image-keyboard-response","250","297253","0.0-4.0-2.76","2","High_HMMActual","null","","","","Images/BlackBeadChoiceCorrect.png","null"
"image-keyboard-response","251","297582","0.0-4.0-0.77","2","High_HMMActual","326.5249999240041","","","","Images/NewTrialBC.png","39"
"image-keyboard-response","252","297988","0.0-4.0-1.77","2","High_HMMActual","null","","","","Images/WhiteBeadChoice.png","null"
"image-keyboard-response","253","298694","0.0-4.0-2.77","2","High_HMMActual","null","","","","Images/WhiteBeadChoiceCorrect.png","null"
"image-keyboard-response","254","299033","0.0-4.0-0.78","2","High_HMMActual","337.1799997985363","","","","Images/NewTrialWC.png","37"
"image-keyboard-response","255","299436","0.0-4.0-1.78","2","High_HMMActual","null","","","","Images/BlackBeadChoice.png","null"
"image-keyboard-response","256","300144","0.0-4.0-2.78","2","High_HMMActual","null","","","","Images/BlackBeadChoiceCorrect.png","null"
"image-keyboard-response","257","300435","0.0-4.0-0.79","2","High_HMMActual","289.1949999611825","","","","Images/NewTrialBC.png","39"
"image-keyboard-response","258","300838","0.0-4.0-1.79","2","High_HMMActual","null","","","","Images/WhiteBeadChoice.png","null"
"image-keyboard-response","259","301542","0.0-4.0-2.79","2","High_HMMActual","null","","","","Images/WhiteBeadChoiceCorrect.png","null"
"image-keyboard-response","260","301815","0.0-4.0-0.80","2","High_HMMActual","271.7950001824647","","","","Images/NewTrialWC.png","37"
"image-keyboard-response","261","302231","0.0-4.0-1.80","2","High_HMMActual","null","","","","Images/BlackBeadChoice.png","null"
"image-keyboard-response","262","302948","0.0-4.0-2.80","2","High_HMMActual","null","","","","Images/BlackBeadChoiceCorrect.png","null"
"image-keyboard-response","263","303257","0.0-4.0-0.81","2","High_HMMActual","306.5049999859184","","","","Images/NewTrialBC.png","39"
"image-keyboard-response","264","303676","0.0-4.0-1.81","2","High_HMMActual","null","","","","Images/WhiteBeadChoice.png","null"
"image-keyboard-response","265","304384","0.0-4.0-2.81","2","High_HMMActual","null","","","","Images/WhiteBeadChoiceCorrect.png","null"
"image-keyboard-response","266","304623","0.0-4.0-0.82","2","High_HMMActual","236.81499995291233","","","","Images/NewTrialWC.png","37"
"image-keyboard-response","267","305033","0.0-4.0-1.82","2","High_HMMActual","null","","","","Images/BlackBeadChoice.png","null"
"image-keyboard-response","268","305751","0.0-4.0-2.82","2","High_HMMActual","null","","","","Images/BlackBeadChoiceCorrect.png","null"
"image-keyboard-response","269","306047","0.0-4.0-0.83","2","High_HMMActual","294.06500002369285","","","","Images/NewTrialBC.png","39"
"image-keyboard-response","270","306456","0.0-4.0-1.83","2","High_HMMActual","null","","","","Images/WhiteBeadChoice.png","null"
"image-keyboard-response","271","307165","0.0-4.0-2.83","2","High_HMMActual","null","","","","Images/WhiteBeadChoiceCorrect.png","null"
"image-keyboard-response","272","307418","0.0-4.0-0.84","2","High_HMMActual","251.28500000573695","","","","Images/NewTrialWC.png","37"
"image-keyboard-response","273","307821","0.0-4.0-1.84","2","High_HMMActual","null","","","","Images/BlackBeadChoice.png","null"
"image-keyboard-response","274","308525","0.0-4.0-2.84","2","High_HMMActual","null","","","","Images/BlackBeadChoiceCorrect.png","null"
"image-keyboard-response","275","308843","0.0-4.0-0.85","2","High_HMMActual","316.65999977849424","","","","Images/NewTrialBC.png","39"
"image-keyboard-response","276","309250","0.0-4.0-1.85","2","High_HMMActual","null","","","","Images/WhiteBeadChoice.png","null"
"image-keyboard-response","277","309952","0.0-4.0-2.85","2","High_HMMActual","null","","","","Images/WhiteBeadChoiceCorrect.png","null"
"image-keyboard-response","278","310230","0.0-4.0-0.86","2","High_HMMActual","276.8949999008328","","","","Images/NewTrialWC.png","37"
"image-keyboard-response","279","310640","0.0-4.0-1.86","2","High_HMMActual","null","","","","Images/BlackBeadChoice.png","null"
"image-keyboard-response","280","311359","0.0-4.0-2.86","2","High_HMMActual","null","","","","Images/BlackBeadChoiceWrong.png","null"
"image-keyboard-response","281","311705","0.0-4.0-0.87","2","High_HMMActual","344.80000007897615","","","","Images/NewTrialWC.png","39"
"image-keyboard-response","282","312115","0.0-4.0-1.87","2","High_HMMActual","null","","","","Images/WhiteBeadChoice.png","null"
"image-keyboard-response","283","312818","0.0-4.0-2.87","2","High_HMMActual","null","","","","Images/WhiteBeadChoiceCorrect.png","null"
"image-keyboard-response","284","313112","0.0-4.0-0.88","2","High_HMMActual","292.284999974072","","","","Images/NewTrialWC.png","37"
"image-keyboard-response","285","313516","0.0-4.0-1.88","2","High_HMMActual","null","","","","Images/BlackBeadChoice.png","null"
"image-keyboard-response","286","314219","0.0-4.0-2.88","2","High_HMMActual","null","","","","Images/BlackBeadChoiceCorrect.png","null"
"image-keyboard-response","287","314477","0.0-4.0-0.89","2","High_HMMActual","256.12500007264316","","","","Images/NewTrialBC.png","39"
"image-keyboard-response","288","314893","0.0-4.0-1.89","2","High_HMMActual","null","","","","Images/WhiteBeadChoice.png","null"
"image-keyboard-response","289","315598","0.0-4.0-2.89","2","High_HMMActual","null","","","","Images/WhiteBeadChoiceWrong.png","null"
"image-keyboard-response","290","315933","0.0-4.0-0.90","2","High_HMMActual","333.47000018693507","","","","Images/NewTrialBC.png","37"
"image-keyboard-response","291","316337","0.0-4.0-1.90","2","High_HMMActual","null","","","","Images/BlackBeadChoice.png","null"
"image-keyboard-response","292","317049","0.0-4.0-2.90","2","High_HMMActual","null","","","","Images/BlackBeadChoiceCorrect.png","null"
"image-keyboard-response","293","317322","0.0-4.0-0.91","2","High_HMMActual","270.83500009030104","","","","Images/NewTrialBC.png","39"
"image-keyboard-response","294","317737","0.0-4.0-1.91","2","High_HMMActual","null","","","","Images/WhiteBeadChoice.png","null"
"image-keyboard-response","295","318452","0.0-4.0-2.91","2","High_HMMActual","null","","","","Images/WhiteBeadChoiceCorrect.png","null"
"image-keyboard-response","296","318722","0.0-4.0-0.92","2","High_HMMActual","267.62000005692244","","","","Images/NewTrialWC.png","37"
"image-keyboard-response","297","319138","0.0-4.0-1.92","2","High_HMMActual","null","","","","Images/BlackBeadChoice.png","null"
"image-keyboard-response","298","319850","0.0-4.0-2.92","2","High_HMMActual","null","","","","Images/BlackBeadChoiceCorrect.png","null"
"image-keyboard-response","299","320181","0.0-4.0-0.93","2","High_HMMActual","328.6299998871982","","","","Images/NewTrialBC.png","39"
"image-keyboard-response","300","320598","0.0-4.0-1.93","2","High_HMMActual","null","","","","Images/WhiteBeadChoice.png","null"
"image-keyboard-response","301","321317","0.0-4.0-2.93","2","High_HMMActual","null","","","","Images/WhiteBeadChoiceCorrect.png","null"
"image-keyboard-response","302","321576","0.0-4.0-0.94","2","High_HMMActual","257.454999955371","","","","Images/NewTrialWC.png","37"
"image-keyboard-response","303","321994","0.0-4.0-1.94","2","High_HMMActual","null","","","","Images/BlackBeadChoice.png","null"
"image-keyboard-response","304","322697","0.0-4.0-2.94","2","High_HMMActual","null","","","","Images/BlackBeadChoiceCorrect.png","null"
"image-keyboard-response","305","322964","0.0-4.0-0.95","2","High_HMMActual","265.6499999575317","","","","Images/NewTrialBC.png","39"
"image-keyboard-response","306","323370","0.0-4.0-1.95","2","High_HMMActual","null","","","","Images/WhiteBeadChoice.png","null"
"image-keyboard-response","307","324077","0.0-4.0-2.95","2","High_HMMActual","null","","","","Images/WhiteBeadChoiceWrong.png","null"
"image-keyboard-response","308","324398","0.0-4.0-0.96","2","High_HMMActual","319.72000002861023","","","","Images/NewTrialBC.png","37"
"image-keyboard-response","309","324809","0.0-4.0-1.96","2","High_HMMActual","null","","","","Images/BlackBeadChoice.png","null"
"image-keyboard-response","310","325515","0.0-4.0-2.96","2","High_HMMActual","null","","","","Images/BlackBeadChoiceCorrect.png","null"
"image-keyboard-response","311","325785","0.0-4.0-0.97","2","High_HMMActual","268.76000012271106","","","","Images/NewTrialBC.png","39"
"image-keyboard-response","312","326198","0.0-4.0-1.97","2","High_HMMActual","null","","","","Images/WhiteBeadChoice.png","null"
"image-keyboard-response","313","326909","0.0-4.0-2.97","2","High_HMMActual","null","","","","Images/WhiteBeadChoiceWrong.png","null"
"image-keyboard-response","314","327124","0.0-4.0-0.98","2","High_HMMActual","213.19500007666647","","","","Images/NewTrialBC.png","37"
"image-keyboard-response","315","327530","0.0-4.0-1.98","2","High_HMMActual","null","","","","Images/BlackBeadChoice.png","null"
"image-keyboard-response","316","328246","0.0-4.0-2.98","2","High_HMMActual","null","","","","Images/BlackBeadChoiceCorrect.png","null"
"image-keyboard-response","317","328616","0.0-4.0-0.99","2","High_HMMActual","367.8300001192838","","","","Images/NewTrialBC.png","39"
"image-keyboard-response","318","329027","0.0-4.0-1.99","2","High_HMMActual","null","","","","Images/WhiteBeadChoice.png","null"
"image-keyboard-response","319","329739","0.0-4.0-2.99","2","High_HMMActual","null","","","","Images/WhiteBeadChoiceCorrect.png","null"
"image-keyboard-response","320","330005","0.0-4.0-0.100","2","High_HMMActual","262.85999990068376","","","","Images/NewTrialWC.png","37"
"image-keyboard-response","321","330415","0.0-4.0-1.100","2","High_HMMActual","null","","","","Images/BlackBeadChoice.png","null"
"image-keyboard-response","322","331123","0.0-4.0-2.100","2","High_HMMActual","null","","","","Images/BlackBeadChoiceCorrect.png","null"
"image-keyboard-response","323","331402","0.0-4.0-0.101","2","High_HMMActual","277.4700000882149","","","","Images/NewTrialBC.png","39"
"image-keyboard-response","324","331810","0.0-4.0-1.101","2","High_HMMActual","null","","","","Images/WhiteBeadChoice.png","null"
"image-keyboard-response","325","332526","0.0-4.0-2.101","2","High_HMMActual","null","","","","Images/WhiteBeadChoiceWrong.png","null"
"image-keyboard-response","326","332816","0.0-4.0-0.102","2","High_HMMActual","287.90499991737306","","","","Images/NewTrialBC.png","37"
"image-keyboard-response","327","333230","0.0-4.0-1.102","2","High_HMMActual","null","","","","Images/BlackBeadChoice.png","null"
"image-keyboard-response","328","333940","0.0-4.0-2.102","2","High_HMMActual","null","","","","Images/BlackBeadChoiceCorrect.png","null"
"image-keyboard-response","329","334266","0.0-4.0-0.103","2","High_HMMActual","324.4050000794232","","","","Images/NewTrialBC.png","39"
"image-keyboard-response","330","334681","0.0-4.0-1.103","2","High_HMMActual","null","","","","Images/WhiteBeadChoice.png","null"
"image-keyboard-response","331","335399","0.0-4.0-2.103","2","High_HMMActual","null","","","","Images/WhiteBeadChoiceCorrect.png","null"
"image-keyboard-response","332","335697","0.0-4.0-0.104","2","High_HMMActual","297.2299999091774","","","","Images/NewTrialWC.png","37"
"image-keyboard-response","333","336105","0.0-4.0-1.104","2","High_HMMActual","null","","","","Images/BlackBeadChoice.png","null"
"image-keyboard-response","334","336810","0.0-4.0-2.104","2","High_HMMActual","null","","","","Images/BlackBeadChoiceCorrect.png","null"
"image-keyboard-response","335","337162","0.0-4.0-0.105","2","High_HMMActual","350.06999992765486","","","","Images/NewTrialBC.png","39"
"image-keyboard-response","336","337575","0.0-4.0-1.105","2","High_HMMActual","null","","","","Images/WhiteBeadChoice.png","null"
"image-keyboard-response","337","338291","0.0-4.0-2.105","2","High_HMMActual","null","","","","Images/WhiteBeadChoiceWrong.png","null"
"image-keyboard-response","338","338611","0.0-4.0-0.106","2","High_HMMActual","318.29999992623925","","","","Images/NewTrialBC.png","37"
"image-keyboard-response","339","339027","0.0-4.0-1.106","2","High_HMMActual","null","","","","Images/BlackBeadChoice.png","null"
"image-keyboard-response","340","339744","0.0-4.0-2.106","2","High_HMMActual","null","","","","Images/BlackBeadChoiceCorrect.png","null"
"image-keyboard-response","341","340138","0.0-4.0-0.107","2","High_HMMActual","393.3550000656396","","","","Images/NewTrialBC.png","39"
"image-keyboard-response","342","340543","0.0-4.0-1.107","2","High_HMMActual","null","","","","Images/WhiteBeadChoice.png","null"
"image-keyboard-response","343","341249","0.0-4.0-2.107","2","High_HMMActual","null","","","","Images/WhiteBeadChoiceCorrect.png","null"
"image-keyboard-response","344","341567","0.0-4.0-0.108","2","High_HMMActual","316.48000003769994","","","","Images/NewTrialWC.png","37"
"image-keyboard-response","345","341982","0.0-4.0-1.108","2","High_HMMActual","null","","","","Images/BlackBeadChoice.png","null"
"image-keyboard-response","346","342693","0.0-4.0-2.108","2","High_HMMActual","null","","","","Images/BlackBeadChoiceCorrect.png","null"
"image-keyboard-response","347","342905","0.0-4.0-0.109","2","High_HMMActual","209.00999987497926","","","","Images/NewTrialBC.png","39"
"image-keyboard-response","348","343314","0.0-4.0-1.109","2","High_HMMActual","null","","","","Images/WhiteBeadChoice.png","null"
"image-keyboard-response","349","344026","0.0-4.0-2.109","2","High_HMMActual","null","","","","Images/WhiteBeadChoiceCorrect.png","null"
"image-keyboard-response","350","344556","0.0-4.0-0.110","2","High_HMMActual","527.3750000633299","","","","Images/NewTrialWC.png","37"
"image-keyboard-response","351","344966","0.0-4.0-1.110","2","High_HMMActual","null","","","","Images/BlackBeadChoice.png","null"
"image-keyboard-response","352","345684","0.0-4.0-2.110","2","High_HMMActual","null","","","","Images/BlackBeadChoiceCorrect.png","null"
"image-keyboard-response","353","346098","0.0-4.0-0.111","2","High_HMMActual","412.35000011511147","","","","Images/NewTrialBC.png","39"
"image-keyboard-response","354","346509","0.0-4.0-1.111","2","High_HMMActual","null","","","","Images/WhiteBeadChoice.png","null"
"image-keyboard-response","355","347216","0.0-4.0-2.111","2","High_HMMActual","null","","","","Images/WhiteBeadChoiceCorrect.png","null"
"image-keyboard-response","356","347518","0.0-4.0-0.112","2","High_HMMActual","300.5699999630451","","","","Images/NewTrialWC.png","37"
"image-keyboard-response","357","347930","0.0-4.0-1.112","2","High_HMMActual","null","","","","Images/BlackBeadChoice.png","null"
"image-keyboard-response","358","348642","0.0-4.0-2.112","2","High_HMMActual","null","","","","Images/BlackBeadChoiceCorrect.png","null"
"image-keyboard-response","359","348675","0.0-4.0-0.113","2","High_HMMActual","30.999999959021807","","","","Images/NewTrialBC.png","39"
"image-keyboard-response","360","349094","0.0-4.0-1.113","2","High_HMMActual","null","","","","Images/WhiteBeadChoice.png","null"
"image-keyboard-response","361","349797","0.0-4.0-2.113","2","High_HMMActual","null","","","","Images/WhiteBeadChoiceCorrect.png","null"
"image-keyboard-response","362","350150","0.0-4.0-0.114","2","High_HMMActual","351.4199999626726","","","","Images/NewTrialWC.png","37"
"image-keyboard-response","363","350558","0.0-4.0-1.114","2","High_HMMActual","null","","","","Images/BlackBeadChoice.png","null"
"image-keyboard-response","364","351265","0.0-4.0-2.114","2","High_HMMActual","null","","","","Images/BlackBeadChoiceCorrect.png","null"
"image-keyboard-response","365","351497","0.0-4.0-0.115","2","High_HMMActual","229.4299998320639","","","","Images/NewTrialBC.png","39"
"image-keyboard-response","366","351912","0.0-4.0-1.115","2","High_HMMActual","null","","","","Images/WhiteBeadChoice.png","null"
"image-keyboard-response","367","352615","0.0-4.0-2.115","2","High_HMMActual","null","","","","Images/WhiteBeadChoiceCorrect.png","null"
"image-keyboard-response","368","352910","0.0-4.0-0.116","2","High_HMMActual","293.48999983631074","","","","Images/NewTrialWC.png","37"
"image-keyboard-response","369","353333","0.0-4.0-1.116","2","High_HMMActual","null","","","","Images/BlackBeadChoice.png","null"
"image-keyboard-response","370","354036","0.0-4.0-2.116","2","High_HMMActual","null","","","","Images/BlackBeadChoiceWrong.png","null"
"image-keyboard-response","371","354403","0.0-4.0-0.117","2","High_HMMActual","365.7700000330806","","","","Images/NewTrialWC.png","39"
"image-keyboard-response","372","354817","0.0-4.0-1.117","2","High_HMMActual","null","","","","Images/WhiteBeadChoice.png","null"
"image-keyboard-response","373","355526","0.0-4.0-2.117","2","High_HMMActual","null","","","","Images/WhiteBeadChoiceCorrect.png","null"
"image-keyboard-response","374","355821","0.0-4.0-0.118","2","High_HMMActual","293.0099999066442","","","","Images/NewTrialWC.png","37"
"image-keyboard-response","375","356224","0.0-4.0-1.118","2","High_HMMActual","null","","","","Images/BlackBeadChoice.png","null"
"image-keyboard-response","376","356926","0.0-4.0-2.118","2","High_HMMActual","null","","","","Images/BlackBeadChoiceWrong.png","null"
"image-keyboard-response","377","357324","0.0-4.0-0.119","2","High_HMMActual","395.7099998369813","","","","Images/NewTrialWC.png","39"
"image-keyboard-response","378","357730","0.0-4.0-1.119","2","High_HMMActual","null","","","","Images/WhiteBeadChoice.png","null"
"image-keyboard-response","379","358439","0.0-4.0-2.119","2","High_HMMActual","null","","","","Images/WhiteBeadChoiceWrong.png","null"
"image-keyboard-response","380","359033","0.0-4.0-0.120","2","High_HMMActual","592.5449999049306","","","","Images/NewTrialBC.png","37"
"image-keyboard-response","381","359444","0.0-4.0-1.120","2","High_HMMActual","null","","","","Images/BlackBeadChoice.png","null"
"image-keyboard-response","382","360146","0.0-4.0-2.120","2","High_HMMActual","null","","","","Images/BlackBeadChoiceWrong.png","null"
"image-keyboard-response","383","360782","0.0-4.0-0.121","2","High_HMMActual","634.84499999322","","","","Images/NewTrialWC.png","39"
"image-keyboard-response","384","361198","0.0-4.0-1.121","2","High_HMMActual","null","","","","Images/WhiteBeadChoice.png","null"
"image-keyboard-response","385","361900","0.0-4.0-2.121","2","High_HMMActual","null","","","","Images/WhiteBeadChoiceWrong.png","null"
"image-keyboard-response","386","362584","0.0-4.0-0.122","2","High_HMMActual","681.9750000722706","","","","Images/NewTrialBC.png","39"
"image-keyboard-response","387","362988","0.0-4.0-1.122","2","High_HMMActual","null","","","","Images/WhiteBeadChoice.png","null"
"image-keyboard-response","388","363696","0.0-4.0-2.122","2","High_HMMActual","null","","","","Images/WhiteBeadChoiceCorrect.png","null"
"image-keyboard-response","389","364008","0.0-4.0-0.123","2","High_HMMActual","310.2200001012534","","","","Images/NewTrialWC.png","37"
"image-keyboard-response","390","364415","0.0-4.0-1.123","2","High_HMMActual","null","","","","Images/BlackBeadChoice.png","null"
"image-keyboard-response","391","365122","0.0-4.0-2.123","2","High_HMMActual","null","","","","Images/BlackBeadChoiceCorrect.png","null"
"image-keyboard-response","392","365454","0.0-4.0-0.124","2","High_HMMActual","329.93999985046685","","","","Images/NewTrialBC.png","39"
"image-keyboard-response","393","365862","0.0-4.0-1.124","2","High_HMMActual","null","","","","Images/WhiteBeadChoice.png","null"
"image-keyboard-response","394","366568","0.0-4.0-2.124","2","High_HMMActual","null","","","","Images/WhiteBeadChoiceCorrect.png","null"
"image-keyboard-response","395","366879","0.0-4.0-0.125","2","High_HMMActual","308.9650000911206","","","","Images/NewTrialWC.png","37"
"image-keyboard-response","396","367287","0.0-4.0-1.125","2","High_HMMActual","null","","","","Images/BlackBeadChoice.png","null"
"image-keyboard-response","397","368001","0.0-4.0-2.125","2","High_HMMActual","null","","","","Images/BlackBeadChoiceCorrect.png","null"
"image-keyboard-response","398","368248","0.0-4.0-0.126","2","High_HMMActual","244.89500001072884","","","","Images/NewTrialBC.png","39"
"image-keyboard-response","399","368650","0.0-4.0-1.126","2","High_HMMActual","null","","","","Images/WhiteBeadChoice.png","null"
"image-keyboard-response","400","369354","0.0-4.0-2.126","2","High_HMMActual","null","","","","Images/WhiteBeadChoiceCorrect.png","null"
"image-keyboard-response","401","369641","0.0-4.0-0.127","2","High_HMMActual","284.35499989427626","","","","Images/NewTrialWC.png","37"
"image-keyboard-response","402","370057","0.0-4.0-1.127","2","High_HMMActual","null","","","","Images/BlackBeadChoice.png","null"
"image-keyboard-response","403","370772","0.0-4.0-2.127","2","High_HMMActual","null","","","","Images/BlackBeadChoiceWrong.png","null"
"image-keyboard-response","404","371160","0.0-4.0-0.128","2","High_HMMActual","386.5300000179559","","","","Images/NewTrialWC.png","39"
"image-keyboard-response","405","371569","0.0-4.0-1.128","2","High_HMMActual","null","","","","Images/WhiteBeadChoice.png","null"
"image-keyboard-response","406","372283","0.0-4.0-2.128","2","High_HMMActual","null","","","","Images/WhiteBeadChoiceWrong.png","null"
"image-keyboard-response","407","372911","0.0-4.0-0.129","2","High_HMMActual","626.0949999559671","","","","Images/NewTrialBC.png","37"
"image-keyboard-response","408","373314","0.0-4.0-1.129","2","High_HMMActual","null","","","","Images/BlackBeadChoice.png","null"
"image-keyboard-response","409","374016","0.0-4.0-2.129","2","High_HMMActual","null","","","","Images/BlackBeadChoiceCorrect.png","null"
"image-keyboard-response","410","374664","0.0-4.0-0.130","2","High_HMMActual","646.0700000170618","","","","Images/NewTrialBC.png","39"
"image-keyboard-response","411","375067","0.0-4.0-1.130","2","High_HMMActual","null","","","","Images/WhiteBeadChoice.png","null"
"image-keyboard-response","412","375777","0.0-4.0-2.130","2","High_HMMActual","null","","","","Images/WhiteBeadChoiceCorrect.png","null"
"image-keyboard-response","413","376194","0.0-4.0-0.131","2","High_HMMActual","415.5099999625236","","","","Images/NewTrialWC.png","37"
"image-keyboard-response","414","376600","0.0-4.0-1.131","2","High_HMMActual","null","","","","Images/BlackBeadChoice.png","null"
"image-keyboard-response","415","377310","0.0-4.0-2.131","2","High_HMMActual","null","","","","Images/BlackBeadChoiceCorrect.png","null"
"image-keyboard-response","416","377756","0.0-4.0-0.132","2","High_HMMActual","443.69000010192394","","","","Images/NewTrialBC.png","39"
"image-keyboard-response","417","378167","0.0-4.0-1.132","2","High_HMMActual","null","","","","Images/WhiteBeadChoice.png","null"
"image-keyboard-response","418","378879","0.0-4.0-2.132","2","High_HMMActual","null","","","","Images/WhiteBeadChoiceCorrect.png","null"
"image-keyboard-response","419","379191","0.0-4.0-0.133","2","High_HMMActual","309.4500000588596","","","","Images/NewTrialWC.png","37"
"image-keyboard-response","420","379609","0.0-4.0-1.133","2","High_HMMActual","null","","","","Images/BlackBeadChoice.png","null"
"image-keyboard-response","421","380317","0.0-4.0-2.133","2","High_HMMActual","null","","","","Images/BlackBeadChoiceCorrect.png","null"
"image-keyboard-response","422","380510","0.0-4.0-0.134","2","High_HMMActual","191.6799999307841","","","","Images/NewTrialBC.png","39"
"image-keyboard-response","423","380924","0.0-4.0-1.134","2","High_HMMActual","null","","","","Images/WhiteBeadChoice.png","null"
"image-keyboard-response","424","381635","0.0-4.0-2.134","2","High_HMMActual","null","","","","Images/WhiteBeadChoiceCorrect.png","null"
"image-keyboard-response","425","381825","0.0-4.0-0.135","2","High_HMMActual","187.9049998242408","","","","Images/NewTrialWC.png","37"
"image-keyboard-response","426","382241","0.0-4.0-1.135","2","High_HMMActual","null","","","","Images/BlackBeadChoice.png","null"
"image-keyboard-response","427","382964","0.0-4.0-2.135","2","High_HMMActual","null","","","","Images/BlackBeadChoiceCorrect.png","null"
"image-keyboard-response","428","383320","0.0-4.0-0.136","2","High_HMMActual","354.01000012643635","","","","Images/NewTrialBC.png","39"
"image-keyboard-response","429","383730","0.0-4.0-1.136","2","High_HMMActual","null","","","","Images/WhiteBeadChoice.png","null"
"image-keyboard-response","430","384432","0.0-4.0-2.136","2","High_HMMActual","null","","","","Images/WhiteBeadChoiceCorrect.png","null"
"image-keyboard-response","431","384616","0.0-4.0-0.137","2","High_HMMActual","182.31999990530312","","","","Images/NewTrialWC.png","37"
"image-keyboard-response","432","385033","0.0-4.0-1.137","2","High_HMMActual","null","","","","Images/BlackBeadChoice.png","null"
"image-keyboard-response","433","385747","0.0-4.0-2.137","2","High_HMMActual","null","","","","Images/BlackBeadChoiceWrong.png","null"
"image-keyboard-response","434","385830","0.0-4.0-0.138","2","High_HMMActual","81.71999990008771","","","","Images/NewTrialWC.png","39"
"image-keyboard-response","435","386248","0.0-4.0-1.138","2","High_HMMActual","null","","","","Images/WhiteBeadChoice.png","null"
"image-keyboard-response","436","386971","0.0-4.0-2.138","2","High_HMMActual","null","","","","Images/WhiteBeadChoiceCorrect.png","null"
"image-keyboard-response","437","387202","0.0-4.0-0.139","2","High_HMMActual","229.3599999975413","","","","Images/NewTrialWC.png","37"
"image-keyboard-response","438","387625","0.0-4.0-1.139","2","High_HMMActual","null","","","","Images/BlackBeadChoice.png","null"
"image-keyboard-response","439","388328","0.0-4.0-2.139","2","High_HMMActual","null","","","","Images/BlackBeadChoiceCorrect.png","null"
"image-keyboard-response","440","388552","0.0-4.0-0.140","2","High_HMMActual","221.81999986059964","","","","Images/NewTrialBC.png","39"
"image-keyboard-response","441","388966","0.0-4.0-1.140","2","High_HMMActual","null","","","","Images/WhiteBeadChoice.png","null"
"image-keyboard-response","442","389674","0.0-4.0-2.140","2","High_HMMActual","null","","","","Images/WhiteBeadChoiceCorrect.png","null"
"image-keyboard-response","443","389965","0.0-4.0-0.141","2","High_HMMActual","289.1299999319017","","","","Images/NewTrialWC.png","37"
"image-keyboard-response","444","390369","0.0-4.0-1.141","2","High_HMMActual","null","","","","Images/BlackBeadChoice.png","null"
"image-keyboard-response","445","391085","0.0-4.0-2.141","2","High_HMMActual","null","","","","Images/BlackBeadChoiceCorrect.png","null"
"image-keyboard-response","446","391248","0.0-4.0-0.142","2","High_HMMActual","162.67999983392656","","","","Images/NewTrialBC.png","39"
"image-keyboard-response","447","391656","0.0-4.0-1.142","2","High_HMMActual","null","","","","Images/WhiteBeadChoice.png","null"
"image-keyboard-response","448","392369","0.0-4.0-2.142","2","High_HMMActual","null","","","","Images/WhiteBeadChoiceCorrect.png","null"
"image-keyboard-response","449","392738","0.0-4.0-0.143","2","High_HMMActual","367.2950000036508","","","","Images/NewTrialWC.png","37"
"image-keyboard-response","450","393149","0.0-4.0-1.143","2","High_HMMActual","null","","","","Images/BlackBeadChoice.png","null"
"image-keyboard-response","451","393858","0.0-4.0-2.143","2","High_HMMActual","null","","","","Images/BlackBeadChoiceCorrect.png","null"
"image-keyboard-response","452","394069","0.0-4.0-0.144","2","High_HMMActual","209.13000009022653","","","","Images/NewTrialBC.png","39"
"image-keyboard-response","453","394477","0.0-4.0-1.144","2","High_HMMActual","null","","","","Images/WhiteBeadChoice.png","null"
"image-keyboard-response","454","395185","0.0-4.0-2.144","2","High_HMMActual","null","","","","Images/WhiteBeadChoiceCorrect.png","null"
"image-keyboard-response","455","395443","0.0-4.0-0.145","2","High_HMMActual","256.580000044778","","","","Images/NewTrialWC.png","37"
"image-keyboard-response","456","395847","0.0-4.0-1.145","2","High_HMMActual","null","","","","Images/BlackBeadChoice.png","null"
"image-keyboard-response","457","396552","0.0-4.0-2.145","2","High_HMMActual","null","","","","Images/BlackBeadChoiceWrong.png","null"
"image-keyboard-response","458","396785","0.0-4.0-0.146","2","High_HMMActual","232.1249998640269","","","","Images/NewTrialWC.png","39"
"image-keyboard-response","459","397203","0.0-4.0-1.146","2","High_HMMActual","null","","","","Images/WhiteBeadChoice.png","null"
"image-keyboard-response","460","397908","0.0-4.0-2.146","2","High_HMMActual","null","","","","Images/WhiteBeadChoiceCorrect.png","null"
"image-keyboard-response","461","398154","0.0-4.0-0.147","2","High_HMMActual","244.440000038594","","","","Images/NewTrialWC.png","37"
"image-keyboard-response","462","398569","0.0-4.0-1.147","2","High_HMMActual","null","","","","Images/BlackBeadChoice.png","null"
"image-keyboard-response","463","399274","0.0-4.0-2.147","2","High_HMMActual","null","","","","Images/BlackBeadChoiceWrong.png","null"
"image-keyboard-response","464","399512","0.0-4.0-0.148","2","High_HMMActual","235.8150000218302","","","","Images/NewTrialWC.png","39"
"image-keyboard-response","465","399928","0.0-4.0-1.148","2","High_HMMActual","null","","","","Images/WhiteBeadChoice.png","null"
"image-keyboard-response","466","400631","0.0-4.0-2.148","2","High_HMMActual","null","","","","Images/WhiteBeadChoiceCorrect.png","null"
"image-keyboard-response","467","401119","0.0-4.0-0.149","2","High_HMMActual","485.91499985195696","","","","Images/NewTrialWC.png","39"
"image-keyboard-response","468","401538","0.0-4.0-1.149","2","High_HMMActual","null","","","","Images/WhiteBeadChoice.png","null"
"image-keyboard-response","469","402249","0.0-4.0-2.149","2","High_HMMActual","null","","","","Images/WhiteBeadChoiceWrong.png","null"
"image-keyboard-response","470","403275","0.0-4.0-0.150","2","High_HMMActual","1023.5800000373274","","","","Images/NewTrialBC.png","39"
"image-keyboard-response","471","403689","0.0-4.0-1.150","2","High_HMMActual","null","","","","Images/WhiteBeadChoice.png","null"
"image-keyboard-response","472","404401","0.0-4.0-2.150","2","High_HMMActual","null","","","","Images/WhiteBeadChoiceCorrect.png","null"
"image-keyboard-response","473","404789","0.0-4.0-0.151","2","High_HMMActual","386.0700000077486","","","","Images/NewTrialWC.png","37"
"image-keyboard-response","474","405206","0.0-4.0-1.151","2","High_HMMActual","null","","","","Images/BlackBeadChoice.png","null"
"image-keyboard-response","475","405920","0.0-4.0-2.151","2","High_HMMActual","null","","","","Images/BlackBeadChoiceCorrect.png","null"
"image-keyboard-response","476","406236","0.0-4.0-0.152","2","High_HMMActual","313.92999994568527","","","","Images/NewTrialBC.png","39"
"image-keyboard-response","477","406643","0.0-4.0-1.152","2","High_HMMActual","null","","","","Images/WhiteBeadChoice.png","null"
"image-keyboard-response","478","407349","0.0-4.0-2.152","2","High_HMMActual","null","","","","Images/WhiteBeadChoiceCorrect.png","null"
"image-keyboard-response","479","407619","0.0-4.0-0.153","2","High_HMMActual","267.5449999514967","","","","Images/NewTrialWC.png","37"
"image-keyboard-response","480","408030","0.0-4.0-1.153","2","High_HMMActual","null","","","","Images/BlackBeadChoice.png","null"
"image-keyboard-response","481","408748","0.0-4.0-2.153","2","High_HMMActual","null","","","","Images/BlackBeadChoiceCorrect.png","null"
"image-keyboard-response","482","409044","0.0-4.0-0.154","2","High_HMMActual","294.19499984942377","","","","Images/NewTrialBC.png","39"
"image-keyboard-response","483","409461","0.0-4.0-1.154","2","High_HMMActual","null","","","","Images/WhiteBeadChoice.png","null"
"image-keyboard-response","484","410164","0.0-4.0-2.154","2","High_HMMActual","null","","","","Images/WhiteBeadChoiceCorrect.png","null"
"image-keyboard-response","485","410585","0.0-4.0-0.155","2","High_HMMActual","418.36499981582165","","","","Images/NewTrialWC.png","37"
"image-keyboard-response","486","410999","0.0-4.0-1.155","2","High_HMMActual","null","","","","Images/BlackBeadChoice.png","null"
"image-keyboard-response","487","411701","0.0-4.0-2.155","2","High_HMMActual","null","","","","Images/BlackBeadChoiceCorrect.png","null"
"image-keyboard-response","488","411954","0.0-4.0-0.156","2","High_HMMActual","251.09499995596707","","","","Images/NewTrialBC.png","39"
"image-keyboard-response","489","412375","0.0-4.0-1.156","2","High_HMMActual","null","","","","Images/WhiteBeadChoice.png","null"
"image-keyboard-response","490","413089","0.0-4.0-2.156","2","High_HMMActual","null","","","","Images/WhiteBeadChoiceCorrect.png","null"
"image-keyboard-response","491","413415","0.0-4.0-0.157","2","High_HMMActual","324.25000006332994","","","","Images/NewTrialWC.png","37"
"image-keyboard-response","492","413827","0.0-4.0-1.157","2","High_HMMActual","null","","","","Images/BlackBeadChoice.png","null"
"image-keyboard-response","493","414539","0.0-4.0-2.157","2","High_HMMActual","null","","","","Images/BlackBeadChoiceWrong.png","null"
"image-keyboard-response","494","414961","0.0-4.0-0.158","2","High_HMMActual","420.00000015832484","","","","Images/NewTrialWC.png","39"
"image-keyboard-response","495","415369","0.0-4.0-1.158","2","High_HMMActual","null","","","","Images/WhiteBeadChoice.png","null"
"image-keyboard-response","496","416083","0.0-4.0-2.158","2","High_HMMActual","null","","","","Images/WhiteBeadChoiceCorrect.png","null"
"image-keyboard-response","497","416687","0.0-4.0-0.159","2","High_HMMActual","603.144999826327","","","","Images/NewTrialWC.png","37"
"image-keyboard-response","498","417096","0.0-4.0-1.159","2","High_HMMActual","null","","","","Images/BlackBeadChoice.png","null"
"image-keyboard-response","499","417800","0.0-4.0-2.159","2","High_HMMActual","null","","","","Images/BlackBeadChoiceCorrect.png","null"
"image-keyboard-response","500","418291","0.0-4.0-0.160","2","High_HMMActual","488.39000007137656","","","","Images/NewTrialBC.png","39"
"image-keyboard-response","501","418720","0.0-4.0-1.160","2","High_HMMActual","null","","","","Images/WhiteBeadChoice.png","null"
"image-keyboard-response","502","419432","0.0-4.0-2.160","2","High_HMMActual","null","","","","Images/WhiteBeadChoiceCorrect.png","null"
"image-keyboard-response","503","419760","0.0-4.0-0.161","2","High_HMMActual","324.6150000486523","","","","Images/NewTrialWC.png","37"
"image-keyboard-response","504","420176","0.0-4.0-1.161","2","High_HMMActual","null","","","","Images/BlackBeadChoice.png","null"
"image-keyboard-response","505","420882","0.0-4.0-2.161","2","High_HMMActual","null","","","","Images/BlackBeadChoiceCorrect.png","null"
"image-keyboard-response","506","421231","0.0-4.0-0.162","2","High_HMMActual","345.8100000862032","","","","Images/NewTrialBC.png","39"
"image-keyboard-response","507","421654","0.0-4.0-1.162","2","High_HMMActual","null","","","","Images/WhiteBeadChoice.png","null"
"image-keyboard-response","508","422369","0.0-4.0-2.162","2","High_HMMActual","null","","","","Images/WhiteBeadChoiceWrong.png","null"
"image-keyboard-response","509","422750","0.0-4.0-0.163","2","High_HMMActual","379.1799999307841","","","","Images/NewTrialBC.png","37"
"image-keyboard-response","510","423158","0.0-4.0-1.163","2","High_HMMActual","null","","","","Images/BlackBeadChoice.png","null"
"image-keyboard-response","511","423864","0.0-4.0-2.163","2","High_HMMActual","null","","","","Images/BlackBeadChoiceWrong.png","null"
"image-keyboard-response","512","424467","0.0-4.0-0.164","2","High_HMMActual","601.5099999494851","","","","Images/NewTrialWC.png","39"
"image-keyboard-response","513","424870","0.0-4.0-1.164","2","High_HMMActual","null","","","","Images/WhiteBeadChoice.png","null"
"image-keyboard-response","514","425602","0.0-4.0-2.164","2","High_HMMActual","null","","","","Images/WhiteBeadChoiceCorrect.png","null"
"image-keyboard-response","515","426081","0.0-4.0-0.165","2","High_HMMActual","476.93499992601573","","","","Images/NewTrialWC.png","37"
"image-keyboard-response","516","426494","0.0-4.0-1.165","2","High_HMMActual","null","","","","Images/BlackBeadChoice.png","null"
"image-keyboard-response","517","427205","0.0-4.0-2.165","2","High_HMMActual","null","","","","Images/BlackBeadChoiceWrong.png","null"
"image-keyboard-response","518","427974","0.0-4.0-0.166","2","High_HMMActual","766.7900000233203","","","","Images/NewTrialWC.png","39"
"image-keyboard-response","519","428386","0.0-4.0-1.166","2","High_HMMActual","null","","","","Images/WhiteBeadChoice.png","null"
"image-keyboard-response","520","429095","0.0-4.0-2.166","2","High_HMMActual","null","","","","Images/WhiteBeadChoiceCorrect.png","null"
"image-keyboard-response","521","429790","0.0-4.0-0.167","2","High_HMMActual","692.5000001210719","","","","Images/NewTrialWC.png","39"
"image-keyboard-response","522","430196","0.0-4.0-1.167","2","High_HMMActual","null","","","","Images/WhiteBeadChoice.png","null"
"image-keyboard-response","523","430901","0.0-4.0-2.167","2","High_HMMActual","null","","","","Images/WhiteBeadChoiceWrong.png","null"
"image-keyboard-response","524","431388","0.0-4.0-0.168","2","High_HMMActual","485.0699999369681","","","","Images/NewTrialBC.png","39"
"image-keyboard-response","525","431801","0.0-4.0-1.168","2","High_HMMActual","null","","","","Images/WhiteBeadChoice.png","null"
"image-keyboard-response","526","432507","0.0-4.0-2.168","2","High_HMMActual","null","","","","Images/WhiteBeadChoiceCorrect.png","null"
"image-keyboard-response","527","433038","0.0-4.0-0.169","2","High_HMMActual","529.2750000953674","","","","Images/NewTrialWC.png","37"
"image-keyboard-response","528","433456","0.0-4.0-1.169","2","High_HMMActual","null","","","","Images/BlackBeadChoice.png","null"
"image-keyboard-response","529","434169","0.0-4.0-2.169","2","High_HMMActual","null","","","","Images/BlackBeadChoiceCorrect.png","null"
"image-keyboard-response","530","434659","0.0-4.0-0.170","2","High_HMMActual","488.4600001387298","","","","Images/NewTrialBC.png","39"
"image-keyboard-response","531","435062","0.0-4.0-1.170","2","High_HMMActual","null","","","","Images/WhiteBeadChoice.png","null"
"image-keyboard-response","532","435775","0.0-4.0-2.170","2","High_HMMActual","null","","","","Images/WhiteBeadChoiceCorrect.png","null"
"image-keyboard-response","533","436122","0.0-4.0-0.171","2","High_HMMActual","345.4650000203401","","","","Images/NewTrialWC.png","37"
"image-keyboard-response","534","436535","0.0-4.0-1.171","2","High_HMMActual","null","","","","Images/BlackBeadChoice.png","null"
"image-keyboard-response","535","437247","0.0-4.0-2.171","2","High_HMMActual","null","","","","Images/BlackBeadChoiceCorrect.png","null"
"image-keyboard-response","536","437825","0.0-4.0-0.172","2","High_HMMActual","576.0749999899417","","","","Images/NewTrialBC.png","39"
"image-keyboard-response","537","438243","0.0-4.0-1.172","2","High_HMMActual","null","","","","Images/WhiteBeadChoice.png","null"
"image-keyboard-response","538","438960","0.0-4.0-2.172","2","High_HMMActual","null","","","","Images/WhiteBeadChoiceWrong.png","null"
"image-keyboard-response","539","439402","0.0-4.0-0.173","2","High_HMMActual","440.5599997844547","","","","Images/NewTrialBC.png","37"
"image-keyboard-response","540","439806","0.0-4.0-1.173","2","High_HMMActual","null","","","","Images/BlackBeadChoice.png","null"
"image-keyboard-response","541","440523","0.0-4.0-2.173","2","High_HMMActual","null","","","","Images/BlackBeadChoiceCorrect.png","null"
"image-keyboard-response","542","441891","0.0-4.0-0.174","2","High_HMMActual","1366.3649999070913","","","","Images/NewTrialBC.png","39"
"image-keyboard-response","543","442309","0.0-4.0-1.174","2","High_HMMActual","null","","","","Images/WhiteBeadChoice.png","null"
"image-keyboard-response","544","443013","0.0-4.0-2.174","2","High_HMMActual","null","","","","Images/WhiteBeadChoiceCorrect.png","null"
"image-keyboard-response","545","443332","0.0-4.0-0.175","2","High_HMMActual","316.85000006109476","","","","Images/NewTrialWC.png","37"
"image-keyboard-response","546","443734","0.0-4.0-1.175","2","High_HMMActual","null","","","","Images/BlackBeadChoice.png","null"
"image-keyboard-response","547","444444","0.0-4.0-2.175","2","High_HMMActual","null","","","","Images/BlackBeadChoiceCorrect.png","null"
"image-keyboard-response","548","444842","0.0-4.0-0.176","2","High_HMMActual","395.9699999541044","","","","Images/NewTrialBC.png","39"
"image-keyboard-response","549","445244","0.0-4.0-1.176","2","High_HMMActual","null","","","","Images/WhiteBeadChoice.png","null"
"image-keyboard-response","550","445949","0.0-4.0-2.176","2","High_HMMActual","null","","","","Images/WhiteBeadChoiceCorrect.png","null"
"image-keyboard-response","551","446243","0.0-4.0-0.177","2","High_HMMActual","291.71499982476234","","","","Images/NewTrialWC.png","37"
"image-keyboard-response","552","446658","0.0-4.0-1.177","2","High_HMMActual","null","","","","Images/BlackBeadChoice.png","null"
"image-keyboard-response","553","447368","0.0-4.0-2.177","2","High_HMMActual","438.85000003501773","","","","Images/BlackBeadChoiceCorrect.png","39"
"image-keyboard-response","554","448507","0.0-4.0-0.178","2","High_HMMActual","1137.4250000808388","","","","Images/NewTrialBC.png","39"
"image-keyboard-response","555","448911","0.0-4.0-1.178","2","High_HMMActual","null","","","","Images/WhiteBeadChoice.png","null"
"image-keyboard-response","556","449625","0.0-4.0-2.178","2","High_HMMActual","null","","","","Images/WhiteBeadChoiceWrong.png","null"
"image-keyboard-response","557","450001","0.0-4.0-0.179","2","High_HMMActual","373.90500004403293","","","","Images/NewTrialBC.png","37"
"image-keyboard-response","558","450416","0.0-4.0-1.179","2","High_HMMActual","null","","","","Images/BlackBeadChoice.png","null"
"image-keyboard-response","559","451120","0.0-4.0-2.179","2","High_HMMActual","null","","","","Images/BlackBeadChoiceCorrect.png","null"
"image-keyboard-response","560","451640","0.0-4.0-0.180","2","High_HMMActual","518.709999974817","","","","Images/NewTrialBC.png","39"
"image-keyboard-response","561","452064","0.0-4.0-1.180","2","High_HMMActual","null","","","","Images/WhiteBeadChoice.png","null"
"image-keyboard-response","562","452772","0.0-4.0-2.180","2","High_HMMActual","null","","","","Images/WhiteBeadChoiceCorrect.png","null"
"image-keyboard-response","563","453089","0.0-4.0-0.181","2","High_HMMActual","314.5850000437349","","","","Images/NewTrialWC.png","37"
"image-keyboard-response","564","453490","0.0-4.0-1.181","2","High_HMMActual","null","","","","Images/BlackBeadChoice.png","null"
"image-keyboard-response","565","454203","0.0-4.0-2.181","2","High_HMMActual","null","","","","Images/BlackBeadChoiceCorrect.png","null"
"image-keyboard-response","566","454573","0.0-4.0-0.182","2","High_HMMActual","367.6650000270456","","","","Images/NewTrialBC.png","39"
"image-keyboard-response","567","455002","0.0-4.0-1.182","2","High_HMMActual","null","","","","Images/WhiteBeadChoice.png","null"
"image-keyboard-response","568","455713","0.0-4.0-2.182","2","High_HMMActual","null","","","","Images/WhiteBeadChoiceCorrect.png","null"
"image-keyboard-response","569","456038","0.0-4.0-0.183","2","High_HMMActual","322.76000012643635","","","","Images/NewTrialWC.png","37"
"image-keyboard-response","570","456443","0.0-4.0-1.183","2","High_HMMActual","null","","","","Images/BlackBeadChoice.png","null"
"image-keyboard-response","571","457153","0.0-4.0-2.183","2","High_HMMActual","null","","","","Images/BlackBeadChoiceCorrect.png","null"
"image-keyboard-response","572","457551","0.0-4.0-0.184","2","High_HMMActual","396.4100000448525","","","","Images/NewTrialBC.png","39"
"image-keyboard-response","573","457957","0.0-4.0-1.184","2","High_HMMActual","null","","","","Images/WhiteBeadChoice.png","null"
"image-keyboard-response","574","458668","0.0-4.0-2.184","2","High_HMMActual","null","","","","Images/WhiteBeadChoiceCorrect.png","null"
"image-keyboard-response","575","458984","0.0-4.0-0.185","2","High_HMMActual","314.22999990172684","","","","Images/NewTrialWC.png","37"
"image-keyboard-response","576","459399","0.0-4.0-1.185","2","High_HMMActual","null","","","","Images/BlackBeadChoice.png","null"
"image-keyboard-response","577","460108","0.0-4.0-2.185","2","High_HMMActual","null","","","","Images/BlackBeadChoiceCorrect.png","null"
"image-keyboard-response","578","460425","0.0-4.0-0.186","2","High_HMMActual","314.4650000613183","","","","Images/NewTrialBC.png","39"
"image-keyboard-response","579","460840","0.0-4.0-1.186","2","High_HMMActual","null","","","","Images/WhiteBeadChoice.png","null"
"image-keyboard-response","580","461546","0.0-4.0-2.186","2","High_HMMActual","null","","","","Images/WhiteBeadChoiceWrong.png","null"
"image-keyboard-response","581","462015","0.0-4.0-0.187","2","High_HMMActual","467.60500012896955","","","","Images/NewTrialBC.png","37"
"image-keyboard-response","582","462431","0.0-4.0-1.187","2","High_HMMActual","null","","","","Images/BlackBeadChoice.png","null"
"image-keyboard-response","583","463147","0.0-4.0-2.187","2","High_HMMActual","null","","","","Images/BlackBeadChoiceCorrect.png","null"
"image-keyboard-response","584","463473","0.0-4.0-0.188","2","High_HMMActual","322.99500005319715","","","","Images/NewTrialBC.png","39"
"image-keyboard-response","585","463889","0.0-4.0-1.188","2","High_HMMActual","null","","","","Images/WhiteBeadChoice.png","null"
"image-keyboard-response","586","464596","0.0-4.0-2.188","2","High_HMMActual","null","","","","Images/WhiteBeadChoiceCorrect.png","null"
"image-keyboard-response","587","464913","0.0-4.0-0.189","2","High_HMMActual","315.6500000040978","","","","Images/NewTrialWC.png","37"
"image-keyboard-response","588","465330","0.0-4.0-1.189","2","High_HMMActual","null","","","","Images/BlackBeadChoice.png","null"
"image-keyboard-response","589","466044","0.0-4.0-2.189","2","High_HMMActual","null","","","","Images/BlackBeadChoiceCorrect.png","null"
"image-keyboard-response","590","466134","0.0-4.0-0.190","2","High_HMMActual","89.38000001944602","","","","Images/NewTrialBC.png","39"
"image-keyboard-response","591","466535","0.0-4.0-1.190","2","High_HMMActual","null","","","","Images/WhiteBeadChoice.png","null"
"image-keyboard-response","592","467249","0.0-4.0-2.190","2","High_HMMActual","null","","","","Images/WhiteBeadChoiceWrong.png","null"
"image-keyboard-response","593","467331","0.0-4.0-0.191","2","High_HMMActual","80.42000001296401","","","","Images/NewTrialBC.png","37"
"image-keyboard-response","594","467746","0.0-4.0-1.191","2","High_HMMActual","null","","","","Images/BlackBeadChoice.png","null"
"image-keyboard-response","595","468453","0.0-4.0-2.191","2","High_HMMActual","null","","","","Images/BlackBeadChoiceWrong.png","null"
"image-keyboard-response","596","468864","0.0-4.0-0.192","2","High_HMMActual","410.14000005088747","","","","Images/NewTrialWC.png","39"
"image-keyboard-response","597","469281","0.0-4.0-1.192","2","High_HMMActual","null","","","","Images/WhiteBeadChoice.png","null"
"image-keyboard-response","598","469996","0.0-4.0-2.192","2","High_HMMActual","null","","","","Images/WhiteBeadChoiceCorrect.png","null"
"image-keyboard-response","599","470950","0.0-4.0-0.193","2","High_HMMActual","952.0250000059605","","","","Images/NewTrialWC.png","39"
"image-keyboard-response","600","471352","0.0-4.0-1.193","2","High_HMMActual","null","","","","Images/WhiteBeadChoice.png","null"
"image-keyboard-response","601","472059","0.0-4.0-2.193","2","High_HMMActual","null","","","","Images/WhiteBeadChoiceWrong.png","null"
"image-keyboard-response","602","472512","0.0-4.0-0.194","2","High_HMMActual","451.23500004410744","","","","Images/NewTrialBC.png","39"
"image-keyboard-response","603","472915","0.0-4.0-1.194","2","High_HMMActual","null","","","","Images/WhiteBeadChoice.png","null"
"image-keyboard-response","604","473632","0.0-4.0-2.194","2","High_HMMActual","null","","","","Images/WhiteBeadChoiceCorrect.png","null"
"image-keyboard-response","605","474091","0.0-4.0-0.195","2","High_HMMActual","457.96999987214804","","","","Images/NewTrialWC.png","37"
"image-keyboard-response","606","474517","0.0-4.0-1.195","2","High_HMMActual","null","","","","Images/BlackBeadChoice.png","null"
"image-keyboard-response","607","475227","0.0-4.0-2.195","2","High_HMMActual","null","","","","Images/BlackBeadChoiceCorrect.png","null"
"image-keyboard-response","608","475372","0.0-4.0-0.196","2","High_HMMActual","143.82999995723367","","","","Images/NewTrialBC.png","39"
"image-keyboard-response","609","475777","0.0-4.0-1.196","2","High_HMMActual","null","","","","Images/WhiteBeadChoice.png","null"
"image-keyboard-response","610","476493","0.0-4.0-2.196","2","High_HMMActual","null","","","","Images/WhiteBeadChoiceWrong.png","null"
"image-keyboard-response","611","476612","0.0-4.0-0.197","2","High_HMMActual","117.42000002413988","","","","Images/NewTrialBC.png","37"
"image-keyboard-response","612","477016","0.0-4.0-1.197","2","High_HMMActual","null","","","","Images/BlackBeadChoice.png","null"
"image-keyboard-response","613","477728","0.0-4.0-2.197","2","High_HMMActual","null","","","","Images/BlackBeadChoiceWrong.png","null"
"image-keyboard-response","614","478179","0.0-4.0-0.198","2","High_HMMActual","449.3200001306832","","","","Images/NewTrialWC.png","39"
"image-keyboard-response","615","478589","0.0-4.0-1.198","2","High_HMMActual","null","","","","Images/WhiteBeadChoice.png","null"
"image-keyboard-response","616","479301","0.0-4.0-2.198","2","High_HMMActual","null","","","","Images/WhiteBeadChoiceCorrect.png","null"
"image-keyboard-response","617","479816","0.0-4.0-0.199","2","High_HMMActual","512.9050000105053","","","","Images/NewTrialWC.png","39"
"image-keyboard-response","618","480228","0.0-4.0-1.199","2","High_HMMActual","null","","","","Images/WhiteBeadChoice.png","null"
"image-keyboard-response","619","480936","0.0-4.0-2.199","2","High_HMMActual","null","","","","Images/WhiteBeadChoiceWrong.png","null"
"image-keyboard-response","620","481426","0.0-4.0-0.200","2","High_HMMActual","488.58499992638826","","","","Images/NewTrialBC.png","39"
"image-keyboard-response","621","481840","0.0-4.0-1.200","2","High_HMMActual","null","","","","Images/WhiteBeadChoice.png","null"
"image-keyboard-response","622","482555","0.0-4.0-2.200","2","High_HMMActual","null","","","","Images/WhiteBeadChoiceCorrect.png","null"
"image-keyboard-response","623","483327","0.0-4.0-0.201","2","High_HMMActual","771.8100000638515","","","","Images/NewTrialWC.png","37"
"image-keyboard-response","624","483748","0.0-4.0-1.201","2","High_HMMActual","null","","","","Images/BlackBeadChoice.png","null"
"image-keyboard-response","625","484463","0.0-4.0-2.201","2","High_HMMActual","null","","","","Images/BlackBeadChoiceCorrect.png","null"
"image-keyboard-response","626","484889","0.0-4.0-0.202","2","High_HMMActual","425.44500017538667","","","","Images/NewTrialBC.png","39"
"image-keyboard-response","627","485305","0.0-4.0-1.202","2","High_HMMActual","null","","","","Images/WhiteBeadChoice.png","null"
"image-keyboard-response","628","486023","0.0-4.0-2.202","2","High_HMMActual","null","","","","Images/WhiteBeadChoiceWrong.png","null"
"image-keyboard-response","629","486401","0.0-4.0-0.203","2","High_HMMActual","377.5350002106279","","","","Images/NewTrialBC.png","37"
"image-keyboard-response","630","486817","0.0-4.0-1.203","2","High_HMMActual","null","","","","Images/BlackBeadChoice.png","null"
"image-keyboard-response","631","487531","0.0-4.0-2.203","2","High_HMMActual","null","","","","Images/BlackBeadChoiceWrong.png","null"
"image-keyboard-response","632","488783","0.0-4.0-0.204","2","High_HMMActual","1251.6149999573827","","","","Images/NewTrialWC.png","39"
"image-keyboard-response","633","489190","0.0-4.0-1.204","2","High_HMMActual","null","","","","Images/WhiteBeadChoice.png","null"
"image-keyboard-response","634","489902","0.0-4.0-2.204","2","High_HMMActual","null","","","","Images/WhiteBeadChoiceWrong.png","null"
"image-keyboard-response","635","490733","0.0-4.0-0.205","2","High_HMMActual","830.0850000232458","","","","Images/NewTrialBC.png","39"
"image-keyboard-response","636","491149","0.0-4.0-1.205","2","High_HMMActual","null","","","","Images/WhiteBeadChoice.png","null"
"image-keyboard-response","637","491865","0.0-4.0-2.205","2","High_HMMActual","null","","","","Images/WhiteBeadChoiceCorrect.png","null"
"image-keyboard-response","638","492299","0.0-4.0-0.206","2","High_HMMActual","433.6599998641759","","","","Images/NewTrialWC.png","37"
"image-keyboard-response","639","492718","0.0-4.0-1.206","2","High_HMMActual","null","","","","Images/BlackBeadChoice.png","null"
"image-keyboard-response","640","493428","0.0-4.0-2.206","2","High_HMMActual","null","","","","Images/BlackBeadChoiceCorrect.png","null"
"image-keyboard-response","641","493805","0.0-4.0-0.207","2","High_HMMActual","376.22500001452863","","","","Images/NewTrialBC.png","39"
"image-keyboard-response","642","494212","0.0-4.0-1.207","2","High_HMMActual","null","","","","Images/WhiteBeadChoice.png","null"
"image-keyboard-response","643","494913","0.0-4.0-2.207","2","High_HMMActual","null","","","","Images/WhiteBeadChoiceWrong.png","null"
"image-keyboard-response","644","495240","0.0-4.0-0.208","2","High_HMMActual","325.5549999885261","","","","Images/NewTrialBC.png","37"
"image-keyboard-response","645","495644","0.0-4.0-1.208","2","High_HMMActual","null","","","","Images/BlackBeadChoice.png","null"
"image-keyboard-response","646","496345","0.0-4.0-2.208","2","High_HMMActual","null","","","","Images/BlackBeadChoiceCorrect.png","null"
"image-keyboard-response","647","498025","0.0-4.0-0.209","2","High_HMMActual","1679.119999986142","","","","Images/NewTrialBC.png","39"
"image-keyboard-response","648","498432","0.0-4.0-1.209","2","High_HMMActual","null","","","","Images/WhiteBeadChoice.png","null"
"image-keyboard-response","649","499133","0.0-4.0-2.209","2","High_HMMActual","null","","","","Images/WhiteBeadChoiceCorrect.png","null"
"image-keyboard-response","650","499566","0.0-4.0-0.210","2","High_HMMActual","432.1399999316782","","","","Images/NewTrialWC.png","37"
"image-keyboard-response","651","499978","0.0-4.0-1.210","2","High_HMMActual","null","","","","Images/BlackBeadChoice.png","null"
"image-keyboard-response","652","500693","0.0-4.0-2.210","2","High_HMMActual","null","","","","Images/BlackBeadChoiceCorrect.png","null"
"image-keyboard-response","653","500876","0.0-4.0-0.211","2","High_HMMActual","181.84500001370907","","","","Images/NewTrialBC.png","39"
"image-keyboard-response","654","501294","0.0-4.0-1.211","2","High_HMMActual","null","","","","Images/WhiteBeadChoice.png","null"
"image-keyboard-response","655","502008","0.0-4.0-2.211","2","High_HMMActual","null","","","","Images/WhiteBeadChoiceCorrect.png","null"
"image-keyboard-response","656","502283","0.0-4.0-0.212","2","High_HMMActual","273.50000012665987","","","","Images/NewTrialWC.png","37"
"image-keyboard-response","657","502699","0.0-4.0-1.212","2","High_HMMActual","null","","","","Images/BlackBeadChoice.png","null"
"image-keyboard-response","658","503411","0.0-4.0-2.212","2","High_HMMActual","645.7149998750538","","","","Images/BlackBeadChoiceWrong.png","39"
"image-keyboard-response","659","503986","0.0-4.0-0.213","2","High_HMMActual","574.4249999988824","","","","Images/NewTrialWC.png","39"
"image-keyboard-response","660","504396","0.0-4.0-1.213","2","High_HMMActual","null","","","","Images/WhiteBeadChoice.png","null"
"image-keyboard-response","661","505112","0.0-4.0-2.213","2","High_HMMActual","440.1050000451505","","","","Images/WhiteBeadChoiceWrong.png","37"
"image-keyboard-response","662","505557","0.0-4.0-0.214","2","High_HMMActual","444.84000001102686","","","","Images/NewTrialBC.png","39"
"image-keyboard-response","663","505962","0.0-4.0-1.214","2","High_HMMActual","null","","","","Images/WhiteBeadChoice.png","null"
"image-keyboard-response","664","506669","0.0-4.0-2.214","2","High_HMMActual","292.70000010728836","","","","Images/WhiteBeadChoiceWrong.png","37"
"image-keyboard-response","665","506921","0.0-4.0-0.215","2","High_HMMActual","249.97000000439584","","","","Images/NewTrialBC.png","39"
"image-keyboard-response","666","507327","0.0-4.0-1.215","2","High_HMMActual","null","","","","Images/WhiteBeadChoice.png","null"
"image-keyboard-response","667","508049","0.0-4.0-2.215","2","High_HMMActual","null","","","","Images/WhiteBeadChoiceCorrect.png","null"
"image-keyboard-response","668","508806","0.0-4.0-0.216","2","High_HMMActual","755.1849998999387","","","","Images/NewTrialWC.png","37"
"image-keyboard-response","669","509214","0.0-4.0-1.216","2","High_HMMActual","null","","","","Images/BlackBeadChoice.png","null"
"image-keyboard-response","670","509931","0.0-4.0-2.216","2","High_HMMActual","null","","","","Images/BlackBeadChoiceCorrect.png","null"
"image-keyboard-response","671","511331","0.0-4.0-0.217","2","High_HMMActual","1398.7350000534207","","","","Images/NewTrialBC.png","37"
"image-keyboard-response","672","511734","0.0-4.0-1.217","2","High_HMMActual","null","","","","Images/BlackBeadChoice.png","null"
"image-keyboard-response","673","512446","0.0-4.0-2.217","2","High_HMMActual","null","","","","Images/BlackBeadChoiceWrong.png","null"
"image-keyboard-response","674","513299","0.0-4.0-0.218","2","High_HMMActual","850.9199998807162","","","","Images/NewTrialWC.png","39"
"image-keyboard-response","675","513717","0.0-4.0-1.218","2","High_HMMActual","null","","","","Images/WhiteBeadChoice.png","null"
"image-keyboard-response","676","514427","0.0-4.0-2.218","2","High_HMMActual","null","","","","Images/WhiteBeadChoiceWrong.png","null"
"image-keyboard-response","677","514751","0.0-4.0-0.219","2","High_HMMActual","322.1050000283867","","","","Images/NewTrialBC.png","39"
"image-keyboard-response","678","515157","0.0-4.0-1.219","2","High_HMMActual","null","","","","Images/WhiteBeadChoice.png","null"
"image-keyboard-response","679","515862","0.0-4.0-2.219","2","High_HMMActual","null","","","","Images/WhiteBeadChoiceCorrect.png","null"
"image-keyboard-response","680","516271","0.0-4.0-0.220","2","High_HMMActual","406.6850000526756","","","","Images/NewTrialWC.png","37"
"image-keyboard-response","681","516682","0.0-4.0-1.220","2","High_HMMActual","null","","","","Images/BlackBeadChoice.png","null"
"image-keyboard-response","682","517391","0.0-4.0-2.220","2","High_HMMActual","null","","","","Images/BlackBeadChoiceCorrect.png","null"
"image-keyboard-response","683","517677","0.0-4.0-0.221","2","High_HMMActual","284.6150000113994","","","","Images/NewTrialBC.png","39"
"image-keyboard-response","684","518081","0.0-4.0-1.221","2","High_HMMActual","null","","","","Images/WhiteBeadChoice.png","null"
"image-keyboard-response","685","518796","0.0-4.0-2.221","2","High_HMMActual","null","","","","Images/WhiteBeadChoiceCorrect.png","null"
"image-keyboard-response","686","519099","0.0-4.0-0.222","2","High_HMMActual","301.20000010356307","","","","Images/NewTrialWC.png","37"
"image-keyboard-response","687","519513","0.0-4.0-1.222","2","High_HMMActual","null","","","","Images/BlackBeadChoice.png","null"
"image-keyboard-response","688","520223","0.0-4.0-2.222","2","High_HMMActual","null","","","","Images/BlackBeadChoiceCorrect.png","null"
"image-keyboard-response","689","520516","0.0-4.0-0.223","2","High_HMMActual","290.9850000869483","","","","Images/NewTrialBC.png","39"
"image-keyboard-response","690","520928","0.0-4.0-1.223","2","High_HMMActual","null","","","","Images/WhiteBeadChoice.png","null"
"image-keyboard-response","691","521653","0.0-4.0-2.223","2","High_HMMActual","null","","","","Images/WhiteBeadChoiceCorrect.png","null"
"image-keyboard-response","692","521693","0.0-4.0-0.224","2","High_HMMActual","38.74500002712011","","","","Images/NewTrialWC.png","37"
"image-keyboard-response","693","522107","0.0-4.0-1.224","2","High_HMMActual","null","","","","Images/BlackBeadChoice.png","null"
"image-keyboard-response","694","522829","0.0-4.0-2.224","2","High_HMMActual","null","","","","Images/BlackBeadChoiceCorrect.png","null"
"image-keyboard-response","695","523280","0.0-4.0-0.225","2","High_HMMActual","449.2899999022484","","","","Images/NewTrialBC.png","39"
"image-keyboard-response","696","523693","0.0-4.0-1.225","2","High_HMMActual","null","","","","Images/WhiteBeadChoice.png","null"
"image-keyboard-response","697","524402","0.0-4.0-2.225","2","High_HMMActual","null","","","","Images/WhiteBeadChoiceWrong.png","null"
"image-keyboard-response","698","524961","0.0-4.0-0.226","2","High_HMMActual","557.7199999243021","","","","Images/NewTrialBC.png","37"
"image-keyboard-response","699","525373","0.0-4.0-1.226","2","High_HMMActual","null","","","","Images/BlackBeadChoice.png","null"
"image-keyboard-response","700","526090","0.0-4.0-2.226","2","High_HMMActual","null","","","","Images/BlackBeadChoiceWrong.png","null"
"image-keyboard-response","701","526523","0.0-4.0-0.227","2","High_HMMActual","431.07499997131526","","","","Images/NewTrialWC.png","39"
"image-keyboard-response","702","526931","0.0-4.0-1.227","2","High_HMMActual","null","","","","Images/WhiteBeadChoice.png","null"
"image-keyboard-response","703","527635","0.0-4.0-2.227","2","High_HMMActual","null","","","","Images/WhiteBeadChoiceCorrect.png","null"
"image-keyboard-response","704","528314","0.0-4.0-0.228","2","High_HMMActual","676.8799999263138","","","","Images/NewTrialWC.png","37"
"image-keyboard-response","705","528730","0.0-4.0-1.228","2","High_HMMActual","null","","","","Images/BlackBeadChoice.png","null"
"image-keyboard-response","706","529446","0.0-4.0-2.228","2","High_HMMActual","null","","","","Images/BlackBeadChoiceWrong.png","null"
"image-keyboard-response","707","529556","0.0-4.0-0.229","2","High_HMMActual","107.95500013045967","","","","Images/NewTrialWC.png","39"
"image-keyboard-response","708","529969","0.0-4.0-1.229","2","High_HMMActual","null","","","","Images/WhiteBeadChoice.png","null"
"image-keyboard-response","709","530685","0.0-4.0-2.229","2","High_HMMActual","null","","","","Images/WhiteBeadChoiceCorrect.png","null"
"image-keyboard-response","710","531312","0.0-4.0-0.230","2","High_HMMActual","625.0700000673532","","","","Images/NewTrialWC.png","39"
"image-keyboard-response","711","531730","0.0-4.0-1.230","2","High_HMMActual","null","","","","Images/WhiteBeadChoice.png","null"
"image-keyboard-response","712","532440","0.0-4.0-2.230","2","High_HMMActual","null","","","","Images/WhiteBeadChoiceCorrect.png","null"
"image-keyboard-response","713","532924","0.0-4.0-0.231","2","High_HMMActual","482.6400000602007","","","","Images/NewTrialWC.png","39"
"image-keyboard-response","714","533348","0.0-4.0-1.231","2","High_HMMActual","null","","","","Images/WhiteBeadChoice.png","null"
"image-keyboard-response","715","534055","0.0-4.0-2.231","2","High_HMMActual","null","","","","Images/WhiteBeadChoiceCorrect.png","null"
"image-keyboard-response","716","534394","0.0-4.0-0.232","2","High_HMMActual","337.32499997131526","","","","Images/NewTrialWC.png","39"
"image-keyboard-response","717","534802","0.0-4.0-1.232","2","High_HMMActual","null","","","","Images/WhiteBeadChoice.png","null"
"image-keyboard-response","718","535509","0.0-4.0-2.232","2","High_HMMActual","null","","","","Images/WhiteBeadChoiceWrong.png","null"
"image-keyboard-response","719","536022","0.0-4.0-0.233","2","High_HMMActual","510.7399998232722","","","","Images/NewTrialBC.png","37"
"image-keyboard-response","720","536438","0.0-4.0-1.233","2","High_HMMActual","null","","","","Images/BlackBeadChoice.png","null"
