"trial_type","trial_index","time_elapsed","internal_node_id","Script_Picker","rt","url","responses","question_order","stimulus","key_press"
"pavlovia","0","2","0.0-0.0","7","","","","","",""
"external-html","1","35587","0.0-1.0-0.0","7","35530.039999999644","consent.html","","","",""
"survey-multi-choice","2","40522","0.0-1.0-1.0","7","4932.219999998779","","{""Q0"":""Male"",""Q1"":""White""}","[0,1]","",""
"survey-text","3","43308","0.0-1.0-2.0","7","2784.2749999999796","","{""Q0"":""21""}","","",""
"survey-text","4","49181","0.0-1.0-3.0","7","5769.225000000006","","{""Q0"":""5ec2fb8c1253161390f336bc""}","","",""
"html-keyboard-response","5","79603","0.0-2.0-0.0","7","30315.765000001193","","","","<div class=""container"" style=""height:800px;width:800px;display:flex;flex-direction:column;justify-content:center;align-items:center;text-align:center;font-weight:normal;font-family:Arial;font-size:20px""><p>In this task you will see black or white beads being pulled from jars. <br><br>On each trial, a bead will be pulled from one of two jars. Once you see this bead, your goal is to predict the color of NEXT bead that will be pulled. <br> <br>Every time you correctly guess the color of the NEXT bead, you will get a point. The more points you get, the higher your win bonus at the end of the experiment <br><br>Press the SPACEBAR to continue.</p><div>","32"
"html-keyboard-response","6","99997","0.0-2.0-1.0","7","20393.670000001293","","","","<div class=""container"" style=""height:800px;width:800px;display:flex;flex-direction:column;justify-content:center;align-items:center;text-align:center;font-weight:normal;font-family:Arial;font-size:20px""><p>There are two types of jars:<br><br>1) Jars filled with ONLY white or black beads<br><br>2) Jars filled with 90% white or black beads and 10% of the opposite color mixed in<br><br>Press the SPACEBAR to continue. </p><div>","32"
"image-keyboard-response","7","106920","0.0-2.0-2.0","7","6921.6899999992165","","","","resources/WhiteJar_MM.png","32"
"image-keyboard-response","8","108608","0.0-2.0-3.0","7","1687.7999999996973","","","","resources/BlackJar_MM.png","32"
"image-keyboard-response","9","111991","0.0-2.0-4.0","7","3382.1550000011484","","","","resources/WhiteJar_HMM.png","32"
"image-keyboard-response","10","113425","0.0-2.0-5.0","7","1433.8799999986804","","","","resources/BlackJar_HMM.png","32"
"html-keyboard-response","11","148801","0.0-2.0-6.0","7","35374.70500000016","","","","<div class=""container"" style=""height:800px;width:800px;display:flex;flex-direction:column;justify-content:center;align-items:center;text-align:center;font-weight:normal;font-family:Arial;font-size:20px""><p>There will be four blocks of trials. In each block, you will see the pair of jars that beads will be pulled from.<br><br>The pair of jars used in each block will ONLY ever be 100% white and black jars, or 90/10 mixed jars. <br><br>The pair of jars in each block will not change until the next block.<br><br>Here are examples of what you will see on each trial.<br><br>Press the SPACEBAR to continue. </p><div>","32"
"image-keyboard-response","12","152357","0.0-2.0-7.0","7","3555.0849999999627","","","","Images/NoChoiceMM.png","32"
"image-keyboard-response","13","156357","0.0-2.0-8.0","7","4000.0149999996065","","","","Images/NoChoice.png","32"
"html-keyboard-response","14","205175","0.0-2.0-9.0","7","48817.01999999859","","","","<div class=""container"" style=""height:800px;width:800px;display:flex;flex-direction:column;justify-content:center;align-items:center;text-align:center;font-weight:normal;font-family:Arial;font-size:20px""><p> The jar the beads are pulled from is NOT choosen at random on each trial.<br><br>After each prediction, there will be a chance that the jars will switch, and that the next bead will be pulled from the opposite jar as the previous trial.<br><br>In each block, the chance that a jar will switch will either be LOW (the jars will not switch very often), or HIGH (the jars will switch almost all the time).<br><br>At the start of each block, you will be told the probability that the jars will switch on each trial. This switch probability will stay constant throughout the block.<br><br>Press the SPACEBAR to continue. </p><div>","32"
"image-keyboard-response","15","215360","0.0-2.0-10.0","7","10183.940000000817","","","","Images/TutorialBlackJarDrawMM.png","32"
"image-keyboard-response","16","217926","0.0-2.0-11.0","7","2565.3349999993225","","","","Images/TutorialWhiteJarDrawMM.png","32"
"html-keyboard-response","17","264096","0.0-2.0-12.0","7","46169.51000000155","","","","<div class=""container"" style=""height:800px;width:800px;display:flex;flex-direction:column;justify-content:center;align-items:center;text-align:center;font-weight:normal;font-family:Arial;font-size:20px""><p> When the jars are filled with only one color, each bead is guaranteed to have come from the same-colored jar. During these blocks, the best strategy is to use the jar switch probability to predict whether the next bead will be the same or different from the previous trial.<br><br> When the jars contain a mix of black and white beads, you will sometimes see black beads pulled from the mostly white jar, and white beads pulled from the mostly black jar. <br><br>Here is an example.<br><br>Press the SPACEBAR to continue.  </p><div>","32"
"image-keyboard-response","18","273376","0.0-2.0-13.0","7","9279.285000000498","","","","Images/TutorialWhiteJarDrawHMMC.png","32"
"image-keyboard-response","19","276389","0.0-2.0-14.0","7","3012.6950000012876","","","","Images/TutorialBlackJarDrawHMMC.png","32"
"image-keyboard-response","20","277893","0.0-2.0-15.0","7","1503.074999998731","","","","Images/TutorialBlackJarDrawHMMI.png","32"
"html-keyboard-response","21","305981","0.0-2.0-16.0","7","28086.719999999274","","","","<div class=""container"" style=""height:800px;width:800px;display:flex;flex-direction:column;justify-content:center;align-items:center;text-align:center;font-weight:normal;font-family:Arial;font-size:20px""><p> As you observed, a white bead was pulled from a 90% white jar, the jars switched and a black bead was pulled from the 90% black jar, but then low-probability white bead was pulled from the 90% black jar. <br><br>In these mixed-jar blocks, you will first have to figure out which jar the current bead was pulled from, then use the jar switch probability to predict the color of the next bead.<br><br>Press SPACEBAR to conitnue.</p><div>","32"
"html-keyboard-response","22","309911","0.0-2.0-17.0","7","3929.9400000000023","","","","<div class=""container"" style=""height:800px;width:800px;display:flex;flex-direction:column;justify-content:center;align-items:center;text-align:center;font-weight:normal;font-family:Arial;font-size:20px""><p> You will now be given a 3 question quiz to make sure you understand the fundamentals. </p><div>","32"
"image-keyboard-response","23","321099","0.0-2.0-18.0","7","11186.604999998992","","","","Images/TutorialQuestion1.png","39"
"image-keyboard-response","24","327226","0.0-2.0-19.0","7","4339.130000000296","","","","Images/TutorialQuestion2.png","38"
"html-keyboard-response","25","356807","0.0-3.0","7","28524.88999999879","","","","<div class=""container"" style=""height:800px;width:800px;display:flex;flex-direction:column;justify-content:center;align-items:center;text-align:center;font-weight:normal;font-family:Arial;font-size:20px""><p>Loading episode&hellip;</p><div>","32"
"image-keyboard-response","26","369949","0.0-4.0-0.0","7","13140.579999999376","","","","Images/NoChoice.png","39"
"image-keyboard-response","27","370200","0.0-4.0-1.0","7","null","","","","Images/WhiteBeadChoice.png","null"
"image-keyboard-response","28","370701","0.0-4.0-2.0","7","null","","","","Images/WhiteBeadChoiceCorrect.png","null"
"image-keyboard-response","29","376062","0.0-4.0-0.1","7","5359.3600000003935","","","","Images/NewTrialWC.png","37"
"image-keyboard-response","30","376317","0.0-4.0-1.1","7","null","","","","Images/BlackBeadChoice.png","null"
"image-keyboard-response","31","376819","0.0-4.0-2.1","7","null","","","","Images/BlackBeadChoiceWrong.png","null"
"image-keyboard-response","32","381352","0.0-4.0-0.2","7","4531.424999999232","","","","Images/NewTrialWC.png","37"
"image-keyboard-response","33","381608","0.0-4.0-1.2","7","null","","","","Images/BlackBeadChoice.png","null"
"image-keyboard-response","34","382113","0.0-4.0-2.2","7","null","","","","Images/BlackBeadChoiceCorrect.png","null"
"image-keyboard-response","35","388181","0.0-4.0-0.3","7","6066.750000001804","","","","Images/NewTrialBC.png","39"
"image-keyboard-response","36","388434","0.0-4.0-1.3","7","null","","","","Images/WhiteBeadChoice.png","null"
"image-keyboard-response","37","388939","0.0-4.0-2.3","7","null","","","","Images/WhiteBeadChoiceCorrect.png","null"
"image-keyboard-response","38","391961","0.0-4.0-0.4","7","3020.9249999989406","","","","Images/NewTrialWC.png","37"
"image-keyboard-response","39","392216","0.0-4.0-1.4","7","null","","","","Images/BlackBeadChoice.png","null"
"image-keyboard-response","40","392720","0.0-4.0-2.4","7","null","","","","Images/BlackBeadChoiceWrong.png","null"
"image-keyboard-response","41","394162","0.0-4.0-0.5","7","1440.2399999998743","","","","Images/NewTrialWC.png","37"
"image-keyboard-response","42","394414","0.0-4.0-1.5","7","null","","","","Images/BlackBeadChoice.png","null"
"image-keyboard-response","43","394915","0.0-4.0-2.5","7","null","","","","Images/BlackBeadChoiceWrong.png","null"
"image-keyboard-response","44","395913","0.0-4.0-0.6","7","996.5400000001537","","","","Images/NewTrialWC.png","37"
"image-keyboard-response","45","396168","0.0-4.0-1.6","7","null","","","","Images/BlackBeadChoice.png","null"
"image-keyboard-response","46","396669","0.0-4.0-2.6","7","null","","","","Images/BlackBeadChoiceWrong.png","null"
"image-keyboard-response","47","397576","0.0-4.0-0.7","7","905.7649999994901","","","","Images/NewTrialWC.png","37"
"image-keyboard-response","48","397829","0.0-4.0-1.7","7","null","","","","Images/BlackBeadChoice.png","null"
"image-keyboard-response","49","398334","0.0-4.0-2.7","7","null","","","","Images/BlackBeadChoiceWrong.png","null"
"image-keyboard-response","50","399073","0.0-4.0-0.8","7","737.6850000000559","","","","Images/NewTrialWC.png","39"
"image-keyboard-response","51","399324","0.0-4.0-1.8","7","null","","","","Images/WhiteBeadChoice.png","null"
"image-keyboard-response","52","399826","0.0-4.0-2.8","7","null","","","","Images/WhiteBeadChoiceCorrect.png","null"
"image-keyboard-response","53","400417","0.0-4.0-0.9","7","589.5549999986542","","","","Images/NewTrialWC.png","39"
"image-keyboard-response","54","400668","0.0-4.0-1.9","7","null","","","","Images/WhiteBeadChoice.png","null"
"image-keyboard-response","55","401170","0.0-4.0-2.9","7","null","","","","Images/WhiteBeadChoiceCorrect.png","null"
"image-keyboard-response","56","401776","0.0-4.0-0.10","7","604.4750000000931","","","","Images/NewTrialWC.png","37"
"image-keyboard-response","57","402030","0.0-4.0-1.10","7","null","","","","Images/BlackBeadChoice.png","null"
"image-keyboard-response","58","402534","0.0-4.0-2.10","7","null","","","","Images/BlackBeadChoiceCorrect.png","null"
"image-keyboard-response","59","404170","0.0-4.0-0.11","7","1635.2000000005937","","","","Images/NewTrialBC.png","37"
"image-keyboard-response","60","404423","0.0-4.0-1.11","7","null","","","","Images/BlackBeadChoice.png","null"
"image-keyboard-response","61","404925","0.0-4.0-2.11","7","null","","","","Images/BlackBeadChoiceCorrect.png","null"
"image-keyboard-response","62","405555","0.0-4.0-0.12","7","629.8050000005169","","","","Images/NewTrialBC.png","39"
"image-keyboard-response","63","405809","0.0-4.0-1.12","7","null","","","","Images/WhiteBeadChoice.png","null"
"image-keyboard-response","64","406311","0.0-4.0-2.12","7","null","","","","Images/WhiteBeadChoiceWrong.png","null"
"image-keyboard-response","65","407180","0.0-4.0-0.13","7","867.3100000014529","","","","Images/NewTrialBC.png","37"
"image-keyboard-response","66","407434","0.0-4.0-1.13","7","null","","","","Images/BlackBeadChoice.png","null"
"image-keyboard-response","67","407937","0.0-4.0-2.13","7","null","","","","Images/BlackBeadChoiceCorrect.png","null"
"image-keyboard-response","68","408495","0.0-4.0-0.14","7","556.5549999991781","","","","Images/NewTrialBC.png","37"
"image-keyboard-response","69","408748","0.0-4.0-1.14","7","null","","","","Images/BlackBeadChoice.png","null"
"image-keyboard-response","70","409249","0.0-4.0-2.14","7","null","","","","Images/BlackBeadChoiceCorrect.png","null"
"image-keyboard-response","71","409894","0.0-4.0-0.15","7","643.3150000012247","","","","Images/NewTrialBC.png","37"
"image-keyboard-response","72","410147","0.0-4.0-1.15","7","null","","","","Images/BlackBeadChoice.png","null"
"image-keyboard-response","73","410650","0.0-4.0-2.15","7","null","","","","Images/BlackBeadChoiceCorrect.png","null"
"image-keyboard-response","74","411501","0.0-4.0-0.16","7","849.6799999993527","","","","Images/NewTrialBC.png","39"
"image-keyboard-response","75","411756","0.0-4.0-1.16","7","null","","","","Images/WhiteBeadChoice.png","null"
"image-keyboard-response","76","412259","0.0-4.0-2.16","7","null","","","","Images/WhiteBeadChoiceWrong.png","null"
"image-keyboard-response","77","412904","0.0-4.0-0.17","7","643.6900000008172","","","","Images/NewTrialBC.png","37"
"image-keyboard-response","78","413160","0.0-4.0-1.17","7","null","","","","Images/BlackBeadChoice.png","null"
"image-keyboard-response","79","413666","0.0-4.0-2.17","7","null","","","","Images/BlackBeadChoiceWrong.png","null"
"image-keyboard-response","80","414097","0.0-4.0-0.18","7","430.1149999991758","","","","Images/NewTrialWC.png","39"
"image-keyboard-response","81","414349","0.0-4.0-1.18","7","null","","","","Images/WhiteBeadChoice.png","null"
"image-keyboard-response","82","414854","0.0-4.0-2.18","7","null","","","","Images/WhiteBeadChoiceCorrect.png","null"
"image-keyboard-response","83","415021","0.0-4.0-0.19","7","165.69999999774154","","","","Images/NewTrialWC.png","39"
"image-keyboard-response","84","415276","0.0-4.0-1.19","7","null","","","","Images/WhiteBeadChoice.png","null"
"image-keyboard-response","85","415779","0.0-4.0-2.19","7","null","","","","Images/WhiteBeadChoiceWrong.png","null"
"image-keyboard-response","86","415807","0.0-4.0-0.20","7","27.39500000094995","","","","Images/NewTrialBC.png","37"
"image-keyboard-response","87","416062","0.0-4.0-1.20","7","null","","","","Images/BlackBeadChoice.png","null"
"image-keyboard-response","88","416566","0.0-4.0-2.20","7","null","","","","Images/BlackBeadChoiceWrong.png","null"
"image-keyboard-response","89","417316","0.0-4.0-0.21","7","748.8850000008824","","","","Images/NewTrialWC.png","37"
"image-keyboard-response","90","417570","0.0-4.0-1.21","7","null","","","","Images/BlackBeadChoice.png","null"
"image-keyboard-response","91","418076","0.0-4.0-2.21","7","null","","","","Images/BlackBeadChoiceCorrect.png","null"
"image-keyboard-response","92","418520","0.0-4.0-0.22","7","442.70999999938067","","","","Images/NewTrialBC.png","39"
"image-keyboard-response","93","418776","0.0-4.0-1.22","7","null","","","","Images/WhiteBeadChoice.png","null"
"image-keyboard-response","94","419279","0.0-4.0-2.22","7","null","","","","Images/WhiteBeadChoiceCorrect.png","null"
"image-keyboard-response","95","420145","0.0-4.0-0.23","7","865.3549999980605","","","","Images/NewTrialWC.png","39"
"image-keyboard-response","96","420396","0.0-4.0-1.23","7","null","","","","Images/WhiteBeadChoice.png","null"
"image-keyboard-response","97","420898","0.0-4.0-2.23","7","null","","","","Images/WhiteBeadChoiceCorrect.png","null"
"image-keyboard-response","98","421129","0.0-4.0-0.24","7","230.65000000130385","","","","Images/NewTrialWC.png","39"
"image-keyboard-response","99","421384","0.0-4.0-1.24","7","null","","","","Images/WhiteBeadChoice.png","null"
"image-keyboard-response","100","421887","0.0-4.0-2.24","7","null","","","","Images/WhiteBeadChoiceCorrect.png","null"
"image-keyboard-response","101","422159","0.0-4.0-0.25","7","270.6800000014482","","","","Images/NewTrialWC.png","37"
"image-keyboard-response","102","422412","0.0-4.0-1.25","7","null","","","","Images/BlackBeadChoice.png","null"
"image-keyboard-response","103","422914","0.0-4.0-2.25","7","null","","","","Images/BlackBeadChoiceWrong.png","null"
"image-keyboard-response","104","424236","0.0-4.0-0.26","7","1321.4399999997113","","","","Images/NewTrialWC.png","39"
"image-keyboard-response","105","424487","0.0-4.0-1.26","7","null","","","","Images/WhiteBeadChoice.png","null"
"image-keyboard-response","106","424991","0.0-4.0-2.26","7","null","","","","Images/WhiteBeadChoiceWrong.png","null"
"image-keyboard-response","107","425145","0.0-4.0-0.27","7","153.46000000135973","","","","Images/NewTrialBC.png","37"
"image-keyboard-response","108","425399","0.0-4.0-1.27","7","null","","","","Images/BlackBeadChoice.png","null"
"image-keyboard-response","109","425901","0.0-4.0-2.27","7","null","","","","Images/BlackBeadChoiceCorrect.png","null"
"image-keyboard-response","110","426719","0.0-4.0-0.28","7","817.2500000001164","","","","Images/NewTrialBC.png","39"
"image-keyboard-response","111","426973","0.0-4.0-1.28","7","null","","","","Images/WhiteBeadChoice.png","null"
"image-keyboard-response","112","427479","0.0-4.0-2.28","7","null","","","","Images/WhiteBeadChoiceWrong.png","null"
"image-keyboard-response","113","428358","0.0-4.0-0.29","7","877.6900000011665","","","","Images/NewTrialBC.png","39"
"image-keyboard-response","114","428612","0.0-4.0-1.29","7","null","","","","Images/WhiteBeadChoice.png","null"
"image-keyboard-response","115","429116","0.0-4.0-2.29","7","null","","","","Images/WhiteBeadChoiceCorrect.png","null"
"image-keyboard-response","116","429657","0.0-4.0-0.30","7","540.64500000095","","","","Images/NewTrialWC.png","37"
"image-keyboard-response","117","429913","0.0-4.0-1.30","7","null","","","","Images/BlackBeadChoice.png","null"
"image-keyboard-response","118","430418","0.0-4.0-2.30","7","null","","","","Images/BlackBeadChoiceCorrect.png","null"
"image-keyboard-response","119","430487","0.0-4.0-0.31","7","68.54499999829568","","","","Images/NewTrialBC.png","39"
"image-keyboard-response","120","430740","0.0-4.0-1.31","7","null","","","","Images/WhiteBeadChoice.png","null"
"image-keyboard-response","121","431244","0.0-4.0-2.31","7","null","","","","Images/WhiteBeadChoiceWrong.png","null"
"image-keyboard-response","122","431577","0.0-4.0-0.32","7","332.1700000014971","","","","Images/NewTrialBC.png","37"
"image-keyboard-response","123","431831","0.0-4.0-1.32","7","null","","","","Images/BlackBeadChoice.png","null"
"image-keyboard-response","124","432334","0.0-4.0-2.32","7","365.77000000030966","","","","Images/BlackBeadChoiceWrong.png","39"
"image-keyboard-response","125","433147","0.0-4.0-0.33","7","812.309999997553","","","","Images/NewTrialWC.png","39"
"image-keyboard-response","126","433403","0.0-4.0-1.33","7","null","","","","Images/WhiteBeadChoice.png","null"
"image-keyboard-response","127","433906","0.0-4.0-2.33","7","null","","","","Images/WhiteBeadChoiceWrong.png","null"
"image-keyboard-response","128","433924","0.0-4.0-0.34","7","17.01500000123633","","","","Images/NewTrialBC.png","37"
"image-keyboard-response","129","434177","0.0-4.0-1.34","7","null","","","","Images/BlackBeadChoice.png","null"
"image-keyboard-response","130","434682","0.0-4.0-2.34","7","null","","","","Images/BlackBeadChoiceCorrect.png","null"
"image-keyboard-response","131","434794","0.0-4.0-0.35","7","110.3000000002794","","","","Images/NewTrialBC.png","37"
"image-keyboard-response","132","435050","0.0-4.0-1.35","7","null","","","","Images/BlackBeadChoice.png","null"
"image-keyboard-response","133","435557","0.0-4.0-2.35","7","null","","","","Images/BlackBeadChoiceCorrect.png","null"
"image-keyboard-response","134","436015","0.0-4.0-0.36","7","457.32000000134576","","","","Images/NewTrialBC.png","37"
"image-keyboard-response","135","436266","0.0-4.0-1.36","7","null","","","","Images/BlackBeadChoice.png","null"
"image-keyboard-response","136","436772","0.0-4.0-2.36","7","null","","","","Images/BlackBeadChoiceWrong.png","null"
"image-keyboard-response","137","436865","0.0-4.0-0.37","7","92.10000000160653","","","","Images/NewTrialWC.png","39"
"image-keyboard-response","138","437117","0.0-4.0-1.37","7","null","","","","Images/WhiteBeadChoice.png","null"
"image-keyboard-response","139","437623","0.0-4.0-2.37","7","null","","","","Images/WhiteBeadChoiceCorrect.png","null"
"image-keyboard-response","140","438599","0.0-4.0-0.38","7","974.7700000007171","","","","Images/NewTrialWC.png","37"
"image-keyboard-response","141","438854","0.0-4.0-1.38","7","null","","","","Images/BlackBeadChoice.png","null"
"image-keyboard-response","142","439361","0.0-4.0-2.38","7","null","","","","Images/BlackBeadChoiceWrong.png","null"
"image-keyboard-response","143","440219","0.0-4.0-0.39","7","857.7149999982794","","","","Images/NewTrialWC.png","39"
"image-keyboard-response","144","440473","0.0-4.0-1.39","7","null","","","","Images/WhiteBeadChoice.png","null"
"image-keyboard-response","145","440977","0.0-4.0-2.39","7","null","","","","Images/WhiteBeadChoiceWrong.png","null"
"image-keyboard-response","146","442720","0.0-4.0-0.40","7","1741.3999999989755","","","","Images/NewTrialBC.png","39"
"image-keyboard-response","147","442975","0.0-4.0-1.40","7","null","","","","Images/WhiteBeadChoice.png","null"
"image-keyboard-response","148","443477","0.0-4.0-2.40","7","null","","","","Images/WhiteBeadChoiceWrong.png","null"
"image-keyboard-response","149","444333","0.0-4.0-0.41","7","854.8650000011548","","","","Images/NewTrialBC.png","37"
"image-keyboard-response","150","444589","0.0-4.0-1.41","7","null","","","","Images/BlackBeadChoice.png","null"
"image-keyboard-response","151","445090","0.0-4.0-2.41","7","null","","","","Images/BlackBeadChoiceCorrect.png","null"
"image-keyboard-response","152","445234","0.0-4.0-0.42","7","142.6549999996787","","","","Images/NewTrialBC.png","37"
"image-keyboard-response","153","445489","0.0-4.0-1.42","7","null","","","","Images/BlackBeadChoice.png","null"
"image-keyboard-response","154","445991","0.0-4.0-2.42","7","null","","","","Images/BlackBeadChoiceWrong.png","null"
"image-keyboard-response","155","446150","0.0-4.0-0.43","7","157.3099999986589","","","","Images/NewTrialWC.png","39"
"image-keyboard-response","156","446401","0.0-4.0-1.43","7","null","","","","Images/WhiteBeadChoice.png","null"
"image-keyboard-response","157","446903","0.0-4.0-2.43","7","null","","","","Images/WhiteBeadChoiceCorrect.png","null"
"image-keyboard-response","158","447588","0.0-4.0-0.44","7","684.0249999986845","","","","Images/NewTrialWC.png","37"
"image-keyboard-response","159","447844","0.0-4.0-1.44","7","null","","","","Images/BlackBeadChoice.png","null"
"image-keyboard-response","160","448349","0.0-4.0-2.44","7","null","","","","Images/BlackBeadChoiceCorrect.png","null"
"image-keyboard-response","161","449203","0.0-4.0-0.45","7","852.3050000003423","","","","Images/NewTrialBC.png","39"
"image-keyboard-response","162","449457","0.0-4.0-1.45","7","null","","","","Images/WhiteBeadChoice.png","null"
"image-keyboard-response","163","449964","0.0-4.0-2.45","7","null","","","","Images/WhiteBeadChoiceCorrect.png","null"
"image-keyboard-response","164","450110","0.0-4.0-0.46","7","144.86999999638647","","","","Images/NewTrialWC.png","39"
"image-keyboard-response","165","450362","0.0-4.0-1.46","7","null","","","","Images/WhiteBeadChoice.png","null"
"image-keyboard-response","166","450867","0.0-4.0-2.46","7","null","","","","Images/WhiteBeadChoiceCorrect.png","null"
"image-keyboard-response","167","450872","0.0-4.0-0.47","7","3.8300000014714897","","","","Images/NewTrialWC.png","39"
"image-keyboard-response","168","451124","0.0-4.0-1.47","7","null","","","","Images/WhiteBeadChoice.png","null"
"image-keyboard-response","169","451630","0.0-4.0-2.47","7","null","","","","Images/WhiteBeadChoiceCorrect.png","null"
"image-keyboard-response","170","451691","0.0-4.0-0.48","7","60.129999998025596","","","","Images/NewTrialWC.png","39"
"image-keyboard-response","171","451945","0.0-4.0-1.48","7","null","","","","Images/WhiteBeadChoice.png","null"
"image-keyboard-response","172","452451","0.0-4.0-2.48","7","null","","","","Images/WhiteBeadChoiceCorrect.png","null"
"image-keyboard-response","173","453116","0.0-4.0-0.49","7","663.9200000027195","","","","Images/NewTrialWC.png","37"
"image-keyboard-response","174","453370","0.0-4.0-1.49","7","null","","","","Images/BlackBeadChoice.png","null"
"image-keyboard-response","175","453874","0.0-4.0-2.49","7","null","","","","Images/BlackBeadChoiceWrong.png","null"
"image-keyboard-response","176","454417","0.0-4.0-0.50","7","541.9150000016671","","","","Images/NewTrialWC.png","37"
"image-keyboard-response","177","454668","0.0-4.0-1.50","7","null","","","","Images/BlackBeadChoice.png","null"
"image-keyboard-response","178","455172","0.0-4.0-2.50","7","null","","","","Images/BlackBeadChoiceWrong.png","null"
"image-keyboard-response","179","455254","0.0-4.0-0.51","7","81.48999999684747","","","","Images/NewTrialWC.png","37"
"image-keyboard-response","180","455506","0.0-4.0-1.51","7","null","","","","Images/BlackBeadChoice.png","null"
"image-keyboard-response","181","456009","0.0-4.0-2.51","7","491.52500000130385","","","","Images/BlackBeadChoiceWrong.png","39"
"image-keyboard-response","182","456678","0.0-4.0-0.52","7","668.0149999992573","","","","Images/NewTrialWC.png","39"
"image-keyboard-response","183","456929","0.0-4.0-1.52","7","null","","","","Images/WhiteBeadChoice.png","null"
"image-keyboard-response","184","457434","0.0-4.0-2.52","7","408.11500000202795","","","","Images/WhiteBeadChoiceCorrect.png","37"
"image-keyboard-response","185","458072","0.0-4.0-0.53","7","636.8750000001164","","","","Images/NewTrialWC.png","37"
"image-keyboard-response","186","458327","0.0-4.0-1.53","7","null","","","","Images/BlackBeadChoice.png","null"
"image-keyboard-response","187","458828","0.0-4.0-2.53","7","null","","","","Images/BlackBeadChoiceWrong.png","null"
"image-keyboard-response","188","459185","0.0-4.0-0.54","7","355.92000000178814","","","","Images/NewTrialWC.png","39"
"image-keyboard-response","189","459439","0.0-4.0-1.54","7","null","","","","Images/WhiteBeadChoice.png","null"
"image-keyboard-response","190","459943","0.0-4.0-2.54","7","null","","","","Images/WhiteBeadChoiceCorrect.png","null"
"image-keyboard-response","191","460210","0.0-4.0-0.55","7","265.38000000070315","","","","Images/NewTrialWC.png","39"
"image-keyboard-response","192","460462","0.0-4.0-1.55","7","null","","","","Images/WhiteBeadChoice.png","null"
"image-keyboard-response","193","460965","0.0-4.0-2.55","7","null","","","","Images/WhiteBeadChoiceWrong.png","null"
"image-keyboard-response","194","461066","0.0-4.0-0.56","7","100.01499999995576","","","","Images/NewTrialBC.png","37"
"image-keyboard-response","195","461318","0.0-4.0-1.56","7","null","","","","Images/BlackBeadChoice.png","null"
"image-keyboard-response","196","461822","0.0-4.0-2.56","7","null","","","","Images/BlackBeadChoiceCorrect.png","null"
"image-keyboard-response","197","461825","0.0-4.0-0.57","7","2.590000000083819","","","","Images/NewTrialBC.png","37"
"image-keyboard-response","198","462081","0.0-4.0-1.57","7","null","","","","Images/BlackBeadChoice.png","null"
"image-keyboard-response","199","462583","0.0-4.0-2.57","7","null","","","","Images/BlackBeadChoiceWrong.png","null"
"image-keyboard-response","200","463342","0.0-4.0-0.58","7","757.6550000011921","","","","Images/NewTrialWC.png","37"
"image-keyboard-response","201","463595","0.0-4.0-1.58","7","null","","","","Images/BlackBeadChoice.png","null"
"image-keyboard-response","202","464099","0.0-4.0-2.58","7","354.9700000003213","","","","Images/BlackBeadChoiceWrong.png","39"
"image-keyboard-response","203","464632","0.0-4.0-0.59","7","532.1450000010664","","","","Images/NewTrialWC.png","39"
"image-keyboard-response","204","464887","0.0-4.0-1.59","7","null","","","","Images/WhiteBeadChoice.png","null"
"image-keyboard-response","205","465390","0.0-4.0-2.59","7","null","","","","Images/WhiteBeadChoiceCorrect.png","null"
"image-keyboard-response","206","465767","0.0-4.0-0.60","7","376.0550000006333","","","","Images/NewTrialWC.png","39"
"image-keyboard-response","207","466023","0.0-4.0-1.60","7","null","","","","Images/WhiteBeadChoice.png","null"
"image-keyboard-response","208","466524","0.0-4.0-2.60","7","null","","","","Images/WhiteBeadChoiceCorrect.png","null"
"image-keyboard-response","209","467059","0.0-4.0-0.61","7","533.5999999988126","","","","Images/NewTrialWC.png","39"
"image-keyboard-response","210","467313","0.0-4.0-1.61","7","null","","","","Images/WhiteBeadChoice.png","null"
"image-keyboard-response","211","467815","0.0-4.0-2.61","7","null","","","","Images/WhiteBeadChoiceWrong.png","null"
"image-keyboard-response","212","468434","0.0-4.0-0.62","7","617.9650000013062","","","","Images/NewTrialBC.png","37"
"image-keyboard-response","213","468689","0.0-4.0-1.62","7","null","","","","Images/BlackBeadChoice.png","null"
"image-keyboard-response","214","469191","0.0-4.0-2.62","7","null","","","","Images/BlackBeadChoiceCorrect.png","null"
"image-keyboard-response","215","469764","0.0-4.0-0.63","7","572.3900000011781","","","","Images/NewTrialBC.png","37"
"image-keyboard-response","216","470015","0.0-4.0-1.63","7","null","","","","Images/BlackBeadChoice.png","null"
"image-keyboard-response","217","470518","0.0-4.0-2.63","7","null","","","","Images/BlackBeadChoiceCorrect.png","null"
"image-keyboard-response","218","470596","0.0-4.0-0.64","7","77.11499999999069","","","","Images/NewTrialBC.png","37"
"image-keyboard-response","219","470850","0.0-4.0-1.64","7","null","","","","Images/BlackBeadChoice.png","null"
"image-keyboard-response","220","471351","0.0-4.0-2.64","7","null","","","","Images/BlackBeadChoiceWrong.png","null"
"image-keyboard-response","221","471887","0.0-4.0-0.65","7","534.4850000001024","","","","Images/NewTrialWC.png","39"
"image-keyboard-response","222","472141","0.0-4.0-1.65","7","null","","","","Images/WhiteBeadChoice.png","null"
"image-keyboard-response","223","472647","0.0-4.0-2.65","7","null","","","","Images/WhiteBeadChoiceWrong.png","null"
"image-keyboard-response","224","472771","0.0-4.0-0.66","7","123.8550000016694","","","","Images/NewTrialBC.png","37"
"image-keyboard-response","225","473024","0.0-4.0-1.66","7","null","","","","Images/BlackBeadChoice.png","null"
"image-keyboard-response","226","473527","0.0-4.0-2.66","7","null","","","","Images/BlackBeadChoiceCorrect.png","null"
"image-keyboard-response","227","473542","0.0-4.0-0.67","7","14.170000002137385","","","","Images/NewTrialBC.png","37"
"image-keyboard-response","228","473794","0.0-4.0-1.67","7","null","","","","Images/BlackBeadChoice.png","null"
"image-keyboard-response","229","474295","0.0-4.0-2.67","7","null","","","","Images/BlackBeadChoiceWrong.png","null"
"image-keyboard-response","230","474706","0.0-4.0-0.68","7","409.1000000007334","","","","Images/NewTrialWC.png","37"
"image-keyboard-response","231","474957","0.0-4.0-1.68","7","null","","","","Images/BlackBeadChoice.png","null"
"image-keyboard-response","232","475463","0.0-4.0-2.68","7","null","","","","Images/BlackBeadChoiceCorrect.png","null"
"image-keyboard-response","233","475543","0.0-4.0-0.69","7","79.77000000025146","","","","Images/NewTrialBC.png","37"
"image-keyboard-response","234","475794","0.0-4.0-1.69","7","null","","","","Images/BlackBeadChoice.png","null"
"image-keyboard-response","235","476297","0.0-4.0-2.69","7","null","","","","Images/BlackBeadChoiceWrong.png","null"
"image-keyboard-response","236","476331","0.0-4.0-0.70","7","34.00999999942724","","","","Images/NewTrialWC.png","39"
"image-keyboard-response","237","476584","0.0-4.0-1.70","7","null","","","","Images/WhiteBeadChoice.png","null"
"image-keyboard-response","238","477090","0.0-4.0-2.70","7","null","","","","Images/WhiteBeadChoiceWrong.png","null"
"image-keyboard-response","239","477229","0.0-4.0-0.71","7","138.85500000108732","","","","Images/NewTrialBC.png","37"
"image-keyboard-response","240","477484","0.0-4.0-1.71","7","null","","","","Images/BlackBeadChoice.png","null"
"image-keyboard-response","241","477985","0.0-4.0-2.71","7","null","","","","Images/BlackBeadChoiceCorrect.png","null"
"image-keyboard-response","242","477986","0.0-4.0-0.72","7","0.16000000323401764","","","","Images/NewTrialBC.png","37"
"image-keyboard-response","243","478241","0.0-4.0-1.72","7","null","","","","Images/BlackBeadChoice.png","null"
"image-keyboard-response","244","478742","0.0-4.0-2.72","7","358.65499999996973","","","","Images/BlackBeadChoiceCorrect.png","37"
"image-keyboard-response","245","479171","0.0-4.0-0.73","7","427.87500000128057","","","","Images/NewTrialBC.png","37"
"image-keyboard-response","246","479422","0.0-4.0-1.73","7","null","","","","Images/BlackBeadChoice.png","null"
"image-keyboard-response","247","479924","0.0-4.0-2.73","7","null","","","","Images/BlackBeadChoiceCorrect.png","null"
"image-keyboard-response","248","480000","0.0-4.0-0.74","7","75.74999999994179","","","","Images/NewTrialBC.png","37"
"image-keyboard-response","249","480252","0.0-4.0-1.74","7","null","","","","Images/BlackBeadChoice.png","null"
"image-keyboard-response","250","480755","0.0-4.0-2.74","7","null","","","","Images/BlackBeadChoiceWrong.png","null"
"image-keyboard-response","251","481412","0.0-4.0-0.75","7","655.1650000000955","","","","Images/NewTrialWC.png","39"
"image-keyboard-response","252","481663","0.0-4.0-1.75","7","null","","","","Images/WhiteBeadChoice.png","null"
"image-keyboard-response","253","482169","0.0-4.0-2.75","7","null","","","","Images/WhiteBeadChoiceCorrect.png","null"
"image-keyboard-response","254","482493","0.0-4.0-0.76","7","322.9350000001723","","","","Images/NewTrialWC.png","39"
"image-keyboard-response","255","482744","0.0-4.0-1.76","7","null","","","","Images/WhiteBeadChoice.png","null"
"image-keyboard-response","256","483245","0.0-4.0-2.76","7","460.4749999998603","","","","Images/WhiteBeadChoiceCorrect.png","39"
"image-keyboard-response","257","483720","0.0-4.0-0.77","7","473.4799999969546","","","","Images/NewTrialWC.png","39"
"image-keyboard-response","258","483971","0.0-4.0-1.77","7","null","","","","Images/WhiteBeadChoice.png","null"
"image-keyboard-response","259","484473","0.0-4.0-2.77","7","null","","","","Images/WhiteBeadChoiceCorrect.png","null"
"image-keyboard-response","260","485245","0.0-4.0-0.78","7","771.2199999986915","","","","Images/NewTrialWC.png","39"
"image-keyboard-response","261","485496","0.0-4.0-1.78","7","175.0499999980093","","","","Images/WhiteBeadChoice.png","37"
"image-keyboard-response","262","485997","0.0-4.0-2.78","7","492.81499999779044","","","","Images/WhiteBeadChoiceCorrect.png","37"
"image-keyboard-response","263","486408","0.0-4.0-0.79","7","410.3749999994179","","","","Images/NewTrialWC.png","37"
"image-keyboard-response","264","486661","0.0-4.0-1.79","7","null","","","","Images/BlackBeadChoice.png","null"
"image-keyboard-response","265","487163","0.0-4.0-2.79","7","null","","","","Images/BlackBeadChoiceWrong.png","null"
"image-keyboard-response","266","487612","0.0-4.0-0.80","7","447.11499999900116","","","","Images/NewTrialWC.png","39"
"image-keyboard-response","267","487863","0.0-4.0-1.80","7","null","","","","Images/WhiteBeadChoice.png","null"
"image-keyboard-response","268","488365","0.0-4.0-2.80","7","448.2700000007171","","","","Images/WhiteBeadChoiceCorrect.png","37"
"image-keyboard-response","269","488767","0.0-4.0-0.81","7","401.2349999975413","","","","Images/NewTrialWC.png","37"
"image-keyboard-response","270","489019","0.0-4.0-1.81","7","null","","","","Images/BlackBeadChoice.png","null"
"image-keyboard-response","271","489520","0.0-4.0-2.81","7","null","","","","Images/BlackBeadChoiceWrong.png","null"
"image-keyboard-response","272","489635","0.0-4.0-0.82","7","113.26500000001397","","","","Images/NewTrialWC.png","39"
"image-keyboard-response","273","489890","0.0-4.0-1.82","7","null","","","","Images/WhiteBeadChoice.png","null"
"image-keyboard-response","274","490392","0.0-4.0-2.82","7","477.1099999998114","","","","Images/WhiteBeadChoiceCorrect.png","39"
"image-keyboard-response","275","490822","0.0-4.0-0.83","7","429.42499999847496","","","","Images/NewTrialWC.png","39"
"image-keyboard-response","276","491075","0.0-4.0-1.83","7","null","","","","Images/WhiteBeadChoice.png","null"
"image-keyboard-response","277","491580","0.0-4.0-2.83","7","397.3100000002887","","","","Images/WhiteBeadChoiceCorrect.png","39"
"image-keyboard-response","278","491917","0.0-4.0-0.84","7","336.55999999976484","","","","Images/NewTrialWC.png","39"
"image-keyboard-response","279","492168","0.0-4.0-1.84","7","null","","","","Images/WhiteBeadChoice.png","null"
"image-keyboard-response","280","492673","0.0-4.0-2.84","7","null","","","","Images/WhiteBeadChoiceCorrect.png","null"
"image-keyboard-response","281","493043","0.0-4.0-0.85","7","368.8350000011269","","","","Images/NewTrialWC.png","39"
"image-keyboard-response","282","493294","0.0-4.0-1.85","7","null","","","","Images/WhiteBeadChoice.png","null"
"image-keyboard-response","283","493796","0.0-4.0-2.85","7","null","","","","Images/WhiteBeadChoiceCorrect.png","null"
"image-keyboard-response","284","494134","0.0-4.0-0.86","7","336.3100000024424","","","","Images/NewTrialWC.png","39"
"image-keyboard-response","285","494385","0.0-4.0-1.86","7","null","","","","Images/WhiteBeadChoice.png","null"
"image-keyboard-response","286","494889","0.0-4.0-2.86","7","null","","","","Images/WhiteBeadChoiceCorrect.png","null"
"image-keyboard-response","287","495347","0.0-4.0-0.87","7","456.8199999994249","","","","Images/NewTrialWC.png","39"
"image-keyboard-response","288","495598","0.0-4.0-1.87","7","null","","","","Images/WhiteBeadChoice.png","null"
"image-keyboard-response","289","496102","0.0-4.0-2.87","7","null","","","","Images/WhiteBeadChoiceWrong.png","null"
"image-keyboard-response","290","497511","0.0-4.0-0.88","7","1407.6200000017998","","","","Images/NewTrialBC.png","39"
"image-keyboard-response","291","497765","0.0-4.0-1.88","7","null","","","","Images/WhiteBeadChoice.png","null"
"image-keyboard-response","292","498266","0.0-4.0-2.88","7","null","","","","Images/WhiteBeadChoiceWrong.png","null"
"image-keyboard-response","293","498645","0.0-4.0-0.89","7","377.73999999987427","","","","Images/NewTrialBC.png","39"
"image-keyboard-response","294","498897","0.0-4.0-1.89","7","null","","","","Images/WhiteBeadChoice.png","null"
"image-keyboard-response","295","499400","0.0-4.0-2.89","7","476.9250000027241","","","","Images/WhiteBeadChoiceWrong.png","37"
"image-keyboard-response","296","499762","0.0-4.0-0.90","7","361.8650000025518","","","","Images/NewTrialBC.png","37"
"image-keyboard-response","297","500017","0.0-4.0-1.90","7","null","","","","Images/BlackBeadChoice.png","null"
"image-keyboard-response","298","500518","0.0-4.0-2.90","7","462.42500000155997","","","","Images/BlackBeadChoiceCorrect.png","37"
"image-keyboard-response","299","500940","0.0-4.0-0.91","7","421.1300000024494","","","","Images/NewTrialBC.png","37"
"image-keyboard-response","300","501192","0.0-4.0-1.91","7","null","","","","Images/BlackBeadChoice.png","null"
"image-keyboard-response","301","501698","0.0-4.0-2.91","7","null","","","","Images/BlackBeadChoiceCorrect.png","null"
"image-keyboard-response","302","502007","0.0-4.0-0.92","7","307.620000003255","","","","Images/NewTrialBC.png","39"
"image-keyboard-response","303","502260","0.0-4.0-1.92","7","null","","","","Images/WhiteBeadChoice.png","null"
"image-keyboard-response","304","502763","0.0-4.0-2.92","7","null","","","","Images/WhiteBeadChoiceCorrect.png","null"
"image-keyboard-response","305","502964","0.0-4.0-0.93","7","199.23500000004424","","","","Images/NewTrialWC.png","39"
"image-keyboard-response","306","503215","0.0-4.0-1.93","7","null","","","","Images/WhiteBeadChoice.png","null"
"image-keyboard-response","307","503717","0.0-4.0-2.93","7","null","","","","Images/WhiteBeadChoiceWrong.png","null"
"image-keyboard-response","308","504596","0.0-4.0-0.94","7","878.1400000007125","","","","Images/NewTrialBC.png","39"
"image-keyboard-response","309","504848","0.0-4.0-1.94","7","null","","","","Images/WhiteBeadChoice.png","null"
"image-keyboard-response","310","505351","0.0-4.0-2.94","7","null","","","","Images/WhiteBeadChoiceCorrect.png","null"
"image-keyboard-response","311","505712","0.0-4.0-0.95","7","359.92500000062864","","","","Images/NewTrialWC.png","37"
"image-keyboard-response","312","505963","0.0-4.0-1.95","7","null","","","","Images/BlackBeadChoice.png","null"
"image-keyboard-response","313","506465","0.0-4.0-2.95","7","null","","","","Images/BlackBeadChoiceWrong.png","null"
"image-keyboard-response","314","506701","0.0-4.0-0.96","7","234.93500000040513","","","","Images/NewTrialWC.png","39"
"image-keyboard-response","315","506953","0.0-4.0-1.96","7","null","","","","Images/WhiteBeadChoice.png","null"
"image-keyboard-response","316","507458","0.0-4.0-2.96","7","null","","","","Images/WhiteBeadChoiceCorrect.png","null"
"image-keyboard-response","317","507643","0.0-4.0-0.97","7","183.90000000002328","","","","Images/NewTrialWC.png","39"
"image-keyboard-response","318","507897","0.0-4.0-1.97","7","null","","","","Images/WhiteBeadChoice.png","null"
"image-keyboard-response","319","508402","0.0-4.0-2.97","7","null","","","","Images/WhiteBeadChoiceCorrect.png","null"
"image-keyboard-response","320","508518","0.0-4.0-0.98","7","115.12000000220723","","","","Images/NewTrialWC.png","39"
"image-keyboard-response","321","508768","0.0-4.0-1.98","7","null","","","","Images/WhiteBeadChoice.png","null"
"image-keyboard-response","322","509270","0.0-4.0-2.98","7","null","","","","Images/WhiteBeadChoiceCorrect.png","null"
"image-keyboard-response","323","509556","0.0-4.0-0.99","7","285.8699999996461","","","","Images/NewTrialWC.png","37"
"image-keyboard-response","324","509807","0.0-4.0-1.99","7","null","","","","Images/BlackBeadChoice.png","null"
"image-keyboard-response","325","510311","0.0-4.0-2.99","7","null","","","","Images/BlackBeadChoiceWrong.png","null"
"image-keyboard-response","326","510694","0.0-4.0-0.100","7","382.54500000039116","","","","Images/NewTrialWC.png","37"
"image-keyboard-response","327","510948","0.0-4.0-1.100","7","null","","","","Images/BlackBeadChoice.png","null"
"image-keyboard-response","328","511450","0.0-4.0-2.100","7","null","","","","Images/BlackBeadChoiceWrong.png","null"
"image-keyboard-response","329","511610","0.0-4.0-0.101","7","159.35000000172295","","","","Images/NewTrialWC.png","39"
"image-keyboard-response","330","511862","0.0-4.0-1.101","7","null","","","","Images/WhiteBeadChoice.png","null"
"image-keyboard-response","331","512364","0.0-4.0-2.101","7","427.9099999985192","","","","Images/WhiteBeadChoiceWrong.png","37"
"image-keyboard-response","332","512980","0.0-4.0-0.102","7","615.7500000008731","","","","Images/NewTrialBC.png","37"
"image-keyboard-response","333","513231","0.0-4.0-1.102","7","null","","","","Images/BlackBeadChoice.png","null"
"image-keyboard-response","334","513735","0.0-4.0-2.102","7","421.4700000011362","","","","Images/BlackBeadChoiceCorrect.png","39"
"image-keyboard-response","335","514040","0.0-4.0-0.103","7","303.93000000179745","","","","Images/NewTrialBC.png","39"
"image-keyboard-response","336","514295","0.0-4.0-1.103","7","null","","","","Images/WhiteBeadChoice.png","null"
"image-keyboard-response","337","514801","0.0-4.0-2.103","7","null","","","","Images/WhiteBeadChoiceWrong.png","null"
"image-keyboard-response","338","514852","0.0-4.0-0.104","7","49.53000000026077","","","","Images/NewTrialBC.png","37"
"image-keyboard-response","339","515108","0.0-4.0-1.104","7","null","","","","Images/BlackBeadChoice.png","null"
"image-keyboard-response","340","515612","0.0-4.0-2.104","7","293.1449999996112","","","","Images/BlackBeadChoiceCorrect.png","37"
"image-keyboard-response","341","515797","0.0-4.0-0.105","7","183.13999999739463","","","","Images/NewTrialBC.png","37"
"image-keyboard-response","342","516048","0.0-4.0-1.105","7","null","","","","Images/BlackBeadChoice.png","null"
"image-keyboard-response","343","516550","0.0-4.0-2.105","7","363.79999999911524","","","","Images/BlackBeadChoiceCorrect.png","37"
"image-keyboard-response","344","516813","0.0-4.0-0.106","7","262.7200000024168","","","","Images/NewTrialBC.png","37"
"image-keyboard-response","345","517065","0.0-4.0-1.106","7","null","","","","Images/BlackBeadChoice.png","null"
"image-keyboard-response","346","517568","0.0-4.0-2.106","7","502.4200000007404","","","","Images/BlackBeadChoiceCorrect.png","37"
"image-keyboard-response","347","517955","0.0-4.0-0.107","7","385.76999999710824","","","","Images/NewTrialBC.png","37"
"image-keyboard-response","348","518211","0.0-4.0-1.107","7","null","","","","Images/BlackBeadChoice.png","null"
"image-keyboard-response","349","518717","0.0-4.0-2.107","7","327.4600000004284","","","","Images/BlackBeadChoiceWrong.png","37"
"image-keyboard-response","350","518740","0.0-4.0-0.108","7","22.79500000079861","","","","Images/NewTrialWC.png","39"
"image-keyboard-response","351","518996","0.0-4.0-1.108","7","null","","","","Images/WhiteBeadChoice.png","null"
"image-keyboard-response","352","519500","0.0-4.0-2.108","7","353.06499999930384","","","","Images/WhiteBeadChoiceCorrect.png","37"
"image-keyboard-response","353","519997","0.0-4.0-0.109","7","494.9500000002445","","","","Images/NewTrialWC.png","37"
"image-keyboard-response","354","520248","0.0-4.0-1.109","7","null","","","","Images/BlackBeadChoice.png","null"
"image-keyboard-response","355","520754","0.0-4.0-2.109","7","null","","","","Images/BlackBeadChoiceWrong.png","null"
"image-keyboard-response","356","520991","0.0-4.0-0.110","7","235.67499999993015","","","","Images/NewTrialWC.png","37"
"image-keyboard-response","357","521244","0.0-4.0-1.110","7","null","","","","Images/BlackBeadChoice.png","null"
"image-keyboard-response","358","521750","0.0-4.0-2.110","7","null","","","","Images/BlackBeadChoiceCorrect.png","null"
"image-keyboard-response","359","522528","0.0-4.0-0.111","7","776.9050000024727","","","","Images/NewTrialBC.png","37"
"image-keyboard-response","360","522781","0.0-4.0-1.111","7","null","","","","Images/BlackBeadChoice.png","null"
"image-keyboard-response","361","523284","0.0-4.0-2.111","7","411.59999999939464","","","","Images/BlackBeadChoiceCorrect.png","37"
"image-keyboard-response","362","523655","0.0-4.0-0.112","7","369.585000000312","","","","Images/NewTrialBC.png","37"
"image-keyboard-response","363","523910","0.0-4.0-1.112","7","null","","","","Images/BlackBeadChoice.png","null"
"image-keyboard-response","364","524416","0.0-4.0-2.112","7","475.3450000025332","","","","Images/BlackBeadChoiceCorrect.png","39"
"image-keyboard-response","365","524661","0.0-4.0-0.113","7","243.85499999695458","","","","Images/NewTrialBC.png","39"
"image-keyboard-response","366","524913","0.0-4.0-1.113","7","206.23499999789055","","","","Images/WhiteBeadChoice.png","39"
"image-keyboard-response","367","525415","0.0-4.0-2.113","7","458.7150000006659","","","","Images/WhiteBeadChoiceCorrect.png","39"
"image-keyboard-response","368","525557","0.0-4.0-0.114","7","140.8399999999674","","","","Images/NewTrialWC.png","39"
"image-keyboard-response","369","525808","0.0-4.0-1.114","7","174.6450000028126","","","","Images/WhiteBeadChoice.png","39"
"image-keyboard-response","370","526311","0.0-4.0-2.114","7","327.7849999977043","","","","Images/WhiteBeadChoiceWrong.png","39"
"image-keyboard-response","371","526397","0.0-4.0-0.115","7","84.2350000020815","","","","Images/NewTrialBC.png","37"
"image-keyboard-response","372","526648","0.0-4.0-1.115","7","null","","","","Images/BlackBeadChoice.png","null"
"image-keyboard-response","373","527154","0.0-4.0-2.115","7","null","","","","Images/BlackBeadChoiceCorrect.png","null"
"image-keyboard-response","374","527177","0.0-4.0-0.116","7","22.104999999981374","","","","Images/NewTrialBC.png","37"
"image-keyboard-response","375","527431","0.0-4.0-1.116","7","null","","","","Images/BlackBeadChoice.png","null"
"image-keyboard-response","376","527934","0.0-4.0-2.116","7","null","","","","Images/BlackBeadChoiceCorrect.png","null"
"image-keyboard-response","377","528376","0.0-4.0-0.117","7","440.1350000007078","","","","Images/NewTrialBC.png","37"
"image-keyboard-response","378","528631","0.0-4.0-1.117","7","null","","","","Images/BlackBeadChoice.png","null"
"image-keyboard-response","379","529137","0.0-4.0-2.117","7","456.47500000265427","","","","Images/BlackBeadChoiceCorrect.png","39"
"image-keyboard-response","380","529462","0.0-4.0-0.118","7","324.0350000014296","","","","Images/NewTrialBC.png","39"
"image-keyboard-response","381","529714","0.0-4.0-1.118","7","null","","","","Images/WhiteBeadChoice.png","null"
"image-keyboard-response","382","530220","0.0-4.0-2.118","7","null","","","","Images/WhiteBeadChoiceWrong.png","null"
"image-keyboard-response","383","530279","0.0-4.0-0.119","7","58.19999999948777","","","","Images/NewTrialBC.png","37"
"image-keyboard-response","384","530534","0.0-4.0-1.119","7","null","","","","Images/BlackBeadChoice.png","null"
"image-keyboard-response","385","531041","0.0-4.0-2.119","7","360.7400000001071","","","","Images/BlackBeadChoiceCorrect.png","39"
"image-keyboard-response","386","531410","0.0-4.0-0.120","7","368.3449999989243","","","","Images/NewTrialBC.png","39"
"image-keyboard-response","387","531661","0.0-4.0-1.120","7","null","","","","Images/WhiteBeadChoice.png","null"
"image-keyboard-response","388","532162","0.0-4.0-2.120","7","null","","","","Images/WhiteBeadChoiceWrong.png","null"
"image-keyboard-response","389","532281","0.0-4.0-0.121","7","117.825000001234","","","","Images/NewTrialBC.png","37"
"image-keyboard-response","390","532535","0.0-4.0-1.121","7","null","","","","Images/BlackBeadChoice.png","null"
"image-keyboard-response","391","533041","0.0-4.0-2.121","7","462.20000000169966","","","","Images/BlackBeadChoiceWrong.png","39"
"image-keyboard-response","392","533527","0.0-4.0-0.122","7","484.8000000019092","","","","Images/NewTrialWC.png","39"
"image-keyboard-response","393","533779","0.0-4.0-1.122","7","null","","","","Images/WhiteBeadChoice.png","null"
"image-keyboard-response","394","534284","0.0-4.0-2.122","7","362.3249999982072","","","","Images/WhiteBeadChoiceCorrect.png","39"
"image-keyboard-response","395","534816","0.0-4.0-0.123","7","530.3750000020955","","","","Images/NewTrialWC.png","39"
"image-keyboard-response","396","535071","0.0-4.0-1.123","7","null","","","","Images/WhiteBeadChoice.png","null"
"image-keyboard-response","397","535573","0.0-4.0-2.123","7","null","","","","Images/WhiteBeadChoiceWrong.png","null"
"image-keyboard-response","398","536300","0.0-4.0-0.124","7","725.9200000007404","","","","Images/NewTrialBC.png","37"
"image-keyboard-response","399","536551","0.0-4.0-1.124","7","null","","","","Images/BlackBeadChoice.png","null"
"image-keyboard-response","400","537055","0.0-4.0-2.124","7","null","","","","Images/BlackBeadChoiceWrong.png","null"
"image-keyboard-response","401","537085","0.0-4.0-0.125","7","29.10999999952037","","","","Images/NewTrialWC.png","39"
"image-keyboard-response","402","537337","0.0-4.0-1.125","7","null","","","","Images/WhiteBeadChoice.png","null"
"image-keyboard-response","403","537842","0.0-4.0-2.125","7","null","","","","Images/WhiteBeadChoiceCorrect.png","null"
"image-keyboard-response","404","537881","0.0-4.0-0.126","7","38.14499999862164","","","","Images/NewTrialWC.png","39"
"image-keyboard-response","405","538134","0.0-4.0-1.126","7","null","","","","Images/WhiteBeadChoice.png","null"
"image-keyboard-response","406","538639","0.0-4.0-2.126","7","307.0450000014389","","","","Images/WhiteBeadChoiceCorrect.png","39"
"image-keyboard-response","407","538878","0.0-4.0-0.127","7","237.64500000106636","","","","Images/NewTrialWC.png","39"
"image-keyboard-response","408","539132","0.0-4.0-1.127","7","null","","","","Images/WhiteBeadChoice.png","null"
"image-keyboard-response","409","539634","0.0-4.0-2.127","7","358.8000000017928","","","","Images/WhiteBeadChoiceCorrect.png","39"
"image-keyboard-response","410","539906","0.0-4.0-0.128","7","270.8800000001211","","","","Images/NewTrialWC.png","39"
"image-keyboard-response","411","540162","0.0-4.0-1.128","7","null","","","","Images/WhiteBeadChoice.png","null"
"image-keyboard-response","412","540665","0.0-4.0-2.128","7","445.7049999983283","","","","Images/WhiteBeadChoiceCorrect.png","39"
"image-keyboard-response","413","541091","0.0-4.0-0.129","7","425.15499999711756","","","","Images/NewTrialWC.png","39"
"image-keyboard-response","414","541346","0.0-4.0-1.129","7","null","","","","Images/WhiteBeadChoice.png","null"
"image-keyboard-response","415","541848","0.0-4.0-2.129","7","428.1750000008615","","","","Images/WhiteBeadChoiceCorrect.png","39"
"image-keyboard-response","416","542352","0.0-4.0-0.130","7","502.8549999988172","","","","Images/NewTrialWC.png","39"
"image-keyboard-response","417","542606","0.0-4.0-1.130","7","null","","","","Images/WhiteBeadChoice.png","null"
"image-keyboard-response","418","543112","0.0-4.0-2.130","7","null","","","","Images/WhiteBeadChoiceCorrect.png","null"
"image-keyboard-response","419","543318","0.0-4.0-0.131","7","204.64500000164844","","","","Images/NewTrialWC.png","39"
"image-keyboard-response","420","543573","0.0-4.0-1.131","7","null","","","","Images/WhiteBeadChoice.png","null"
"image-keyboard-response","421","544077","0.0-4.0-2.131","7","null","","","","Images/WhiteBeadChoiceCorrect.png","null"
"image-keyboard-response","422","544224","0.0-4.0-0.132","7","146.0750000005355","","","","Images/NewTrialWC.png","39"
"image-keyboard-response","423","544478","0.0-4.0-1.132","7","null","","","","Images/WhiteBeadChoice.png","null"
"image-keyboard-response","424","544981","0.0-4.0-2.132","7","null","","","","Images/WhiteBeadChoiceCorrect.png","null"
"image-keyboard-response","425","545386","0.0-4.0-0.133","7","404.16000000189524","","","","Images/NewTrialWC.png","37"
"image-keyboard-response","426","545639","0.0-4.0-1.133","7","null","","","","Images/BlackBeadChoice.png","null"
"image-keyboard-response","427","546141","0.0-4.0-2.133","7","null","","","","Images/BlackBeadChoiceWrong.png","null"
"image-keyboard-response","428","546407","0.0-4.0-0.134","7","264.8699999989476","","","","Images/NewTrialWC.png","37"
"image-keyboard-response","429","546662","0.0-4.0-1.134","7","null","","","","Images/BlackBeadChoice.png","null"
"image-keyboard-response","430","547167","0.0-4.0-2.134","7","458.03499999968335","","","","Images/BlackBeadChoiceWrong.png","39"
"image-keyboard-response","431","547591","0.0-4.0-0.135","7","423.3749999984866","","","","Images/NewTrialWC.png","39"
"image-keyboard-response","432","547844","0.0-4.0-1.135","7","null","","","","Images/WhiteBeadChoice.png","null"
"image-keyboard-response","433","548349","0.0-4.0-2.135","7","null","","","","Images/WhiteBeadChoiceWrong.png","null"
"image-keyboard-response","434","548655","0.0-4.0-0.136","7","305.1350000023376","","","","Images/NewTrialBC.png","37"
"image-keyboard-response","435","548908","0.0-4.0-1.136","7","null","","","","Images/BlackBeadChoice.png","null"
"image-keyboard-response","436","549410","0.0-4.0-2.136","7","null","","","","Images/BlackBeadChoiceWrong.png","null"
"image-keyboard-response","437","549475","0.0-4.0-0.137","7","63.839999998919666","","","","Images/NewTrialWC.png","39"
"image-keyboard-response","438","549730","0.0-4.0-1.137","7","null","","","","Images/WhiteBeadChoice.png","null"
"image-keyboard-response","439","550234","0.0-4.0-2.137","7","450.9749999997439","","","","Images/WhiteBeadChoiceWrong.png","39"
"image-keyboard-response","440","550666","0.0-4.0-0.138","7","430.7750000007218","","","","Images/NewTrialBC.png","39"
"image-keyboard-response","441","550921","0.0-4.0-1.138","7","null","","","","Images/WhiteBeadChoice.png","null"
"image-keyboard-response","442","551423","0.0-4.0-2.138","7","null","","","","Images/WhiteBeadChoiceCorrect.png","null"
"image-keyboard-response","443","551538","0.0-4.0-0.139","7","114.28499999956694","","","","Images/NewTrialWC.png","37"
"image-keyboard-response","444","551791","0.0-4.0-1.139","7","null","","","","Images/BlackBeadChoice.png","null"
"image-keyboard-response","445","552294","0.0-4.0-2.139","7","483.60500000126194","","","","Images/BlackBeadChoiceWrong.png","37"
"image-keyboard-response","446","552751","0.0-4.0-0.140","7","455.34000000043306","","","","Images/NewTrialWC.png","37"
"image-keyboard-response","447","553007","0.0-4.0-1.140","7","null","","","","Images/BlackBeadChoice.png","null"
"image-keyboard-response","448","553509","0.0-4.0-2.140","7","null","","","","Images/BlackBeadChoiceWrong.png","null"
"image-keyboard-response","449","553927","0.0-4.0-0.141","7","417.13499999966007","","","","Images/NewTrialWC.png","39"
"image-keyboard-response","450","554183","0.0-4.0-1.141","7","null","","","","Images/WhiteBeadChoice.png","null"
"image-keyboard-response","451","554684","0.0-4.0-2.141","7","null","","","","Images/WhiteBeadChoiceCorrect.png","null"
"image-keyboard-response","452","555049","0.0-4.0-0.142","7","363.6750000005122","","","","Images/NewTrialWC.png","39"
"image-keyboard-response","453","555305","0.0-4.0-1.142","7","null","","","","Images/WhiteBeadChoice.png","null"
"image-keyboard-response","454","555810","0.0-4.0-2.142","7","null","","","","Images/WhiteBeadChoiceCorrect.png","null"
"image-keyboard-response","455","556264","0.0-4.0-0.143","7","452.31000000063796","","","","Images/NewTrialWC.png","39"
"image-keyboard-response","456","556517","0.0-4.0-1.143","7","null","","","","Images/WhiteBeadChoice.png","null"
"image-keyboard-response","457","557020","0.0-4.0-2.143","7","null","","","","Images/WhiteBeadChoiceWrong.png","null"
"image-keyboard-response","458","557427","0.0-4.0-0.144","7","405.3600000006845","","","","Images/NewTrialBC.png","37"
"image-keyboard-response","459","557681","0.0-4.0-1.144","7","null","","","","Images/BlackBeadChoice.png","null"
"image-keyboard-response","460","558184","0.0-4.0-2.144","7","null","","","","Images/BlackBeadChoiceCorrect.png","null"
"image-keyboard-response","461","558235","0.0-4.0-0.145","7","49.65499999886379","","","","Images/NewTrialBC.png","37"
"image-keyboard-response","462","558490","0.0-4.0-1.145","7","null","","","","Images/BlackBeadChoice.png","null"
"image-keyboard-response","463","558996","0.0-4.0-2.145","7","476.6799999998184","","","","Images/BlackBeadChoiceCorrect.png","37"
"image-keyboard-response","464","559453","0.0-4.0-0.146","7","455.56000000215136","","","","Images/NewTrialBC.png","37"
"image-keyboard-response","465","559709","0.0-4.0-1.146","7","null","","","","Images/BlackBeadChoice.png","null"
"image-keyboard-response","466","560215","0.0-4.0-2.146","7","363.2099999994971","","","","Images/BlackBeadChoiceCorrect.png","37"
"image-keyboard-response","467","560486","0.0-4.0-0.147","7","270.49500000069384","","","","Images/NewTrialBC.png","37"
"image-keyboard-response","468","560741","0.0-4.0-1.147","7","null","","","","Images/BlackBeadChoice.png","null"
"image-keyboard-response","469","561245","0.0-4.0-2.147","7","null","","","","Images/BlackBeadChoiceWrong.png","null"
"image-keyboard-response","470","562027","0.0-4.0-0.148","7","781.2150000027614","","","","Images/NewTrialWC.png","37"
"image-keyboard-response","471","562281","0.0-4.0-1.148","7","null","","","","Images/BlackBeadChoice.png","null"
"image-keyboard-response","472","562786","0.0-4.0-2.148","7","null","","","","Images/BlackBeadChoiceWrong.png","null"
"image-keyboard-response","473","562920","0.0-4.0-0.149","7","132.9650000006659","","","","Images/NewTrialWC.png","39"
"image-keyboard-response","474","563175","0.0-4.0-1.149","7","null","","","","Images/WhiteBeadChoice.png","null"
"image-keyboard-response","475","563676","0.0-4.0-2.149","7","364.86499999964144","","","","Images/WhiteBeadChoiceCorrect.png","39"
"image-keyboard-response","476","563966","0.0-4.0-0.150","7","288.40000000130385","","","","Images/NewTrialWC.png","39"
"image-keyboard-response","477","564220","0.0-4.0-1.150","7","null","","","","Images/WhiteBeadChoice.png","null"
"image-keyboard-response","478","564722","0.0-4.0-2.150","7","null","","","","Images/WhiteBeadChoiceCorrect.png","null"
"image-keyboard-response","479","565849","0.0-4.0-0.151","7","1125.4799999988172","","","","Images/NewTrialWC.png","39"
"image-keyboard-response","480","566101","0.0-4.0-1.151","7","null","","","","Images/WhiteBeadChoice.png","null"
"image-keyboard-response","481","566604","0.0-4.0-2.151","7","381.18500000203494","","","","Images/WhiteBeadChoiceCorrect.png","39"
"image-keyboard-response","482","566985","0.0-4.0-0.152","7","380.1200000017416","","","","Images/NewTrialWC.png","39"
"image-keyboard-response","483","567239","0.0-4.0-1.152","7","null","","","","Images/WhiteBeadChoice.png","null"
"image-keyboard-response","484","567742","0.0-4.0-2.152","7","485.7850000007311","","","","Images/WhiteBeadChoiceCorrect.png","39"
"image-keyboard-response","485","568203","0.0-4.0-0.153","7","459.35499999905005","","","","Images/NewTrialWC.png","39"
"image-keyboard-response","486","568456","0.0-4.0-1.153","7","null","","","","Images/WhiteBeadChoice.png","null"
"image-keyboard-response","487","568960","0.0-4.0-2.153","7","353.3949999982724","","","","Images/WhiteBeadChoiceCorrect.png","39"
"image-keyboard-response","488","569176","0.0-4.0-0.154","7","214.8449999986915","","","","Images/NewTrialWC.png","39"
"image-keyboard-response","489","569429","0.0-4.0-1.154","7","null","","","","Images/WhiteBeadChoice.png","null"
"image-keyboard-response","490","569931","0.0-4.0-2.154","7","313.61999999708496","","","","Images/WhiteBeadChoiceCorrect.png","39"
"image-keyboard-response","491","570090","0.0-4.0-0.155","7","157.01000000268687","","","","Images/NewTrialWC.png","39"
"image-keyboard-response","492","570342","0.0-4.0-1.155","7","null","","","","Images/WhiteBeadChoice.png","null"
"image-keyboard-response","493","570848","0.0-4.0-2.155","7","null","","","","Images/WhiteBeadChoiceCorrect.png","null"
"image-keyboard-response","494","571208","0.0-4.0-0.156","7","358.95000000169966","","","","Images/NewTrialWC.png","39"
"image-keyboard-response","495","571464","0.0-4.0-1.156","7","null","","","","Images/WhiteBeadChoice.png","null"
"image-keyboard-response","496","571970","0.0-4.0-2.156","7","null","","","","Images/WhiteBeadChoiceCorrect.png","null"
"image-keyboard-response","497","571996","0.0-4.0-0.157","7","25.779999999911524","","","","Images/NewTrialWC.png","39"
"image-keyboard-response","498","572252","0.0-4.0-1.157","7","null","","","","Images/WhiteBeadChoice.png","null"
"image-keyboard-response","499","572754","0.0-4.0-2.157","7","367.58000000193715","","","","Images/WhiteBeadChoiceCorrect.png","39"
"image-keyboard-response","500","573027","0.0-4.0-0.158","7","271.4249999989988","","","","Images/NewTrialWC.png","39"
"image-keyboard-response","501","573280","0.0-4.0-1.158","7","null","","","","Images/WhiteBeadChoice.png","null"
"image-keyboard-response","502","573784","0.0-4.0-2.158","7","null","","","","Images/WhiteBeadChoiceWrong.png","null"
"image-keyboard-response","503","574526","0.0-4.0-0.159","7","740.6300000001211","","","","Images/NewTrialBC.png","37"
"image-keyboard-response","504","574777","0.0-4.0-1.159","7","null","","","","Images/BlackBeadChoice.png","null"
"image-keyboard-response","505","575280","0.0-4.0-2.159","7","null","","","","Images/BlackBeadChoiceWrong.png","null"
"image-keyboard-response","506","575840","0.0-4.0-0.160","7","559.3799999988405","","","","Images/NewTrialWC.png","37"
"image-keyboard-response","507","576092","0.0-4.0-1.160","7","null","","","","Images/BlackBeadChoice.png","null"
"image-keyboard-response","508","576597","0.0-4.0-2.160","7","null","","","","Images/BlackBeadChoiceCorrect.png","null"
"image-keyboard-response","509","576823","0.0-4.0-0.161","7","225.16999999794643","","","","Images/NewTrialBC.png","37"
"image-keyboard-response","510","577077","0.0-4.0-1.161","7","null","","","","Images/BlackBeadChoice.png","null"
"image-keyboard-response","511","577581","0.0-4.0-2.161","7","null","","","","Images/BlackBeadChoiceWrong.png","null"
"image-keyboard-response","512","577871","0.0-4.0-0.162","7","288.75499999779277","","","","Images/NewTrialWC.png","37"
"image-keyboard-response","513","578122","0.0-4.0-1.162","7","null","","","","Images/BlackBeadChoice.png","null"
"image-keyboard-response","514","578626","0.0-4.0-2.162","7","475.829999999376","","","","Images/BlackBeadChoiceCorrect.png","37"
"image-keyboard-response","515","579653","0.0-4.0-0.163","7","1026.4050000004936","","","","Images/NewTrialBC.png","37"
"image-keyboard-response","516","579908","0.0-4.0-1.163","7","null","","","","Images/BlackBeadChoice.png","null"
"image-keyboard-response","517","580410","0.0-4.0-2.163","7","477.0749999989057","","","","Images/BlackBeadChoiceCorrect.png","37"
"image-keyboard-response","518","580814","0.0-4.0-0.164","7","402.97500000090804","","","","Images/NewTrialBC.png","37"
"image-keyboard-response","519","581067","0.0-4.0-1.164","7","null","","","","Images/BlackBeadChoice.png","null"
"image-keyboard-response","520","581569","0.0-4.0-2.164","7","366.26500000047963","","","","Images/BlackBeadChoiceCorrect.png","37"
"image-keyboard-response","521","581788","0.0-4.0-0.165","7","217.2050000008894","","","","Images/NewTrialBC.png","37"
"image-keyboard-response","522","582042","0.0-4.0-1.165","7","null","","","","Images/BlackBeadChoice.png","null"
"image-keyboard-response","523","582548","0.0-4.0-2.165","7","386.4900000008056","","","","Images/BlackBeadChoiceCorrect.png","37"
"image-keyboard-response","524","582779","0.0-4.0-0.166","7","229.86999999929685","","","","Images/NewTrialBC.png","37"
"image-keyboard-response","525","583031","0.0-4.0-1.166","7","null","","","","Images/BlackBeadChoice.png","null"
"image-keyboard-response","526","583535","0.0-4.0-2.166","7","null","","","","Images/BlackBeadChoiceCorrect.png","null"
"image-keyboard-response","527","583581","0.0-4.0-0.167","7","45.33000000088941","","","","Images/NewTrialBC.png","37"
"image-keyboard-response","528","583834","0.0-4.0-1.167","7","null","","","","Images/BlackBeadChoice.png","null"
"image-keyboard-response","529","584340","0.0-4.0-2.167","7","394.83000000112224","","","","Images/BlackBeadChoiceCorrect.png","39"
"image-keyboard-response","530","584765","0.0-4.0-0.168","7","423.4550000000745","","","","Images/NewTrialBC.png","39"
"image-keyboard-response","531","585018","0.0-4.0-1.168","7","null","","","","Images/WhiteBeadChoice.png","null"
"image-keyboard-response","532","585520","0.0-4.0-2.168","7","337.4900000017369","","","","Images/WhiteBeadChoiceCorrect.png","39"
"image-keyboard-response","533","585630","0.0-4.0-0.169","7","109.39499999955297","","","","Images/NewTrialWC.png","39"
"image-keyboard-response","534","585885","0.0-4.0-1.169","7","203.80500000098255","","","","Images/WhiteBeadChoice.png","39"
"image-keyboard-response","535","586389","0.0-4.0-2.169","7","null","","","","Images/WhiteBeadChoiceWrong.png","null"
"image-keyboard-response","536","587717","0.0-4.0-0.170","7","1327.5199999988545","","","","Images/NewTrialBC.png","37"
"image-keyboard-response","537","587973","0.0-4.0-1.170","7","null","","","","Images/BlackBeadChoice.png","null"
"image-keyboard-response","538","588478","0.0-4.0-2.170","7","327.2849999993341","","","","Images/BlackBeadChoiceCorrect.png","37"
"image-keyboard-response","539","588675","0.0-4.0-0.171","7","196.64999999804422","","","","Images/NewTrialBC.png","37"
"image-keyboard-response","540","588930","0.0-4.0-1.171","7","null","","","","Images/BlackBeadChoice.png","null"
"image-keyboard-response","541","589432","0.0-4.0-2.171","7","494.5250000018859","","","","Images/BlackBeadChoiceCorrect.png","37"
"image-keyboard-response","542","589854","0.0-4.0-0.172","7","420.47500000265427","","","","Images/NewTrialBC.png","37"
"image-keyboard-response","543","590109","0.0-4.0-1.172","7","null","","","","Images/BlackBeadChoice.png","null"
"image-keyboard-response","544","590615","0.0-4.0-2.172","7","null","","","","Images/BlackBeadChoiceCorrect.png","null"
"image-keyboard-response","545","590772","0.0-4.0-0.173","7","155.73500000021886","","","","Images/NewTrialBC.png","37"
"image-keyboard-response","546","591027","0.0-4.0-1.173","7","null","","","","Images/BlackBeadChoice.png","null"
"image-keyboard-response","547","591530","0.0-4.0-2.173","7","403.2500000030268","","","","Images/BlackBeadChoiceCorrect.png","37"
"image-keyboard-response","548","591961","0.0-4.0-0.174","7","429.3950000028126","","","","Images/NewTrialBC.png","37"
"image-keyboard-response","549","592216","0.0-4.0-1.174","7","null","","","","Images/BlackBeadChoice.png","null"
"image-keyboard-response","550","592717","0.0-4.0-2.174","7","null","","","","Images/BlackBeadChoiceWrong.png","null"
"image-keyboard-response","551","593078","0.0-4.0-0.175","7","359.3399999990361","","","","Images/NewTrialWC.png","39"
"image-keyboard-response","552","593331","0.0-4.0-1.175","7","null","","","","Images/WhiteBeadChoice.png","null"
"image-keyboard-response","553","593837","0.0-4.0-2.175","7","null","","","","Images/WhiteBeadChoiceCorrect.png","null"
"image-keyboard-response","554","593875","0.0-4.0-0.176","7","36.72999999974854","","","","Images/NewTrialWC.png","39"
"image-keyboard-response","555","594127","0.0-4.0-1.176","7","null","","","","Images/WhiteBeadChoice.png","null"
"image-keyboard-response","556","594631","0.0-4.0-2.176","7","null","","","","Images/WhiteBeadChoiceCorrect.png","null"
"image-keyboard-response","557","594666","0.0-4.0-0.177","7","34.099999997066334","","","","Images/NewTrialWC.png","39"
"image-keyboard-response","558","594918","0.0-4.0-1.177","7","88.43000000342727","","","","Images/WhiteBeadChoice.png","39"
"image-keyboard-response","559","595421","0.0-4.0-2.177","7","null","","","","Images/WhiteBeadChoiceCorrect.png","null"
"image-keyboard-response","560","595684","0.0-4.0-0.178","7","261.77000000094995","","","","Images/NewTrialWC.png","39"
"image-keyboard-response","561","595938","0.0-4.0-1.178","7","null","","","","Images/WhiteBeadChoice.png","null"
"image-keyboard-response","562","596442","0.0-4.0-2.178","7","null","","","","Images/WhiteBeadChoiceWrong.png","null"
"image-keyboard-response","563","596787","0.0-4.0-0.179","7","343.32500000169966","","","","Images/NewTrialBC.png","37"
"image-keyboard-response","564","597042","0.0-4.0-1.179","7","null","","","","Images/BlackBeadChoice.png","null"
"image-keyboard-response","565","597548","0.0-4.0-2.179","7","null","","","","Images/BlackBeadChoiceCorrect.png","null"
"image-keyboard-response","566","597559","0.0-4.0-0.180","7","10.379999999771826","","","","Images/NewTrialBC.png","37"
"image-keyboard-response","567","597810","0.0-4.0-1.180","7","null","","","","Images/BlackBeadChoice.png","null"
"image-keyboard-response","568","598315","0.0-4.0-2.180","7","null","","","","Images/BlackBeadChoiceCorrect.png","null"
"image-keyboard-response","569","598317","0.0-4.0-0.181","7","0.9649999992689118","","","","Images/NewTrialBC.png","39"
"image-keyboard-response","570","598572","0.0-4.0-1.181","7","null","","","","Images/WhiteBeadChoice.png","null"
"image-keyboard-response","571","599074","0.0-4.0-2.181","7","429.3600000019651","","","","Images/WhiteBeadChoiceWrong.png","39"
"image-keyboard-response","572","599508","0.0-4.0-0.182","7","432.71500000264496","","","","Images/NewTrialBC.png","39"
"image-keyboard-response","573","599764","0.0-4.0-1.182","7","null","","","","Images/WhiteBeadChoice.png","null"
"image-keyboard-response","574","600266","0.0-4.0-2.182","7","403.80500000179745","","","","Images/WhiteBeadChoiceWrong.png","39"
"image-keyboard-response","575","600575","0.0-4.0-0.183","7","308.51500000059605","","","","Images/NewTrialBC.png","39"
"image-keyboard-response","576","600829","0.0-4.0-1.183","7","null","","","","Images/WhiteBeadChoice.png","null"
"image-keyboard-response","577","601335","0.0-4.0-2.183","7","null","","","","Images/WhiteBeadChoiceWrong.png","null"
"image-keyboard-response","578","601359","0.0-4.0-0.184","7","23.39500000013504","","","","Images/NewTrialBC.png","37"
"image-keyboard-response","579","601614","0.0-4.0-1.184","7","null","","","","Images/BlackBeadChoice.png","null"
"image-keyboard-response","580","602116","0.0-4.0-2.184","7","314.91000000108033","","","","Images/BlackBeadChoiceCorrect.png","37"
"image-keyboard-response","581","602386","0.0-4.0-0.185","7","268.98500000243075","","","","Images/NewTrialBC.png","37"
"image-keyboard-response","582","602642","0.0-4.0-1.185","7","null","","","","Images/BlackBeadChoice.png","null"
"image-keyboard-response","583","603144","0.0-4.0-2.185","7","488.00999999721535","","","","Images/BlackBeadChoiceWrong.png","39"
"image-keyboard-response","584","603832","0.0-4.0-0.186","7","687.0899999995017","","","","Images/NewTrialWC.png","37"
"image-keyboard-response","585","604085","0.0-4.0-1.186","7","null","","","","Images/BlackBeadChoice.png","null"
"image-keyboard-response","586","604591","0.0-4.0-2.186","7","482.64000000199303","","","","Images/BlackBeadChoiceWrong.png","39"
"image-keyboard-response","587","604987","0.0-4.0-0.187","7","395.17500000144355","","","","Images/NewTrialWC.png","39"
"image-keyboard-response","588","605243","0.0-4.0-1.187","7","null","","","","Images/WhiteBeadChoice.png","null"
"image-keyboard-response","589","605746","0.0-4.0-2.187","7","312.11500000057276","","","","Images/WhiteBeadChoiceCorrect.png","39"
"image-keyboard-response","590","606047","0.0-4.0-0.188","7","300.20499999949243","","","","Images/NewTrialWC.png","39"
"image-keyboard-response","591","606303","0.0-4.0-1.188","7","null","","","","Images/WhiteBeadChoice.png","null"
"image-keyboard-response","592","606807","0.0-4.0-2.188","7","275.4500000010012","","","","Images/WhiteBeadChoiceCorrect.png","39"
"image-keyboard-response","593","607247","0.0-4.0-0.189","7","438.6049999993993","","","","Images/NewTrialWC.png","39"
"image-keyboard-response","594","607498","0.0-4.0-1.189","7","null","","","","Images/WhiteBeadChoice.png","null"
"image-keyboard-response","595","608002","0.0-4.0-2.189","7","null","","","","Images/WhiteBeadChoiceCorrect.png","null"
"image-keyboard-response","596","613918","0.0-4.0-0.190","7","5914.469999999739","","","","Images/NewTrialWC.png","37"
"image-keyboard-response","597","614169","0.0-4.0-1.190","7","null","","","","Images/BlackBeadChoice.png","null"
"image-keyboard-response","598","614670","0.0-4.0-2.190","7","null","","","","Images/BlackBeadChoiceWrong.png","null"
"image-keyboard-response","599","615008","0.0-4.0-0.191","7","336.99499999789987","","","","Images/NewTrialWC.png","39"
"image-keyboard-response","600","615264","0.0-4.0-1.191","7","null","","","","Images/WhiteBeadChoice.png","null"
"image-keyboard-response","601","615767","0.0-4.0-2.191","7","null","","","","Images/WhiteBeadChoiceWrong.png","null"
"image-keyboard-response","602","623005","0.0-4.0-0.192","7","7237.155000002589","","","","Images/NewTrialBC.png","37"
"image-keyboard-response","603","623260","0.0-4.0-1.192","7","null","","","","Images/BlackBeadChoice.png","null"
"image-keyboard-response","604","623765","0.0-4.0-2.192","7","null","","","","Images/BlackBeadChoiceWrong.png","null"
"image-keyboard-response","605","635390","0.0-4.0-0.193","7","11624.475000000442","","","","Images/NewTrialWC.png","39"
"image-keyboard-response","606","635642","0.0-4.0-1.193","7","null","","","","Images/WhiteBeadChoice.png","null"
"image-keyboard-response","607","636145","0.0-4.0-2.193","7","null","","","","Images/WhiteBeadChoiceWrong.png","null"
"image-keyboard-response","608","636504","0.0-4.0-0.194","7","358.0100000000093","","","","Images/NewTrialBC.png","37"
"image-keyboard-response","609","636756","0.0-4.0-1.194","7","null","","","","Images/BlackBeadChoice.png","null"
"image-keyboard-response","610","637261","0.0-4.0-2.194","7","null","","","","Images/BlackBeadChoiceWrong.png","null"
"image-keyboard-response","611","637743","0.0-4.0-0.195","7","480.12000000011176","","","","Images/NewTrialWC.png","39"
"image-keyboard-response","612","637997","0.0-4.0-1.195","7","null","","","","Images/WhiteBeadChoice.png","null"
"image-keyboard-response","613","638503","0.0-4.0-2.195","7","null","","","","Images/WhiteBeadChoiceWrong.png","null"
"image-keyboard-response","614","638556","0.0-4.0-0.196","7","51.82500000228174","","","","Images/NewTrialBC.png","37"
"image-keyboard-response","615","638807","0.0-4.0-1.196","7","null","","","","Images/BlackBeadChoice.png","null"
"image-keyboard-response","616","639312","0.0-4.0-2.196","7","429.789999998291","","","","Images/BlackBeadChoiceCorrect.png","37"
"image-keyboard-response","617","639663","0.0-4.0-0.197","7","349.75499999918975","","","","Images/NewTrialBC.png","37"
"image-keyboard-response","618","639915","0.0-4.0-1.197","7","null","","","","Images/BlackBeadChoice.png","null"
"image-keyboard-response","619","640418","0.0-4.0-2.197","7","321.58999999950174","","","","Images/BlackBeadChoiceCorrect.png","37"
"image-keyboard-response","620","640557","0.0-4.0-0.198","7","137.86999999859836","","","","Images/NewTrialBC.png","37"
"image-keyboard-response","621","640809","0.0-4.0-1.198","7","null","","","","Images/BlackBeadChoice.png","null"
"image-keyboard-response","622","641314","0.0-4.0-2.198","7","343.81999999820255","","","","Images/BlackBeadChoiceCorrect.png","37"
"image-keyboard-response","623","641472","0.0-4.0-0.199","7","156.960000000312","","","","Images/NewTrialBC.png","37"
"image-keyboard-response","624","641724","0.0-4.0-1.199","7","null","","","","Images/BlackBeadChoice.png","null"
"image-keyboard-response","625","642230","0.0-4.0-2.199","7","326.7649999980349","","","","Images/BlackBeadChoiceCorrect.png","37"
"html-keyboard-response","626","649521","0.0-5.0","7","7290.144999999087","","","","","32"
"html-keyboard-response","627","665000","0.0-6.0","7","15477.060000001104","","","","<div class=""container"" style=""height:800px;width:800px;display:flex;flex-direction:column;justify-content:center;align-items:center;text-align:center;font-weight:normal;font-family:Arial;font-size:20px""><p>Loading episode&hellip;</p><div>","32"
"image-keyboard-response","628","667126","0.0-7.0-0.0","7","2125.6749999992317","","","","Images/NoChoiceMM.png","39"
"image-keyboard-response","629","667381","0.0-7.0-1.0","7","null","","","","Images/WhiteBeadChoiceMM.png","null"
"image-keyboard-response","630","667885","0.0-7.0-2.0","7","null","","","","Images/WhiteBeadChoiceCorrectMM.png","null"
"image-keyboard-response","631","668973","0.0-7.0-0.1","7","1086.1599999988684","","","","Images/NewTrialWCMM.png","39"
"image-keyboard-response","632","669225","0.0-7.0-1.1","7","null","","","","Images/WhiteBeadChoiceMM.png","null"
"image-keyboard-response","633","669727","0.0-7.0-2.1","7","375.1300000003539","","","","Images/WhiteBeadChoiceCorrectMM.png","39"
"image-keyboard-response","634","669994","0.0-7.0-0.2","7","266.61000000243075","","","","Images/NewTrialWCMM.png","39"
"image-keyboard-response","635","670247","0.0-7.0-1.2","7","null","","","","Images/WhiteBeadChoiceMM.png","null"
"image-keyboard-response","636","670753","0.0-7.0-2.2","7","286.8999999992084","","","","Images/WhiteBeadChoiceCorrectMM.png","39"
"image-keyboard-response","637","671291","0.0-7.0-0.3","7","536.834999998915","","","","Images/NewTrialWCMM.png","39"
"image-keyboard-response","638","671543","0.0-7.0-1.3","7","null","","","","Images/WhiteBeadChoiceMM.png","null"
"image-keyboard-response","639","672047","0.0-7.0-2.3","7","null","","","","Images/WhiteBeadChoiceCorrectMM.png","null"
"image-keyboard-response","640","672469","0.0-7.0-0.4","7","421.0950000016019","","","","Images/NewTrialWCMM.png","39"
"image-keyboard-response","641","672721","0.0-7.0-1.4","7","null","","","","Images/WhiteBeadChoiceMM.png","null"
"image-keyboard-response","642","673223","0.0-7.0-2.4","7","null","","","","Images/WhiteBeadChoiceCorrectMM.png","null"
"image-keyboard-response","643","673642","0.0-7.0-0.5","7","417.54499999666587","","","","Images/NewTrialWCMM.png","39"
"image-keyboard-response","644","673896","0.0-7.0-1.5","7","null","","","","Images/WhiteBeadChoiceMM.png","null"
"image-keyboard-response","645","674397","0.0-7.0-2.5","7","null","","","","Images/WhiteBeadChoiceCorrectMM.png","null"
"image-keyboard-response","646","675415","0.0-7.0-0.6","7","1016.390000000596","","","","Images/NewTrialWCMM.png","39"
"image-keyboard-response","647","675666","0.0-7.0-1.6","7","null","","","","Images/WhiteBeadChoiceMM.png","null"
"image-keyboard-response","648","676169","0.0-7.0-2.6","7","null","","","","Images/WhiteBeadChoiceCorrectMM.png","null"
"image-keyboard-response","649","676646","0.0-7.0-0.7","7","475.7400000017369","","","","Images/NewTrialWCMM.png","39"
"image-keyboard-response","650","676899","0.0-7.0-1.7","7","null","","","","Images/WhiteBeadChoiceMM.png","null"
"image-keyboard-response","651","677404","0.0-7.0-2.7","7","null","","","","Images/WhiteBeadChoiceCorrectMM.png","null"
"image-keyboard-response","652","677793","0.0-7.0-0.8","7","388.0349999999162","","","","Images/NewTrialWCMM.png","39"
"image-keyboard-response","653","678049","0.0-7.0-1.8","7","null","","","","Images/WhiteBeadChoiceMM.png","null"
"image-keyboard-response","654","678553","0.0-7.0-2.8","7","null","","","","Images/WhiteBeadChoiceCorrectMM.png","null"
"image-keyboard-response","655","679140","0.0-7.0-0.9","7","585.3099999985425","","","","Images/NewTrialWCMM.png","39"
"image-keyboard-response","656","679391","0.0-7.0-1.9","7","null","","","","Images/WhiteBeadChoiceMM.png","null"
"image-keyboard-response","657","679893","0.0-7.0-2.9","7","null","","","","Images/WhiteBeadChoiceCorrectMM.png","null"
"image-keyboard-response","658","680284","0.0-7.0-0.10","7","390.33500000007916","","","","Images/NewTrialWCMM.png","39"
"image-keyboard-response","659","680540","0.0-7.0-1.10","7","null","","","","Images/WhiteBeadChoiceMM.png","null"
"image-keyboard-response","660","681043","0.0-7.0-2.10","7","null","","","","Images/WhiteBeadChoiceCorrectMM.png","null"
"image-keyboard-response","661","681378","0.0-7.0-0.11","7","334.12500000128057","","","","Images/NewTrialWCMM.png","37"
"image-keyboard-response","662","681629","0.0-7.0-1.11","7","null","","","","Images/BlackBeadChoiceMM.png","null"
"image-keyboard-response","663","682135","0.0-7.0-2.11","7","null","","","","Images/BlackBeadChoiceWrongMM.png","null"
"image-keyboard-response","664","682864","0.0-7.0-0.12","7","728.0949999985751","","","","Images/NewTrialWCMM.png","39"
"image-keyboard-response","665","683118","0.0-7.0-1.12","7","null","","","","Images/WhiteBeadChoiceMM.png","null"
"image-keyboard-response","666","683623","0.0-7.0-2.12","7","null","","","","Images/WhiteBeadChoiceCorrectMM.png","null"
"image-keyboard-response","667","683632","0.0-7.0-0.13","7","7.045000002137385","","","","Images/NewTrialWCMM.png","39"
"image-keyboard-response","668","683885","0.0-7.0-1.13","7","null","","","","Images/WhiteBeadChoiceMM.png","null"
"image-keyboard-response","669","684391","0.0-7.0-2.13","7","412.465000001248","","","","Images/WhiteBeadChoiceCorrectMM.png","39"
"image-keyboard-response","670","684808","0.0-7.0-0.14","7","415.46999999985565","","","","Images/NewTrialWCMM.png","39"
"image-keyboard-response","671","685063","0.0-7.0-1.14","7","null","","","","Images/WhiteBeadChoiceMM.png","null"
"image-keyboard-response","672","685566","0.0-7.0-2.14","7","null","","","","Images/WhiteBeadChoiceCorrectMM.png","null"
"image-keyboard-response","673","686092","0.0-7.0-0.15","7","524.6899999984307","","","","Images/NewTrialWCMM.png","39"
"image-keyboard-response","674","686345","0.0-7.0-1.15","7","null","","","","Images/WhiteBeadChoiceMM.png","null"
"image-keyboard-response","675","686851","0.0-7.0-2.15","7","null","","","","Images/WhiteBeadChoiceCorrectMM.png","null"
"image-keyboard-response","676","687310","0.0-7.0-0.16","7","458.2650000011781","","","","Images/NewTrialWCMM.png","39"
"image-keyboard-response","677","687566","0.0-7.0-1.16","7","null","","","","Images/WhiteBeadChoiceMM.png","null"
"image-keyboard-response","678","688070","0.0-7.0-2.16","7","null","","","","Images/WhiteBeadChoiceCorrectMM.png","null"
"image-keyboard-response","679","689132","0.0-7.0-0.17","7","1060.5200000026962","","","","Images/NewTrialWCMM.png","39"
"image-keyboard-response","680","689388","0.0-7.0-1.17","7","null","","","","Images/WhiteBeadChoiceMM.png","null"
"image-keyboard-response","681","689893","0.0-7.0-2.17","7","null","","","","Images/WhiteBeadChoiceCorrectMM.png","null"
"image-keyboard-response","682","690191","0.0-7.0-0.18","7","297.4400000020396","","","","Images/NewTrialWCMM.png","39"
"image-keyboard-response","683","690445","0.0-7.0-1.18","7","null","","","","Images/WhiteBeadChoiceMM.png","null"
"image-keyboard-response","684","690951","0.0-7.0-2.18","7","null","","","","Images/WhiteBeadChoiceWrongMM.png","null"
"image-keyboard-response","685","691485","0.0-7.0-0.19","7","532.5699999993667","","","","Images/NewTrialBCMM.png","37"
"image-keyboard-response","686","691738","0.0-7.0-1.19","7","null","","","","Images/BlackBeadChoiceMM.png","null"
"image-keyboard-response","687","692243","0.0-7.0-2.19","7","null","","","","Images/BlackBeadChoiceCorrectMM.png","null"
"image-keyboard-response","688","692359","0.0-7.0-0.20","7","115.29999999771826","","","","Images/NewTrialBCMM.png","37"
"image-keyboard-response","689","692613","0.0-7.0-1.20","7","null","","","","Images/BlackBeadChoiceMM.png","null"
"image-keyboard-response","690","693117","0.0-7.0-2.20","7","null","","","","Images/BlackBeadChoiceWrongMM.png","null"
"image-keyboard-response","691","693501","0.0-7.0-0.21","7","382.55000000214204","","","","Images/NewTrialWCMM.png","39"
"image-keyboard-response","692","693752","0.0-7.0-1.21","7","null","","","","Images/WhiteBeadChoiceMM.png","null"
"image-keyboard-response","693","694253","0.0-7.0-2.21","7","458.7549999996554","","","","Images/WhiteBeadChoiceCorrectMM.png","39"
"image-keyboard-response","694","694619","0.0-7.0-0.22","7","364.929999999702","","","","Images/NewTrialWCMM.png","39"
"image-keyboard-response","695","694870","0.0-7.0-1.22","7","null","","","","Images/WhiteBeadChoiceMM.png","null"
"image-keyboard-response","696","695375","0.0-7.0-2.22","7","null","","","","Images/WhiteBeadChoiceCorrectMM.png","null"
"image-keyboard-response","697","695784","0.0-7.0-0.23","7","407.3500000012573","","","","Images/NewTrialWCMM.png","39"
"image-keyboard-response","698","696035","0.0-7.0-1.23","7","null","","","","Images/WhiteBeadChoiceMM.png","null"
"image-keyboard-response","699","696541","0.0-7.0-2.23","7","null","","","","Images/WhiteBeadChoiceCorrectMM.png","null"
"image-keyboard-response","700","696886","0.0-7.0-0.24","7","343.9150000013178","","","","Images/NewTrialWCMM.png","39"
"image-keyboard-response","701","697138","0.0-7.0-1.24","7","null","","","","Images/WhiteBeadChoiceMM.png","null"
"image-keyboard-response","702","697642","0.0-7.0-2.24","7","486.9749999998603","","","","Images/WhiteBeadChoiceCorrectMM.png","39"
"image-keyboard-response","703","698011","0.0-7.0-0.25","7","367.40500000084285","","","","Images/NewTrialWCMM.png","39"
"image-keyboard-response","704","698266","0.0-7.0-1.25","7","null","","","","Images/WhiteBeadChoiceMM.png","null"
"image-keyboard-response","705","698769","0.0-7.0-2.25","7","344.9349999973783","","","","Images/WhiteBeadChoiceCorrectMM.png","39"
"image-keyboard-response","706","699054","0.0-7.0-0.26","7","284.0199999990873","","","","Images/NewTrialWCMM.png","39"
"image-keyboard-response","707","699309","0.0-7.0-1.26","7","null","","","","Images/WhiteBeadChoiceMM.png","null"
"image-keyboard-response","708","699810","0.0-7.0-2.26","7","455.4549999992596","","","","Images/WhiteBeadChoiceCorrectMM.png","39"
"image-keyboard-response","709","700408","0.0-7.0-0.27","7","597.0200000010664","","","","Images/NewTrialWCMM.png","39"
"image-keyboard-response","710","700663","0.0-7.0-1.27","7","null","","","","Images/WhiteBeadChoiceMM.png","null"
"image-keyboard-response","711","701166","0.0-7.0-2.27","7","null","","","","Images/WhiteBeadChoiceCorrectMM.png","null"
"image-keyboard-response","712","701502","0.0-7.0-0.28","7","334.494999999064","","","","Images/NewTrialWCMM.png","39"
"image-keyboard-response","713","701756","0.0-7.0-1.28","7","null","","","","Images/WhiteBeadChoiceMM.png","null"
"image-keyboard-response","714","702262","0.0-7.0-2.28","7","null","","","","Images/WhiteBeadChoiceCorrectMM.png","null"
"image-keyboard-response","715","702897","0.0-7.0-0.29","7","634.1600000014296","","","","Images/NewTrialWCMM.png","39"
"image-keyboard-response","716","703150","0.0-7.0-1.29","7","null","","","","Images/WhiteBeadChoiceMM.png","null"
"image-keyboard-response","717","703651","0.0-7.0-2.29","7","null","","","","Images/WhiteBeadChoiceCorrectMM.png","null"
"image-keyboard-response","718","703895","0.0-7.0-0.30","7","242.88499999954365","","","","Images/NewTrialWCMM.png","39"
"image-keyboard-response","719","704146","0.0-7.0-1.30","7","null","","","","Images/WhiteBeadChoiceMM.png","null"
"image-keyboard-response","720","704651","0.0-7.0-2.30","7","null","","","","Images/WhiteBeadChoiceCorrectMM.png","null"
"image-keyboard-response","721","704904","0.0-7.0-0.31","7","251.7550000011688","","","","Images/NewTrialWCMM.png","39"
"image-keyboard-response","722","705155","0.0-7.0-1.31","7","null","","","","Images/WhiteBeadChoiceMM.png","null"
"image-keyboard-response","723","705657","0.0-7.0-2.31","7","null","","","","Images/WhiteBeadChoiceCorrectMM.png","null"
"image-keyboard-response","724","705898","0.0-7.0-0.32","7","239.9299999998184","","","","Images/NewTrialWCMM.png","39"
"image-keyboard-response","725","706150","0.0-7.0-1.32","7","null","","","","Images/WhiteBeadChoiceMM.png","null"
"image-keyboard-response","726","706652","0.0-7.0-2.32","7","375.3150000011083","","","","Images/WhiteBeadChoiceCorrectMM.png","39"
"image-keyboard-response","727","707026","0.0-7.0-0.33","7","373.12500000197906","","","","Images/NewTrialWCMM.png","39"
"image-keyboard-response","728","707277","0.0-7.0-1.33","7","null","","","","Images/WhiteBeadChoiceMM.png","null"
"image-keyboard-response","729","707782","0.0-7.0-2.33","7","null","","","","Images/WhiteBeadChoiceCorrectMM.png","null"
"image-keyboard-response","730","708166","0.0-7.0-0.34","7","382.5350000007311","","","","Images/NewTrialWCMM.png","39"
"image-keyboard-response","731","708418","0.0-7.0-1.34","7","null","","","","Images/WhiteBeadChoiceMM.png","null"
"image-keyboard-response","732","708925","0.0-7.0-2.34","7","null","","","","Images/WhiteBeadChoiceCorrectMM.png","null"
"image-keyboard-response","733","709290","0.0-7.0-0.35","7","364.740000000922","","","","Images/NewTrialWCMM.png","37"
"image-keyboard-response","734","709546","0.0-7.0-1.35","7","null","","","","Images/BlackBeadChoiceMM.png","null"
"image-keyboard-response","735","710051","0.0-7.0-2.35","7","null","","","","Images/BlackBeadChoiceWrongMM.png","null"
"image-keyboard-response","736","710266","0.0-7.0-0.36","7","214.04999999864958","","","","Images/NewTrialWCMM.png","39"
"image-keyboard-response","737","710517","0.0-7.0-1.36","7","null","","","","Images/WhiteBeadChoiceMM.png","null"
"image-keyboard-response","738","711023","0.0-7.0-2.36","7","null","","","","Images/WhiteBeadChoiceCorrectMM.png","null"
"image-keyboard-response","739","711234","0.0-7.0-0.37","7","209.71999999892432","","","","Images/NewTrialWCMM.png","39"
"image-keyboard-response","740","711490","0.0-7.0-1.37","7","null","","","","Images/WhiteBeadChoiceMM.png","null"
"image-keyboard-response","741","711994","0.0-7.0-2.37","7","null","","","","Images/WhiteBeadChoiceCorrectMM.png","null"
"image-keyboard-response","742","712275","0.0-7.0-0.38","7","279.709999998915","","","","Images/NewTrialWCMM.png","39"
"image-keyboard-response","743","712530","0.0-7.0-1.38","7","null","","","","Images/WhiteBeadChoiceMM.png","null"
"image-keyboard-response","744","713035","0.0-7.0-2.38","7","null","","","","Images/WhiteBeadChoiceWrongMM.png","null"
"image-keyboard-response","745","713418","0.0-7.0-0.39","7","382.10000000253785","","","","Images/NewTrialBCMM.png","37"
"image-keyboard-response","746","713674","0.0-7.0-1.39","7","null","","","","Images/BlackBeadChoiceMM.png","null"
"image-keyboard-response","747","714179","0.0-7.0-2.39","7","null","","","","Images/BlackBeadChoiceCorrectMM.png","null"
"image-keyboard-response","748","714350","0.0-7.0-0.40","7","169.86999999789987","","","","Images/NewTrialBCMM.png","37"
"image-keyboard-response","749","714605","0.0-7.0-1.40","7","null","","","","Images/BlackBeadChoiceMM.png","null"
"image-keyboard-response","750","715111","0.0-7.0-2.40","7","null","","","","Images/BlackBeadChoiceCorrectMM.png","null"
"image-keyboard-response","751","715296","0.0-7.0-0.41","7","184.43499999924097","","","","Images/NewTrialBCMM.png","37"
"image-keyboard-response","752","715550","0.0-7.0-1.41","7","null","","","","Images/BlackBeadChoiceMM.png","null"
"image-keyboard-response","753","716055","0.0-7.0-2.41","7","null","","","","Images/BlackBeadChoiceCorrectMM.png","null"
"image-keyboard-response","754","716186","0.0-7.0-0.42","7","129.25499999977183","","","","Images/NewTrialBCMM.png","37"
"image-keyboard-response","755","716439","0.0-7.0-1.42","7","null","","","","Images/BlackBeadChoiceMM.png","null"
"image-keyboard-response","756","716944","0.0-7.0-2.42","7","452.65000000293367","","","","Images/BlackBeadChoiceCorrectMM.png","37"
"image-keyboard-response","757","717332","0.0-7.0-0.43","7","387.1450000006007","","","","Images/NewTrialBCMM.png","37"
"image-keyboard-response","758","717585","0.0-7.0-1.43","7","null","","","","Images/BlackBeadChoiceMM.png","null"
"image-keyboard-response","759","718090","0.0-7.0-2.43","7","null","","","","Images/BlackBeadChoiceCorrectMM.png","null"
"image-keyboard-response","760","718114","0.0-7.0-0.44","7","23.255000000004657","","","","Images/NewTrialBCMM.png","37"
"image-keyboard-response","761","718368","0.0-7.0-1.44","7","null","","","","Images/BlackBeadChoiceMM.png","null"
"image-keyboard-response","762","718871","0.0-7.0-2.44","7","347.5749999997206","","","","Images/BlackBeadChoiceCorrectMM.png","37"
"image-keyboard-response","763","719035","0.0-7.0-0.45","7","162.66000000177883","","","","Images/NewTrialBCMM.png","37"
"image-keyboard-response","764","719291","0.0-7.0-1.45","7","null","","","","Images/BlackBeadChoiceMM.png","null"
"image-keyboard-response","765","719794","0.0-7.0-2.45","7","424.6050000000978","","","","Images/BlackBeadChoiceCorrectMM.png","37"
"image-keyboard-response","766","720060","0.0-7.0-0.46","7","265.1000000005588","","","","Images/NewTrialBCMM.png","37"
"image-keyboard-response","767","720314","0.0-7.0-1.46","7","null","","","","Images/BlackBeadChoiceMM.png","null"
"image-keyboard-response","768","720819","0.0-7.0-2.46","7","null","","","","Images/BlackBeadChoiceCorrectMM.png","null"
"image-keyboard-response","769","721565","0.0-7.0-0.47","7","745.3300000015879","","","","Images/NewTrialBCMM.png","37"
"image-keyboard-response","770","721817","0.0-7.0-1.47","7","null","","","","Images/BlackBeadChoiceMM.png","null"
"image-keyboard-response","771","722318","0.0-7.0-2.47","7","379.3599999990547","","","","Images/BlackBeadChoiceCorrectMM.png","37"
"image-keyboard-response","772","722466","0.0-7.0-0.48","7","146.8349999996135","","","","Images/NewTrialBCMM.png","37"
"image-keyboard-response","773","722718","0.0-7.0-1.48","7","null","","","","Images/BlackBeadChoiceMM.png","null"
"image-keyboard-response","774","723222","0.0-7.0-2.48","7","392.5299999973504","","","","Images/BlackBeadChoiceCorrectMM.png","37"
"image-keyboard-response","775","723375","0.0-7.0-0.49","7","152.85999999835622","","","","Images/NewTrialBCMM.png","37"
"image-keyboard-response","776","723629","0.0-7.0-1.49","7","null","","","","Images/BlackBeadChoiceMM.png","null"
"image-keyboard-response","777","724131","0.0-7.0-2.49","7","null","","","","Images/BlackBeadChoiceCorrectMM.png","null"
"image-keyboard-response","778","724190","0.0-7.0-0.50","7","58.544999999925494","","","","Images/NewTrialBCMM.png","37"
"image-keyboard-response","779","724444","0.0-7.0-1.50","7","null","","","","Images/BlackBeadChoiceMM.png","null"
"image-keyboard-response","780","724946","0.0-7.0-2.50","7","455.9100000006147","","","","Images/BlackBeadChoiceCorrectMM.png","37"
"image-keyboard-response","781","725323","0.0-7.0-0.51","7","375.4849999968428","","","","Images/NewTrialBCMM.png","37"
"image-keyboard-response","782","725579","0.0-7.0-1.51","7","null","","","","Images/BlackBeadChoiceMM.png","null"
"image-keyboard-response","783","726085","0.0-7.0-2.51","7","335.40999999968335","","","","Images/BlackBeadChoiceCorrectMM.png","37"
"image-keyboard-response","784","726278","0.0-7.0-0.52","7","192.71999999915715","","","","Images/NewTrialBCMM.png","37"
"image-keyboard-response","785","726529","0.0-7.0-1.52","7","null","","","","Images/BlackBeadChoiceMM.png","null"
"image-keyboard-response","786","727033","0.0-7.0-2.52","7","391.55500000191387","","","","Images/BlackBeadChoiceCorrectMM.png","37"
"image-keyboard-response","787","727288","0.0-7.0-0.53","7","253.72000000055414","","","","Images/NewTrialBCMM.png","37"
"image-keyboard-response","788","727541","0.0-7.0-1.53","7","null","","","","Images/BlackBeadChoiceMM.png","null"
"image-keyboard-response","789","728045","0.0-7.0-2.53","7","438.190000000759","","","","Images/BlackBeadChoiceCorrectMM.png","37"
"image-keyboard-response","790","728545","0.0-7.0-0.54","7","499.22499999951106","","","","Images/NewTrialBCMM.png","37"
"image-keyboard-response","791","728797","0.0-7.0-1.54","7","null","","","","Images/BlackBeadChoiceMM.png","null"
"image-keyboard-response","792","729303","0.0-7.0-2.54","7","null","","","","Images/BlackBeadChoiceCorrectMM.png","null"
"image-keyboard-response","793","729436","0.0-7.0-0.55","7","131.91999999969266","","","","Images/NewTrialBCMM.png","37"
"image-keyboard-response","794","729688","0.0-7.0-1.55","7","null","","","","Images/BlackBeadChoiceMM.png","null"
"image-keyboard-response","795","730189","0.0-7.0-2.55","7","null","","","","Images/BlackBeadChoiceCorrectMM.png","null"
"image-keyboard-response","796","730365","0.0-7.0-0.56","7","174.3849999983795","","","","Images/NewTrialBCMM.png","37"
"image-keyboard-response","797","730619","0.0-7.0-1.56","7","null","","","","Images/BlackBeadChoiceMM.png","null"
"image-keyboard-response","798","731124","0.0-7.0-2.56","7","null","","","","Images/BlackBeadChoiceWrongMM.png","null"
"image-keyboard-response","799","731591","0.0-7.0-0.57","7","465.86499999824446","","","","Images/NewTrialWCMM.png","39"
"image-keyboard-response","800","731844","0.0-7.0-1.57","7","null","","","","Images/WhiteBeadChoiceMM.png","null"
"image-keyboard-response","801","732350","0.0-7.0-2.57","7","null","","","","Images/WhiteBeadChoiceCorrectMM.png","null"
"image-keyboard-response","802","732368","0.0-7.0-0.58","7","16.780000001657754","","","","Images/NewTrialWCMM.png","39"
"image-keyboard-response","803","732621","0.0-7.0-1.58","7","null","","","","Images/WhiteBeadChoiceMM.png","null"
"image-keyboard-response","804","733122","0.0-7.0-2.58","7","null","","","","Images/WhiteBeadChoiceCorrectMM.png","null"
"image-keyboard-response","805","733168","0.0-7.0-0.59","7","44.44999999762513","","","","Images/NewTrialWCMM.png","39"
"image-keyboard-response","806","733421","0.0-7.0-1.59","7","null","","","","Images/WhiteBeadChoiceMM.png","null"
